images,name,corrAns,sounds,trials_3.thisRepN,trials_3.thisTrialN,trials_3.thisN,trials_3.thisIndex,trials_4.thisRepN,trials_4.thisTrialN,trials_4.thisN,trials_4.thisIndex,trials_2.thisRepN,trials_2.thisTrialN,trials_2.thisN,trials_2.thisIndex,trials.thisRepN,trials.thisTrialN,trials.thisN,trials.thisIndex,begin_global,begin_routine,end_global,end_routine,key_resp_2.keys,key_resp_2.corr,key_resp_2.rt,begin_book,key_resp_1.keys,key_resp_1.corr,key_resp_1.rt,date,frameRate,expName,session,participant,
images/volleyball.jpg,volley ball,z,,0,0,0,0,,,,,,,,,,,,,,,,,,,,,,,,2018_Nov_06_1614,60.0016742293,chinese_cond1,001,1001,
images/puma.jpg,puma,z,,,,,,0,0,0,0,,,,,,,,,48.2346421787,9.94246511254e-06,50.386004986,2.15137403266,z,1,2.13414309901,,,,,2018_Nov_06_1614,60.0016742293,chinese_cond1,001,1001,
images/licenseplate.jpg,license plate,z,sounds/animalfarm_chinese.wav,,,,,,,,,0,0,0,1,0,0,0,40,92.6739381367,9.94246511254e-06,94.3145061529,1.64057924161,,,,82.3828875421,z,1,1.61765480338,2018_Nov_06_1614,60.0016742293,chinese_cond1,001,1001,
images/raisin.jpg,ruler,x,sounds/animalfarm_chinese.wav,,,,,,,,,0,0,0,1,0,1,1,218,95.5021070008,9.62173726293e-06,96.8481955548,1.34609913792,,,,,x,1,1.33380576079,2018_Nov_06_1614,60.0016742293,chinese_cond1,001,1001,
images/cupcake.jpg,scissors,x,sounds/animalfarm_chinese.wav,,,,,,,,,0,0,0,1,0,2,2,219,98.0164361779,9.62174090091e-06,99.0654384194,1.04901218401,,,,,x,1,1.03385152821,2018_Nov_06_1614,60.0016742293,chinese_cond1,001,1001,
images/ant.jpg,ant,z,sounds/animalfarm_chinese.wav,,,,,,,,,0,0,0,1,0,3,3,98,100.2355633,9.30101668928e-06,101.115971159,0.880417801633,,,,,z,1,0.867126970734,2018_Nov_06_1614,60.0016742293,chinese_cond1,001,1001,
images/ashtray02b.jpg,ashtray,z,sounds/animalfarm_chinese.wav,,,,,,,,,0,0,0,1,0,4,4,43,102.301501088,9.3010130513e-06,103.39993887,1.0984477246,,,,,z,1,1.08389612497,2018_Nov_06_1614,60.0016742293,chinese_cond1,001,1001,
images/electrictoothbrush01a.jpg,banjo,x,sounds/animalfarm_chinese.wav,,,,,,,,,0,0,0,1,0,5,5,127,104.524338032,9.3010130513e-06,105.500462004,0.976133914101,,,,,x,1,0.967104231353,2018_Nov_06_1614,60.0016742293,chinese_cond1,001,1001,
images/radio03a.jpg,radio,z,sounds/animalfarm_chinese.wav,,,,,,,,,0,0,0,1,0,6,6,37,106.714013327,9.30101668928e-06,107.784395718,1.07039233288,,,,,z,1,1.0504387674,2018_Nov_06_1614,60.0016742293,chinese_cond1,001,1001,
images/leek.jpg,donut,x,sounds/animalfarm_chinese.wav,,,,,,,,,0,0,0,1,0,7,7,169,108.935169354,9.3010130513e-06,110.385075205,1.44991611446,,,,,x,1,1.43395941999,2018_Nov_06_1614,60.0016742293,chinese_cond1,001,1001,
images/beermug01b.jpg,beer mug,z,sounds/animalfarm_chinese.wav,,,,,,,,,0,0,0,1,0,8,8,111,111.584501814,9.30101668928e-06,112.735691109,1.15119955843,,,,,z,1,1.13387465246,2018_Nov_06_1614,60.0016742293,chinese_cond1,001,1001,
images/marker01a.jpg,marker,z,sounds/animalfarm_chinese.wav,,,,,,,,,0,0,0,1,0,9,9,95,113.86772833,9.30101668928e-06,114.936270081,1.06855201465,,,,,z,1,1.05052792886,2018_Nov_06_1614,60.0016742293,chinese_cond1,001,1001,
images/rhinoceros01.jpg,envelope,x,sounds/animalfarm_chinese.wav,,,,,,,,,0,0,0,1,0,10,10,173,116.10367265,9.30101668928e-06,117.603633362,1.49997065369,,,,,z,0,1.48396937849,2018_Nov_06_1614,60.0016742293,chinese_cond1,001,1001,
images/daisy.jpg,daisy,z,sounds/animalfarm_chinese.wav,,,,,,,,,0,0,0,1,0,11,11,6,118.790374988,9.30101668928e-06,119.987592766,1.19722771998,,,,,z,1,1.18389327053,2018_Nov_06_1614,60.0016742293,chinese_cond1,001,1001,
images/printer03a.jpg,printer,z,sounds/animalfarm_chinese.wav,,,,,,,,,0,0,0,1,0,12,12,72,121.138384362,4.55429071735e-05,121.988124527,0.849763898525,,,,,z,1,0.833812656372,2018_Nov_06_1614,60.0016742293,chinese_cond1,001,1001,
images/dolphin01.jpg,dolphin,z,sounds/animalfarm_chinese.wav,,,,,,,,,0,0,0,1,0,13,13,99,123.159912686,9.62174090091e-06,123.955291941,0.795388877075,,,,,z,1,0.783771266852,2018_Nov_06_1614,60.0016742293,chinese_cond1,001,1001,
images/flamingo.jpg,flamingo,z,sounds/animalfarm_chinese.wav,,,,,,,,,0,0,0,1,0,14,14,52,125.14230009,9.62174090091e-06,126.322585208,1.18029473957,,,,,z,1,1.16722007711,2018_Nov_06_1614,60.0016742293,chinese_cond1,001,1001,
images/grandpiano.jpg,tulip,x,sounds/animalfarm_chinese.wav,,,,,,,,,0,0,0,1,0,15,15,236,127.46477144,9.94246511254e-06,128.756560023,1.29179948677,,,,,x,1,1.26724384281,2018_Nov_06_1614,60.0016742293,chinese_cond1,001,1001,
images/backpack01b.jpg,swallow,x,sounds/animalfarm_chinese.wav,,,,,,,,,0,0,0,1,0,16,16,228,129.915489687,9.30101668928e-06,130.973639318,1.05815989344,,,,,x,1,1.03368026123,2018_Nov_06_1614,60.0016742293,chinese_cond1,001,1001,
images/eraser.jpg,eraser,z,sounds/animalfarm_chinese.wav,,,,,,,,,0,0,0,1,0,17,17,110,132.153310568,9.62174090091e-06,132.940995318,0.787695333362,,,,,z,1,0.767117637646,2018_Nov_06_1614,60.0016742293,chinese_cond1,001,1001,
images/toucan.jpg,toucan,z,sounds/animalfarm_chinese.wav,,,,,,,,,0,0,0,1,0,18,18,81,134.11402853,9.62174090091e-06,135.24167952,1.1276618946,,,,,x,0,1.11728484746,2018_Nov_06_1614,60.0016742293,chinese_cond1,001,1001,
images/mailbox01.jpg,mail box,z,sounds/animalfarm_chinese.wav,,,,,,,,,0,0,0,1,0,19,19,73,136.428166491,1.02631929622e-05,137.492180251,1.06402466501,,,,,z,1,1.05048783828,2018_Nov_06_1614,60.0016742293,chinese_cond1,001,1001,
images/saltshaker03c.jpg,salt shaker,z,sounds/animalfarm_chinese.wav,,,,,,,,,0,0,0,1,0,20,20,63,138.645465161,8.98029247764e-06,139.592725194,0.947269654731,,,,,z,1,0.933810122646,2018_Nov_06_1614,60.0016742293,chinese_cond1,001,1001,
images/gamecontroller01.jpg,game controller,z,sounds/animalfarm_chinese.wav,,,,,,,,,0,0,0,1,0,21,21,112,140.744691926,9.62174090091e-06,141.559918908,0.815236924132,,,,,z,1,0.800464986645,2018_Nov_06_1614,60.0016742293,chinese_cond1,001,1001,
images/hairband.jpg,hairband,z,sounds/animalfarm_chinese.wav,,,,,,,,,0,0,0,1,0,22,22,66,142.754954795,8.98029247764e-06,143.610450686,0.85550583254,,,,,z,1,0.833792450718,2018_Nov_06_1614,60.0016742293,chinese_cond1,001,1001,
images/parkfountain.jpg,park fountain,z,sounds/animalfarm_chinese.wav,,,,,,,,,0,0,0,1,0,23,23,93,144.815352385,9.30101668928e-06,146.177788276,1.36244551288,,,,,z,1,1.35059377364,2018_Nov_06_1614,60.0016742293,chinese_cond1,001,1001,
images/computermouse02a.jpg,world map,x,sounds/animalfarm_chinese.wav,,,,,,,,,0,0,0,1,0,24,24,239,147.366281059,9.62174090091e-06,148.328348951,0.962078475557,,,,,x,1,0.950487806207,2018_Nov_06_1614,60.0016742293,chinese_cond1,001,1001,
images/glasses01b.jpg,calculator,x,sounds/animalfarm_chinese.wav,,,,,,,,,0,0,0,1,0,25,25,142,149.544785834,8.98029247764e-06,150.462252469,0.917476576673,,,,,x,1,0.900481375676,2018_Nov_06_1614,60.0016742293,chinese_cond1,001,1001,
images/plate01b.jpg,plate,z,sounds/animalfarm_chinese.wav,,,,,,,,,0,0,0,1,0,26,26,3,151.633487377,9.62174090091e-06,152.579465474,0.945988680342,,,,,z,1,0.933811084822,2018_Nov_06_1614,60.0016742293,chinese_cond1,001,1001,
images/spoon02b.jpg,spoon,z,sounds/animalfarm_chinese.wav,,,,,,,,,0,0,0,1,0,27,27,38,153.778234276,9.62174090091e-06,154.429960945,0.651736932636,,,,,z,1,0.633748126565,2018_Nov_06_1614,60.0016742293,chinese_cond1,001,1001,
images/hanger02a.jpg,hanger,z,sounds/animalfarm_chinese.wav,,,,,,,,,0,0,0,1,0,28,28,88,155.593593075,9.30101668928e-06,156.663880211,1.0702977191,,,,,z,1,1.05052151437,2018_Nov_06_1614,60.0016742293,chinese_cond1,001,1001,
images/lychee02a.jpg,lychee,z,sounds/animalfarm_chinese.wav,,,,,,,,,0,0,0,1,0,29,29,62,157.812388889,9.62174090091e-06,158.647736213,0.835357587177,,,,,z,1,0.817091354256,2018_Nov_06_1614,60.0016742293,chinese_cond1,001,1001,
images/ostrich.jpg,ostrich,z,sounds/animalfarm_chinese.wav,,,,,,,,,0,0,0,1,0,30,30,76,159.815209983,8.98028883967e-06,161.115040737,1.29984069605,,,,,z,1,1.28372524286,2018_Nov_06_1614,60.0016742293,chinese_cond1,001,1001,
images/candle08a.jpg,screw driver,x,sounds/animalfarm_chinese.wav,,,,,,,,,0,0,0,1,0,31,31,221,162.273421642,9.62174090091e-06,163.165580533,0.89216947477,,,,,x,1,0.883809465162,2018_Nov_06_1614,60.0016742293,chinese_cond1,001,1001,
images/redfox.jpg,red fox,z,sounds/animalfarm_chinese.wav,,,,,,,,,0,0,0,1,0,32,32,1,164.368251913,8.98029247764e-06,165.182771376,0.814529405481,,,,,z,1,0.800450554038,2018_Nov_06_1614,60.0016742293,chinese_cond1,001,1001,
images/orange.jpg,bat,x,sounds/animalfarm_chinese.wav,,,,,,,,,0,0,0,1,0,33,33,128,166.376500951,9.62174090091e-06,167.183300571,0.806809883066,,,,,x,1,0.783741118732,2018_Nov_06_1614,60.0016742293,chinese_cond1,001,1001,
images/doorhandle.jpg,doll,x,sounds/animalfarm_chinese.wav,,,,,,,,,0,0,0,1,0,34,34,168,168.324375172,9.30101668928e-06,169.333864133,1.00949890296,,,,,x,1,1.00051059369,2018_Nov_06_1614,60.0016742293,chinese_cond1,001,1001,
images/radish01.jpg,raisin,x,sounds/animalfarm_chinese.wav,,,,,,,,,0,0,0,1,0,35,35,214,170.519036453,9.94246511254e-06,171.467779196,0.948753327117,,,,,x,1,0.933854382656,2018_Nov_06_1614,60.0016742293,chinese_cond1,001,1001,
images/bullet (2).jpg,rubber glove,x,sounds/animalfarm_chinese.wav,,,,,,,,,0,0,0,1,0,36,36,217,172.687054493,9.62174090091e-06,174.568586813,1.88154258309,,,,,x,1,1.86740856701,2018_Nov_06_1614,60.0016742293,chinese_cond1,001,1001,
images/swallow.jpg,mattress,x,sounds/animalfarm_chinese.wav,,,,,,,,,0,0,0,1,0,37,37,202,175.751405977,9.30101668928e-06,177.252615911,1.50122051778,,,,,x,1,1.48397803806,2018_Nov_06_1614,60.0016742293,chinese_cond1,001,1001,
images/aloe02.jpg,broad sword,x,sounds/animalfarm_chinese.wav,,,,,,,,,0,0,0,1,0,38,38,137,178.42291719,8.65956826601e-06,179.469900149,1.04699258068,,,,,x,1,1.03388809082,2018_Nov_06_1614,60.0016742293,chinese_cond1,001,1001,
images/watermelon01.jpg,orange,x,sounds/animalfarm_chinese.wav,,,,,,,,,0,0,0,1,0,39,39,207,180.648052768,9.30101668928e-06,181.553744958,0.905702452808,,,,,x,1,0.883611257308,2018_Nov_06_1614,60.0016742293,chinese_cond1,001,1001,
images/gorilla.jpg,gorilla,z,sounds/animalfarm_chinese.wav,,,,,,,,,0,0,0,1,0,40,40,80,182.739489772,9.30101668928e-06,183.487575286,0.748096098097,,,,,z,1,0.73377157154,2018_Nov_06_1614,60.0016742293,chinese_cond1,001,1001,
images/pouch01b.jpg,pouch,z,sounds/animalfarm_chinese.wav,,,,,,,,,0,0,0,1,0,41,41,25,184.676044977,9.30101668928e-06,185.738185385,1.06215067068,,,,,x,0,1.05053755061,2018_Nov_06_1614,60.0016742293,chinese_cond1,001,1001,
images/cigar.jpg,crocodile,x,sounds/animalfarm_chinese.wav,,,,,,,,,0,0,0,1,0,42,42,162,186.875064265,3.62418904842e-05,187.855413464,0.98036427268,,,,,x,1,0.967185053974,2018_Nov_06_1614,60.0016742293,chinese_cond1,001,1001,
images/dice05a.jpg,band aid,x,sounds/animalfarm_chinese.wav,,,,,,,,,0,0,0,1,0,43,43,126,189.000601359,9.30101668928e-06,189.989552393,0.988960977109,,,,,x,1,0.967428163283,2018_Nov_06_1614,60.0016742293,chinese_cond1,001,1001,
images/lantern03.jpg,lantern,z,sounds/animalfarm_chinese.wav,,,,,,,,,0,0,0,1,0,44,44,5,191.188250636,9.3010130513e-06,192.323224733,1.13498435986,,,,,z,1,1.1171905544,2018_Nov_06_1614,60.0016742293,chinese_cond1,001,1001,
images/broom02.jpg,broom,z,sounds/animalfarm_chinese.wav,,,,,,,,,0,0,0,1,0,45,45,116,193.44959122,9.62174090091e-06,194.757199868,1.30761923181,,,,,z,1,1.2839179984,2018_Nov_06_1614,60.0016742293,chinese_cond1,001,1001,
images/giraffe.jpg,lettuce,x,sounds/animalfarm_chinese.wav,,,,,,,,,0,0,0,1,0,46,46,195,195.940512627,9.62174090091e-06,196.741059719,0.800557355356,,,,,x,1,0.78378826526,2018_Nov_06_1614,60.0016742293,chinese_cond1,001,1001,
images/worldmap.jpg,scooter,x,sounds/animalfarm_chinese.wav,,,,,,,,,0,0,0,1,0,47,47,220,197.937333283,9.62174090091e-06,198.858289723,0.920966702684,,,,,x,1,0.900492280314,2018_Nov_06_1614,60.0016742293,chinese_cond1,001,1001,
images/magnifyingglass01b.jpg,magnifying glass,z,sounds/animalfarm_chinese.wav,,,,,,,,,0,0,0,1,0,48,48,64,200.040121696,8.65956826601e-06,200.958833062,0.918721309175,,,,,z,1,0.900471433211,2018_Nov_06_1614,60.0016742293,chinese_cond1,001,1001,
images/knife04.jpg,tooth brush,x,sounds/animalfarm_chinese.wav,,,,,,,,,0,0,0,1,0,49,49,233,202.129719023,8.98029247764e-06,203.042717962,0.913008561103,,,,,x,1,0.900482658577,2018_Nov_06_1614,60.0016742293,chinese_cond1,001,1001,
images/key03b.jpg,cigar,x,sounds/animalfarm_chinese.wav,,,,,,,,,0,0,0,1,0,50,50,153,204.178244988,9.30101668928e-06,205.059904956,0.881670231523,,,,,x,1,0.867143969139,2018_Nov_06_1614,60.0016742293,chinese_cond1,001,1001,
images/tulip02.jpg,sport shorts,x,sounds/animalfarm_chinese.wav,,,,,,,,,0,0,0,1,0,51,51,225,206.221647697,9.62174090091e-06,207.21047397,0.988836856654,,,,,x,1,0.967154264406,2018_Nov_06_1614,60.0016742293,chinese_cond1,001,1001,
images/paperclip04.jpg,eye drops,x,sounds/animalfarm_chinese.wav,,,,,,,,,0,0,0,1,0,52,52,174,208.41194167,9.62174090091e-06,209.327709747,0.915778018749,,,,,x,1,0.900497091188,2018_Nov_06_1614,60.0016742293,chinese_cond1,001,1001,
images/beachumbrella01.jpg,beach umbrella,z,sounds/animalfarm_chinese.wav,,,,,,,,,0,0,0,1,0,53,53,92,210.524307243,9.30101668928e-06,211.895031943,1.37073464234,,,,,z,1,1.35053123233,2018_Nov_06_1614,60.0016742293,chinese_cond1,001,1001,
images/treadmill.jpg,lily,x,sounds/animalfarm_chinese.wav,,,,,,,,,0,0,0,1,0,54,54,199,213.094664136,9.30101668928e-06,214.545557819,1.45090587083,,,,,x,1,1.43377532402,2018_Nov_06_1614,60.0016742293,chinese_cond1,001,1001,
images/cheetah.jpg,cheetah,z,sounds/animalfarm_chinese.wav,,,,,,,,,0,0,0,1,0,55,55,82,215.731973268,9.62174090091e-06,216.946358155,1.21439547086,,,,,z,1,1.20056101162,2018_Nov_06_1614,60.0016742293,chinese_cond1,001,1001,
images/eyedrops.jpg,bicycle,x,sounds/animalfarm_chinese.wav,,,,,,,,,0,0,0,1,0,56,56,131,218.080830959,9.3010130513e-06,219.046910796,0.966090099901,,,,,x,1,0.950494862151,2018_Nov_06_1614,60.0016742293,chinese_cond1,001,1001,
images/cookingpot.jpg,grasshopper,x,sounds/animalfarm_chinese.wav,,,,,,,,,0,0,0,1,0,57,57,183,220.228261682,8.65956826601e-06,221.164132461,0.935880721208,,,,,x,1,0.917146230247,2018_Nov_06_1614,60.0016742293,chinese_cond1,001,1001,
images/scooter.jpg,pen,x,sounds/animalfarm_chinese.wav,,,,,,,,,0,0,0,1,0,58,58,212,222.3671576,9.30101668928e-06,223.248023775,0.880876117204,,,,,x,1,0.867154553056,2018_Nov_06_1614,60.0016742293,chinese_cond1,001,1001,
images/hat05.jpg,hat,z,sounds/animalfarm_chinese.wav,,,,,,,,,0,0,0,1,0,59,59,15,224.440455057,1.02631893242e-05,225.165178023,0.724733870673,,,,,z,1,0.700426467611,2018_Nov_06_1614,60.0016742293,chinese_cond1,001,1001,
images/flashlight05.jpg,flash light,z,sounds/animalfarm_chinese.wav,,,,,,,,,0,0,0,1,0,60,60,8,226.346200808,9.94246511254e-06,227.149036912,0.802846367424,,,,,z,1,0.78379500048,2018_Nov_06_1614,60.0016742293,chinese_cond1,001,1001,
images/cola.jpg,comb,x,sounds/animalfarm_chinese.wav,,,,,,,,,0,0,0,1,0,61,61,157,228.343557074,9.30101668928e-06,229.299606567,0.956059114691,,,,,x,1,0.933837384247,2018_Nov_06_1614,60.0016742293,chinese_cond1,001,1001,
images/diploma01.jpg,glasses,x,sounds/animalfarm_chinese.wav,,,,,,,,,0,0,0,1,0,62,62,179,230.541778399,8.98029247764e-06,231.53354251,0.991774053309,,,,,x,1,0.967195637888,2018_Nov_06_1614,60.0016742293,chinese_cond1,001,1001,
images/elbow.jpg,elbow,z,sounds/animalfarm_chinese.wav,,,,,,,,,0,0,0,1,0,63,63,105,232.744058174,9.30101668928e-06,233.700748154,0.956700243336,,,,,z,1,0.933727054955,2018_Nov_06_1614,60.0016742293,chinese_cond1,001,1001,
images/bowl02b (1).jpg,bowl,z,sounds/animalfarm_chinese.wav,,,,,,,,,0,0,0,1,0,64,64,24,234.887420825,9.62174090091e-06,235.667934812,0.780523608704,,,,,z,1,0.767111223151,2018_Nov_06_1614,60.0016742293,chinese_cond1,001,1001,
images/fryingpan01.jpg,frying pan,z,sounds/animalfarm_chinese.wav,,,,,,,,,0,0,0,1,0,65,65,45,236.844908768,9.62174090091e-06,237.968365962,1.12346713647,,,,,z,1,1.10034801835,2018_Nov_06_1614,60.0016742293,chinese_cond1,001,1001,
images/headphones02b.jpg,headphones,z,sounds/animalfarm_chinese.wav,,,,,,,,,0,0,0,1,0,66,66,101,239.141205777,9.30101668928e-06,240.402515251,1.26131941645,,,,,z,1,1.25058059186,2018_Nov_06_1614,60.0016742293,chinese_cond1,001,1001,
images/axe01.jpg,axe,z,sounds/animalfarm_chinese.wav,,,,,,,,,0,0,0,1,0,67,67,104,241.57812741,8.98028883967e-06,242.369694532,0.791577064207,,,,,z,1,0.767115071849,2018_Nov_06_1614,60.0016742293,chinese_cond1,001,1001,
images/electricguitar02.jpg,electric guitar,z,sounds/animalfarm_chinese.wav,,,,,,,,,0,0,0,1,0,68,68,100,243.535668915,9.94246511254e-06,245.187184868,1.65152653724,,,,,z,1,1.63408424604,2018_Nov_06_1614,60.0016742293,chinese_cond1,001,1001,
images/bull.jpg,button,x,sounds/animalfarm_chinese.wav,,,,,,,,,0,0,0,1,0,69,69,141,246.385336596,9.30101668928e-06,247.504371317,1.11904434308,,,,,x,1,1.10052986925,2018_Nov_06_1614,60.0016742293,chinese_cond1,001,1001,
images/bandaid01.jpg,door handle,x,sounds/animalfarm_chinese.wav,,,,,,,,,0,0,0,1,0,70,70,170,248.64788086,9.94246511254e-06,249.871698901,1.22387416816,,,,,x,1,1.20056197379,2018_Nov_06_1614,60.0016742293,chinese_cond1,001,1001,
images/lion.jpg,lion,z,sounds/animalfarm_chinese.wav,,,,,,,,,0,0,0,1,0,71,71,44,251.072865762,9.30101668928e-06,251.755497782,0.682642283893,,,,,z,1,0.667087136728,2018_Nov_06_1614,60.0016742293,chinese_cond1,001,1001,
images/puma.jpg,puma,z,sounds/animalfarm_chinese.wav,,,,,,,,,0,0,0,1,0,72,72,4,252.853657817,8.98028883967e-06,254.289492514,1.43584528113,,,,,z,1,1.4172865473,2018_Nov_06_1614,60.0016742293,chinese_cond1,001,1001,
images/skateboard.jpg,key,x,sounds/animalfarm_chinese.wav,,,,,,,,,0,0,0,1,0,73,73,189,255.405831865,9.3010130513e-06,256.189988643,0.784167041111,,,,,x,1,0.767113468224,2018_Nov_06_1614,60.0016742293,chinese_cond1,001,1001,
images/candycane01a.jpg,lip,x,sounds/animalfarm_chinese.wav,,,,,,,,,0,0,0,1,0,74,74,200,257.351952363,9.30101668928e-06,258.25719618,0.905253758974,,,,,x,1,0.883810427335,2018_Nov_06_1614,60.0016742293,chinese_cond1,001,1001,
images/flipflop01b.jpg,flip flop,z,sounds/animalfarm_chinese.wav,,,,,,,,,0,0,0,1,0,75,75,27,259.435089654,3.62418904842e-05,260.307732768,0.872657867909,,,,,z,1,0.850464681957,2018_Nov_06_1614,60.0016742293,chinese_cond1,001,1001,
images/camera01a.jpg,bull,x,sounds/animalfarm_chinese.wav,,,,,,,,,0,0,0,1,0,76,76,138,261.497091829,9.30101668928e-06,262.308261002,0.811179115437,,,,,x,1,0.800451836938,2018_Nov_06_1614,60.0016742293,chinese_cond1,001,1001,
images/bench02.jpg,electric toothbrush,x,sounds/animalfarm_chinese.wav,,,,,,,,,0,0,0,1,0,77,77,172,263.489335423,8.98029247764e-06,264.942286235,1.45296011243,,,,,x,1,1.43395974071,2018_Nov_06_1614,60.0016742293,chinese_cond1,001,1001,
images/handfan01b.jpg,handfan,z,sounds/animalfarm_chinese.wav,,,,,,,,,0,0,0,1,0,78,78,69,266.080081105,8.98029247764e-06,267.54296925,1.46289840821,,,,,z,1,1.45063068905,2018_Nov_06_1614,60.0016742293,chinese_cond1,001,1001,
images/bracelet02a.jpg,chess knight,x,sounds/animalfarm_chinese.wav,,,,,,,,,0,0,0,1,0,79,79,152,268.736827436,9.62174090091e-06,269.726872142,0.990055289727,,,,,x,1,0.967161961795,2018_Nov_06_1614,60.0016742293,chinese_cond1,001,1001,
images/swan.jpg,swan,z,sounds/animalfarm_chinese.wav,,,,,,,,,0,0,0,1,0,80,80,54,270.860871236,9.30101668928e-06,272.26086944,1.40000814641,,,,,z,1,1.3839391983,2018_Nov_06_1614,60.0016742293,chinese_cond1,001,1001,
images/highheelshoe02a.jpg,high heel shoe,z,sounds/animalfarm_chinese.wav,,,,,,,,,0,0,0,1,0,81,81,75,273.452704174,9.30101668928e-06,274.278071829,0.825377917914,,,,,z,1,0.817133689914,2018_Nov_06_1614,60.0016742293,chinese_cond1,001,1001,
images/acousticguitar02.jpg,acoustic guitar,z,sounds/animalfarm_chinese.wav,,,,,,,,,0,0,0,1,0,82,82,97,275.456125344,9.62174090091e-06,276.278586592,0.822471510826,,,,,z,1,0.800450874762,2018_Nov_06_1614,60.0016742293,chinese_cond1,001,1001,
images/pictureframe04.jpg,picture frame,z,sounds/animalfarm_chinese.wav,,,,,,,,,0,0,0,1,0,83,83,41,277.488483578,9.30101668928e-06,278.412483054,0.924009738486,,,,,z,1,0.900478168431,2018_Nov_06_1614,60.0016742293,chinese_cond1,001,1001,
images/blueberry02.jpg,blueberry,z,sounds/animalfarm_chinese.wav,,,,,,,,,0,0,0,1,0,84,84,46,279.610570316,9.62174090091e-06,280.396334887,0.785774833952,,,,,z,1,0.767114430397,2018_Nov_06_1614,60.0016742293,chinese_cond1,001,1001,
images/belt02a.jpg,snowman,x,sounds/animalfarm_chinese.wav,,,,,,,,,0,0,0,1,0,85,85,224,281.572159045,9.62174090091e-06,282.480229408,0.908080947062,,,,,x,1,0.883808502986,2018_Nov_06_1614,60.0016742293,chinese_cond1,001,1001,
images/diaper01a.jpg,camera,x,sounds/animalfarm_chinese.wav,,,,,,,,,0,0,0,1,0,86,86,143,283.660027024,9.62174090091e-06,284.797493152,1.13747671138,,,,,x,1,1.11720177977,2018_Nov_06_1614,60.0016742293,chinese_cond1,001,1001,
images/mushroom01.jpg,shower head,x,sounds/animalfarm_chinese.wav,,,,,,,,,0,0,0,1,0,87,87,222,285.958000782,9.3010130513e-06,286.998077897,1.04008769896,,,,,x,1,1.01717673117,2018_Nov_06_1614,60.0016742293,chinese_cond1,001,1001,
images/corn01.jpg,corn,z,sounds/animalfarm_chinese.wav,,,,,,,,,0,0,0,1,0,88,88,22,288.189552778,9.62174090091e-06,289.448705379,1.25916222222,,,,,z,1,1.25057161157,2018_Nov_06_1614,60.0016742293,chinese_cond1,001,1001,
images/bowlingball.jpg,bowling ball,z,sounds/animalfarm_chinese.wav,,,,,,,,,0,0,0,1,0,89,89,20,290.617241069,9.94246511254e-06,291.715975842,1.09874535711,,,,,z,1,1.08386886337,2018_Nov_06_1614,60.0016742293,chinese_cond1,001,1001,
images/bottleofredwine02.jpg,pipe,x,sounds/animalfarm_chinese.wav,,,,,,,,,0,0,0,1,0,90,90,213,292.883903437,9.30101668928e-06,293.749854952,0.865961457232,,,,,x,1,0.850479114571,2018_Nov_06_1614,60.0016742293,chinese_cond1,001,1001,
images/comb02a.jpg,diploma,x,sounds/animalfarm_chinese.wav,,,,,,,,,0,0,0,1,0,91,91,166,294.927365481,9.30101668928e-06,295.817056075,0.889700536158,,,,,x,1,0.867140120445,2018_Nov_06_1614,60.0016742293,chinese_cond1,001,1001,
images/globe.jpg,cloud,x,sounds/animalfarm_chinese.wav,,,,,,,,,0,0,0,1,0,92,92,154,297.04541237,8.98028883967e-06,297.984292188,0.938889439465,,,,,x,1,0.917155851992,2018_Nov_06_1614,60.0016742293,chinese_cond1,001,1001,
images/leaf01a.jpg,leaf,z,sounds/animalfarm_chinese.wav,,,,,,,,,0,0,0,1,0,93,93,68,299.156468103,8.65956826601e-06,300.184860576,1.0284020951,,,,,z,1,1.0171744861,2018_Nov_06_1614,60.0016742293,chinese_cond1,001,1001,
images/gps.jpg,gps,z,sounds/animalfarm_chinese.wav,,,,,,,,,0,0,0,1,0,94,94,21,301.373151303,9.62174090091e-06,302.385444039,1.01230299887,,,,,z,1,1.00050738645,2018_Nov_06_1614,60.0016742293,chinese_cond1,001,1001,
images/cake.jpg,cake,z,sounds/animalfarm_chinese.wav,,,,,,,,,0,0,0,1,0,95,95,23,303.584087758,8.98028883967e-06,305.102944285,1.51886646916,,,,,z,1,1.50076669236,2018_Nov_06_1614,60.0016742293,chinese_cond1,001,1001,
images/panda.jpg,panda,z,sounds/animalfarm_chinese.wav,,,,,,,,,0,0,0,1,0,96,96,83,306.301153101,9.62174090091e-06,307.386757406,1.08561392638,,,,,z,1,1.06719214199,2018_Nov_06_1614,60.0016742293,chinese_cond1,001,1001,
images/feather03b.jpg,feather,z,sounds/animalfarm_chinese.wav,,,,,,,,,0,0,0,1,0,97,97,114,308.527556184,9.30101668928e-06,309.553988709,1.02644278801,,,,,z,1,1.01718635291,2018_Nov_06_1614,60.0016742293,chinese_cond1,001,1001,
images/charcoalbarbecue.jpg,charcoal barbecue,z,sounds/animalfarm_chinese.wav,,,,,,,,,0,0,0,1,0,98,98,77,310.73275295,9.30101668928e-06,311.904641175,1.17189784662,,,,,z,1,1.15058184268,2018_Nov_06_1614,60.0016742293,chinese_cond1,001,1001,
images/computerkeyboard01a.jpg,computer keyboard,z,sounds/animalfarm_chinese.wav,,,,,,,,,0,0,0,1,0,99,99,61,313.096253326,9.94246511254e-06,313.87178678,0.775544357988,,,,,z,1,0.767114751121,2018_Nov_06_1614,60.0016742293,chinese_cond1,001,1001,
images/floorlamp.jpg,floor lamp,z,sounds/animalfarm_chinese.wav,,,,,,,,,0,0,0,1,0,100,100,26,315.030151328,9.62174090091e-06,317.856158828,2.82601744293,,,,,z,1,2.81764364216,2018_Nov_06_1614,60.0016742293,chinese_cond1,001,1001,
images/atm.jpg,atm,z,sounds/animalfarm_chinese.wav,,,,,,,,,0,0,0,1,0,101,101,96,319.075780828,1.02631893242e-05,320.04007936,0.964309436458,,,,,z,1,0.950503521719,2018_Nov_06_1614,60.0016742293,chinese_cond1,001,1001,
images/screwdriver02b.jpg,cola,x,sounds/animalfarm_chinese.wav,,,,,,,,,0,0,0,1,0,102,102,158,321.214549739,8.98029247764e-06,322.023936645,0.809396848366,,,,,x,1,0.800442215193,2018_Nov_06_1614,60.0016742293,chinese_cond1,001,1001,
images/banjo.jpg,knife,x,sounds/animalfarm_chinese.wav,,,,,,,,,0,0,0,1,0,103,103,191,323.201001367,9.30101668928e-06,324.12449121,0.923499786237,,,,,x,1,0.900492601042,2018_Nov_06_1614,60.0016742293,chinese_cond1,001,1001,
images/wallet01.jpg,lamp,x,sounds/animalfarm_chinese.wav,,,,,,,,,0,0,0,1,0,104,104,193,325.304121408,9.30101668928e-06,327.025241674,1.72113052885,,,,,x,1,1.70069331055,2018_Nov_06_1614,60.0016742293,chinese_cond1,001,1001,
images/nailpolish02b.jpg,nail polish,z,sounds/animalfarm_chinese.wav,,,,,,,,,0,0,0,1,0,105,105,94,328.156428012,9.62174090091e-06,329.309169294,1.15275122445,,,,,z,1,1.13386118202,2018_Nov_06_1614,60.0016742293,chinese_cond1,001,1001,
images/snowman.jpg,globe,x,sounds/animalfarm_chinese.wav,,,,,,,,,0,0,0,1,0,106,106,180,330.457639806,9.94246511254e-06,332.009871264,1.55224172121,,,,,x,1,1.53397356395,2018_Nov_06_1614,60.0016742293,chinese_cond1,001,1001,
images/bicycle.jpg,hand bag,x,sounds/animalfarm_chinese.wav,,,,,,,,,0,0,0,1,0,107,107,186,333.215743477,9.30101668928e-06,334.243834469,1.02810157607,,,,,x,1,1.01721425595,2018_Nov_06_1614,60.0016742293,chinese_cond1,001,1001,
images/microphone01.jpg,diaper,x,sounds/animalfarm_chinese.wav,,,,,,,,,0,0,0,1,0,108,108,164,335.406726046,9.62173726293e-06,336.677774004,1.27105790075,,,,,x,1,1.25057481881,2018_Nov_06_1614,60.0016742293,chinese_cond1,001,1001,
images/cactus.jpg,cactus,z,sounds/animalfarm_chinese.wav,,,,,,,,,0,0,0,1,0,109,109,70,337.861371887,9.94246511254e-06,338.728332402,0.86697077781,,,,,z,1,0.85049033993,2018_Nov_06_1614,60.0016742293,chinese_cond1,001,1001,
images/tent.jpg,tent,z,sounds/animalfarm_chinese.wav,,,,,,,,,0,0,0,1,0,110,110,11,339.917975945,9.3010130513e-06,340.762399457,0.844433133552,,,,,z,1,0.834024334665,2018_Nov_06_1614,60.0016742293,chinese_cond1,001,1001,
images/thumbtack02a.jpg,thumb tack,z,sounds/animalfarm_chinese.wav,,,,,,,,,0,0,0,1,0,111,111,60,341.963353035,9.62174090091e-06,343.296178662,1.33283621007,,,,,x,0,1.31725572565,2018_Nov_06_1614,60.0016742293,chinese_cond1,001,1001,
images/honeycomb.jpg,honey comb,z,sounds/animalfarm_chinese.wav,,,,,,,,,0,0,0,1,0,112,112,59,344.432300632,9.94246511254e-06,345.36339133,0.931100640519,,,,,z,1,0.917149437497,2018_Nov_06_1614,60.0016742293,chinese_cond1,001,1001,
images/showerhead01.jpg,skateboard,x,sounds/animalfarm_chinese.wav,,,,,,,,,0,0,0,1,0,113,113,223,346.59030244,9.94246511254e-06,347.5472846,0.956992423518,,,,,z,0,0.933811726271,2018_Nov_06_1614,60.0016742293,chinese_cond1,001,1001,
images/hairdryer03a.jpg,hairdryer,z,sounds/animalfarm_chinese.wav,,,,,,,,,0,0,0,1,0,114,114,119,348.719541338,8.98029247764e-06,349.581167239,0.861636164147,,,,,z,1,0.850465002684,2018_Nov_06_1614,60.0016742293,chinese_cond1,001,1001,
images/cloud.jpg,ceiling fan,x,sounds/animalfarm_chinese.wav,,,,,,,,,0,0,0,1,0,115,115,149,350.785507991,9.62174090091e-06,351.681712824,0.896215416658,,,,,x,1,0.883818766179,2018_Nov_06_1614,60.0016742293,chinese_cond1,001,1001,
images/gluestick.jpg,squirrel,x,sounds/animalfarm_chinese.wav,,,,,,,,,0,0,0,1,0,116,116,226,352.867872976,9.3010130513e-06,353.848953427,0.981090714089,,,,,x,1,0.967178318755,2018_Nov_06_1614,60.0016742293,chinese_cond1,001,1001,
images/ruler02b.jpg,watermelon,x,sounds/animalfarm_chinese.wav,,,,,,,,,0,0,0,1,0,117,117,238,355.048639181,9.3010130513e-06,355.982858869,0.934229951257,,,,,x,1,0.917170926052,2018_Nov_06_1614,60.0016742293,chinese_cond1,001,1001,
images/sportshorts02.jpg,tape,x,sounds/animalfarm_chinese.wav,,,,,,,,,0,0,0,1,0,118,118,230,357.224938012,8.98029247764e-06,358.433490841,1.20856309248,,,,,x,1,1.18389070472,2018_Nov_06_1614,60.0016742293,chinese_cond1,001,1001,
images/lip.jpg,boxing glove,x,sounds/animalfarm_chinese.wav,,,,,,,,,0,0,0,1,0,119,119,136,359.599552781,9.62174090091e-06,360.517360987,0.917818469188,,,,,x,1,0.900477526982,2018_Nov_06_1614,60.0016742293,chinese_cond1,001,1001,
images/envelope02a.jpg,grand piano,x,sounds/animalfarm_chinese.wav,,,,,,,,,0,0,0,1,0,120,120,182,361.710038907,9.94246511254e-06,362.767944466,1.05791582196,,,,,x,1,1.03383805777,2018_Nov_06_1614,60.0016742293,chinese_cond1,001,1001,
images/volleyball.jpg,volley ball,z,sounds/animalfarm_chinese.wav,,,,,,,,,0,0,0,1,0,121,121,2,363.899953463,9.62174090091e-06,364.71845344,0.818509919533,,,,,z,1,0.800448950413,2018_Nov_06_1614,60.0016742293,chinese_cond1,001,1001,
images/seagull.jpg,seagull,z,sounds/animalfarm_chinese.wav,,,,,,,,,0,0,0,1,0,122,122,50,365.906505868,9.30101668928e-06,366.869039773,0.9625441678,,,,,z,1,0.950509615486,2018_Nov_06_1614,60.0016742293,chinese_cond1,001,1001,
images/dreamcatcher.jpg,dream catcher,z,sounds/animalfarm_chinese.wav,,,,,,,,,0,0,0,1,0,123,123,48,368.086186099,9.62174090091e-06,369.019877554,0.933718716111,,,,,z,1,0.917357587816,2018_Nov_06_1614,60.0016742293,chinese_cond1,001,1001,
images/ceilingfan02.jpg,paper clip,x,sounds/animalfarm_chinese.wav,,,,,,,,,0,0,0,1,0,124,124,208,370.19242583,9.30101668928e-06,371.203495322,1.01108007566,,,,,x,1,1.00050225485,2018_Nov_06_1614,60.0016742293,chinese_cond1,001,1001,
images/pineapple01a.jpg,pineapple,z,sounds/animalfarm_chinese.wav,,,,,,,,,0,0,0,1,0,125,125,51,372.37692078,9.30101668928e-06,373.070789711,0.693879193917,,,,,z,1,0.683901449,2018_Nov_06_1614,60.0016742293,chinese_cond1,001,1001,
images/coffeepot03b.jpg,coffee pot,z,sounds/animalfarm_chinese.wav,,,,,,,,,0,0,0,1,0,126,126,107,374.224322862,9.62174090091e-06,374.904469587,0.680156667593,,,,,z,1,0.667093551223,2018_Nov_06_1614,60.0016742293,chinese_cond1,001,1001,
images/puzzle.jpg,puzzle,z,sounds/animalfarm_chinese.wav,,,,,,,,,0,0,0,1,0,127,127,57,376.047931663,9.94246511254e-06,376.921658827,0.87373806864,,,,,z,1,0.850463719784,2018_Nov_06_1614,60.0016742293,chinese_cond1,001,1001,
images/chameleon.jpg,50 dollar bill,x,sounds/animalfarm_chinese.wav,,,,,,,,,0,0,0,1,0,128,128,120,378.103616203,9.62174090091e-06,379.072226878,0.968620617656,,,,,x,1,0.95049005128,2018_Nov_06_1614,60.0016742293,chinese_cond1,001,1001,
images/mitten01.jpg,mitten,z,sounds/animalfarm_chinese.wav,,,,,,,,,0,0,0,1,0,129,129,102,380.217938196,9.62174090091e-06,381.222791081,1.00486282766,,,,,x,0,0.983811100861,2018_Nov_06_1614,60.0016742293,chinese_cond1,001,1001,
images/50dollarbill.jpg,cherry,x,sounds/animalfarm_chinese.wav,,,,,,,,,0,0,0,1,0,130,130,151,382.425609353,9.62174090091e-06,383.189974852,0.764375441599,,,,,x,1,0.750433218869,2018_Nov_06_1614,60.0016742293,chinese_cond1,001,1001,
images/lightswitch02a.jpg,fork,x,sounds/animalfarm_chinese.wav,,,,,,,,,0,0,0,1,0,131,131,177,384.39330019,9.62174090091e-06,385.190496671,0.79720642386,,,,,x,1,0.783771266855,2018_Nov_06_1614,60.0016742293,chinese_cond1,001,1001,
images/tie01.jpg,bench,x,sounds/animalfarm_chinese.wav,,,,,,,,,0,0,0,1,0,132,132,130,386.355408493,9.30101668928e-06,387.274372911,0.918974681674,,,,,x,1,0.900471433211,2018_Nov_06_1614,60.0016742293,chinese_cond1,001,1001,
images/apricot.jpg,apricot,z,sounds/animalfarm_chinese.wav,,,,,,,,,0,0,0,1,0,133,133,32,388.468029362,9.62174090091e-06,389.641664253,1.17364483398,,,,,z,1,1.15053886558,2018_Nov_06_1614,60.0016742293,chinese_cond1,001,1001,
images/hand01a.jpg,cupcake,x,sounds/animalfarm_chinese.wav,,,,,,,,,0,0,0,1,0,134,134,163,390.79069026,9.30101668928e-06,391.55883999,0.768159672145,,,,,x,1,0.750435463939,2018_Nov_06_1614,60.0016742293,chinese_cond1,001,1001,
images/scissors04a.jpg,leek,x,sounds/animalfarm_chinese.wav,,,,,,,,,0,0,0,1,0,135,135,194,392.723519928,8.98029247764e-06,393.459334195,0.735824209518,,,,,x,1,0.717094529431,2018_Nov_06_1614,60.0016742293,chinese_cond1,001,1001,
images/toothbrush03a.jpg,parrot,x,sounds/animalfarm_chinese.wav,,,,,,,,,0,0,0,1,0,136,136,210,394.613524511,8.65956462803e-06,395.426524701,0.813009811929,,,,,x,1,0.800460175775,2018_Nov_06_1614,60.0016742293,chinese_cond1,001,1001,
images/blackolive.jpg,tank,x,sounds/animalfarm_chinese.wav,,,,,,,,,0,0,0,1,0,137,137,229,396.608662645,9.30101668928e-06,397.593751193,0.985098810463,,,,,x,1,0.967161320346,2018_Nov_06_1614,60.0016742293,chinese_cond1,001,1001,
images/notebook02b.jpg,notebook,z,sounds/animalfarm_chinese.wav,,,,,,,,,0,0,0,1,0,138,138,7,398.795263794,9.62174090091e-06,399.577606554,0.782352701579,,,,,z,1,0.767106412281,2018_Nov_06_1614,60.0016742293,chinese_cond1,001,1001,
images/bus.jpg,microphone,x,sounds/animalfarm_chinese.wav,,,,,,,,,0,0,0,1,0,139,139,203,400.761782703,9.30101668928e-06,401.694843613,0.933071493702,,,,,x,1,0.917096197198,2018_Nov_06_1614,60.0016742293,chinese_cond1,001,1001,
images/coin01b.jpg,arrow,x,sounds/animalfarm_chinese.wav,,,,,,,,,0,0,0,1,0,140,140,124,402.935427217,9.62174090091e-06,403.645338475,0.709921521877,,,,,x,1,0.700415562973,2018_Nov_06_1614,60.0016742293,chinese_cond1,001,1001,
images/highlighter03b.jpg,coin,x,sounds/animalfarm_chinese.wav,,,,,,,,,0,0,0,1,0,141,141,156,404.812466184,9.94246511254e-06,405.595849053,0.783393453177,,,,,x,1,0.767106412281,2018_Nov_06_1614,60.0016742293,chinese_cond1,001,1001,
images/sunglasses03a.jpg,sun glasses,z,sounds/animalfarm_chinese.wav,,,,,,,,,0,0,0,1,0,142,142,17,406.771200463,9.62174090091e-06,407.813102822,1.04191262241,,,,,z,1,1.01717865552,2018_Nov_06_1614,60.0016742293,chinese_cond1,001,1001,
images/doll.jpg,carrot,x,sounds/animalfarm_chinese.wav,,,,,,,,,0,0,0,1,0,143,143,146,408.982409855,8.98029247764e-06,409.746935716,0.764535803941,,,,,x,1,0.750430973796,2018_Nov_06_1614,60.0016742293,chinese_cond1,001,1001,
images/pingpongpaddle01c (1).jpg,ping pong paddle,z,sounds/animalfarm_chinese.wav,,,,,,,,,0,0,0,1,0,144,144,10,410.938640557,9.62173726293e-06,411.730798774,0.792168159798,,,,,z,1,0.783789227433,2018_Nov_06_1614,60.0016742293,chinese_cond1,001,1001,
images/mirror02.jpg,8 ball,x,sounds/animalfarm_chinese.wav,,,,,,,,,0,0,0,1,0,145,145,121,412.903175784,9.62174090091e-06,413.69798447,0.794818628587,,,,,x,1,0.783786982363,2018_Nov_06_1614,60.0016742293,chinese_cond1,001,1001,
images/antelope.jpg,antelope,z,sounds/animalfarm_chinese.wav,,,,,,,,,0,0,0,1,0,146,146,12,414.878799104,9.30101668928e-06,415.548579045,0.669790525088,,,,,x,0,0.650223753575,2018_Nov_06_1614,60.0016742293,chinese_cond1,001,1001,
images/binder03b.jpg,dj mixer,x,sounds/animalfarm_chinese.wav,,,,,,,,,0,0,0,1,0,147,147,167,416.750916551,9.30101668928e-06,417.79905893,1.04815264186,,,,,x,1,1.0338553769,2018_Nov_06_1614,60.0016742293,chinese_cond1,001,1001,
images/table02.jpg,table,z,sounds/animalfarm_chinese.wav,,,,,,,,,0,0,0,1,0,148,148,49,418.955382706,9.30101668928e-06,419.682882507,0.72751070499,,,,,z,1,0.717092284358,2018_Nov_06_1614,60.0016742293,chinese_cond1,001,1001,
images/bowtie.jpg,bowtie,z,sounds/animalfarm_chinese.wav,,,,,,,,,0,0,0,1,0,149,149,89,420.882163506,9.62174090091e-06,421.88348425,1.00133132816,,,,,z,1,0.983852474343,2018_Nov_06_1614,60.0016742293,chinese_cond1,001,1001,
images/calculator02b.jpg,dice,x,sounds/animalfarm_chinese.wav,,,,,,,,,0,0,0,1,0,150,150,165,423.072111738,9.30101668928e-06,424.050693423,0.978591627354,,,,,x,1,0.967149132808,2018_Nov_06_1614,60.0016742293,chinese_cond1,001,1001,
images/straw.jpg,straw,z,sounds/animalfarm_chinese.wav,,,,,,,,,0,0,0,1,0,151,151,109,425.25437701,9.30101668928e-06,426.251281375,0.996914949268,,,,,z,1,0.983810780137,2018_Nov_06_1614,60.0016742293,chinese_cond1,001,1001,
images/lock02a.jpg,lock,z,sounds/animalfarm_chinese.wav,,,,,,,,,0,0,0,1,0,152,152,65,427.450561092,8.98028883967e-06,428.401835315,0.95128448632,,,,,z,1,0.933819744387,2018_Nov_06_1614,60.0016742293,chinese_cond1,001,1001,
images/mattress.jpg,cat,x,sounds/animalfarm_chinese.wav,,,,,,,,,0,0,0,1,0,153,153,147,429.636647157,9.3010130513e-06,430.369012351,0.732375456992,,,,,x,1,0.717086511315,2018_Nov_06_1614,60.0016742293,chinese_cond1,001,1001,
images/clothespin02a.jpg,clothes pin,z,sounds/animalfarm_chinese.wav,,,,,,,,,0,0,0,1,0,154,154,79,431.566650919,9.30101668928e-06,432.436447602,0.869807266914,,,,,z,1,0.85068245402,2018_Nov_06_1614,60.0016742293,chinese_cond1,001,1001,
images/pen03c.jpg,pepper,x,sounds/animalfarm_chinese.wav,,,,,,,,,0,0,0,1,0,155,155,211,433.602651623,9.62174090091e-06,434.470095791,0.86745410991,,,,,x,1,0.850465323409,2018_Nov_06_1614,60.0016742293,chinese_cond1,001,1001,
images/parkingmeter.jpg,ear,x,sounds/animalfarm_chinese.wav,,,,,,,,,0,0,0,1,0,156,156,171,435.642208844,9.62174090091e-06,436.603984234,0.961785974647,,,,,x,1,0.950485881862,2018_Nov_06_1614,60.0016742293,chinese_cond1,001,1001,
images/cat.jpg,black olive,x,sounds/animalfarm_chinese.wav,,,,,,,,,0,0,0,1,0,157,157,133,438.042196143,9.62174090091e-06,439.037968671,0.995783111855,,,,,x,1,0.98383996608,2018_Nov_06_1614,60.0016742293,chinese_cond1,001,1001,
images/grasshopper.jpg,cauliflower,x,sounds/animalfarm_chinese.wav,,,,,,,,,0,0,0,1,0,158,158,148,440.198032739,9.62173726293e-06,441.121843307,0.923820831646,,,,,x,1,0.900479772052,2018_Nov_06_1614,60.0016742293,chinese_cond1,001,1001,
images/sock03.jpg,sock,z,sounds/animalfarm_chinese.wav,,,,,,,,,0,0,0,1,0,159,159,90,442.298633488,9.62174090091e-06,443.139037037,0.840413811817,,,,,z,1,0.817119898755,2018_Nov_06_1614,60.0016742293,chinese_cond1,001,1001,
images/medal01.jpg,medal,z,sounds/animalfarm_chinese.wav,,,,,,,,,0,0,0,1,0,160,160,115,444.311416612,9.30101668928e-06,445.056213415,0.744806425017,,,,,x,0,0.733760666903,2018_Nov_06_1614,60.0016742293,chinese_cond1,001,1001,
images/cauliflower01.jpg,glue stick,x,sounds/animalfarm_chinese.wav,,,,,,,,,0,0,0,1,0,161,161,181,446.245686654,7.05594284227e-05,447.106735892,0.861103119722,,,,,x,1,0.850430685143,2018_Nov_06_1614,60.0016742293,chinese_cond1,001,1001,
images/nailclipper03a.jpg,aquarium,x,sounds/animalfarm_chinese.wav,,,,,,,,,0,0,0,1,0,162,162,123,448.274933538,9.3010130513e-06,449.640739283,1.36581600859,,,,,x,1,1.35058864205,2018_Nov_06_1614,60.0016742293,chinese_cond1,001,1001,
images/donut.jpg,rhinoceros,x,sounds/animalfarm_chinese.wav,,,,,,,,,0,0,0,1,0,163,163,216,450.875478,3.23931926687e-05,452.208080402,1.33261843801,,,,,x,1,1.31724834899,2018_Nov_06_1614,60.0016742293,chinese_cond1,001,1001,
images/triangleruler02.jpg,bottle of red wine,x,sounds/animalfarm_chinese.wav,,,,,,,,,0,0,0,1,0,164,164,134,453.349562002,9.30101668928e-06,454.35864717,1.00909511058,,,,,x,1,1.00050449993,2018_Nov_06_1614,60.0016742293,chinese_cond1,001,1001,
images/desktopcomputer.jpg,desktop computer,z,sounds/animalfarm_chinese.wav,,,,,,,,,0,0,0,1,0,165,165,16,455.566655089,9.94246511254e-06,456.442526297,0.875881471704,,,,,z,1,0.867104520003,2018_Nov_06_1614,60.0016742293,chinese_cond1,001,1001,
images/teapot.jpg,light switch,x,sounds/animalfarm_chinese.wav,,,,,,,,,0,0,0,1,0,166,166,197,457.622567023,9.30101668928e-06,458.559744113,0.937187353571,,,,,x,1,0.917145588803,2018_Nov_06_1614,60.0016742293,chinese_cond1,001,1001,
images/croissant02b.jpg,croissant,z,sounds/animalfarm_chinese.wav,,,,,,,,,0,0,0,1,0,167,167,39,459.745558204,9.62174090091e-06,460.543603323,0.798054740648,,,,,z,1,0.783777681347,2018_Nov_06_1614,60.0016742293,chinese_cond1,001,1001,
images/ladybug03.jpg,giraffe,x,sounds/animalfarm_chinese.wav,,,,,,,,,0,0,0,1,0,168,168,178,461.710692223,9.62174090091e-06,462.560795449,0.850113488428,,,,,x,1,0.833786356947,2018_Nov_06_1614,60.0016742293,chinese_cond1,001,1001,
images/aquarium.jpg,computer mouse,x,sounds/animalfarm_chinese.wav,,,,,,,,,0,0,0,1,0,169,169,159,463.776891081,9.30101668928e-06,464.828069439,1.05118894244,,,,,x,1,1.03384928313,2018_Nov_06_1614,60.0016742293,chinese_cond1,001,1001,
images/tape01a.jpg,tie,x,sounds/animalfarm_chinese.wav,,,,,,,,,0,0,0,1,0,170,170,232,466.065101338,8.98028883967e-06,466.828594786,0.763503711907,,,,,x,1,0.750443802783,2018_Nov_06_1614,60.0016742293,chinese_cond1,001,1001,
images/egg01b (1).jpg,egg,z,sounds/animalfarm_chinese.wav,,,,,,,,,0,0,0,1,0,171,171,19,468.0245627,9.62174090091e-06,468.779099591,0.754547475113,,,,,z,1,0.73377125082,2018_Nov_06_1614,60.0016742293,chinese_cond1,001,1001,
images/boxingglove02a.jpg,bracelet,x,sounds/animalfarm_chinese.wav,,,,,,,,,0,0,0,1,0,172,172,135,469.956369897,9.3010130513e-06,470.779617561,0.823258889926,,,,,x,1,0.800447026064,2018_Nov_06_1614,60.0016742293,chinese_cond1,001,1001,
images/kiwi03.jpg,backpack,x,sounds/animalfarm_chinese.wav,,,,,,,,,0,0,0,1,0,173,173,125,471.976195493,9.94246511254e-06,472.696800675,0.72061544501,,,,,x,1,0.700434806455,2018_Nov_06_1614,60.0016742293,chinese_cond1,001,1001,
images/lighter02b.jpg,stapler,x,sounds/animalfarm_chinese.wav,,,,,,,,,0,0,0,1,0,174,174,227,473.870901259,9.94246511254e-06,474.647303235,0.776412238982,,,,,x,1,0.767111864599,2018_Nov_06_1614,60.0016742293,chinese_cond1,001,1001,
images/tissuebox03.jpg,tissue box,z,sounds/animalfarm_chinese.wav,,,,,,,,,0,0,0,1,0,175,175,58,475.838274257,9.30101668928e-06,476.597812529,0.759548535105,,,,,z,1,0.750431615244,2018_Nov_06_1614,60.0016742293,chinese_cond1,001,1001,
images/umbrella01.jpg,umbrella,z,sounds/animalfarm_chinese.wav,,,,,,,,,0,0,0,1,0,176,176,53,477.787263638,9.62174090091e-06,478.548332729,0.761079354023,,,,,z,1,0.750446689304,2018_Nov_06_1614,60.0016742293,chinese_cond1,001,1001,
images/icecube02 (2).jpg,aloe,x,sounds/animalfarm_chinese.wav,,,,,,,,,0,0,0,1,0,177,177,122,479.735910805,9.94246511254e-06,481.032317181,1.29641663932,,,,,x,1,1.28392120564,2018_Nov_06_1614,60.0016742293,chinese_cond1,001,1001,
images/8ball.jpg,nail clipper,x,sounds/animalfarm_chinese.wav,,,,,,,,,0,0,0,1,0,178,178,206,482.184503289,8.98029247764e-06,482.982812685,0.798319338512,,,,,x,1,0.783775757001,2018_Nov_06_1614,60.0016742293,chinese_cond1,001,1001,
images/masquerademask02b.jpg,mirror,x,sounds/animalfarm_chinese.wav,,,,,,,,,0,0,0,1,0,179,179,204,484.161924592,9.30101668928e-06,485.41679648,1.25488183059,,,,,x,1,1.23389424873,2018_Nov_06_1614,60.0016742293,chinese_cond1,001,1001,
images/corkscrew02a.jpg,masquerade mask,x,sounds/animalfarm_chinese.wav,,,,,,,,,0,0,0,1,0,180,180,201,486.556083361,9.94246511254e-06,487.900773556,1.34470045758,,,,,x,1,1.33391159994,2018_Nov_06_1614,60.0016742293,chinese_cond1,001,1001,
images/barrel01.jpg,barrel,z,sounds/animalfarm_chinese.wav,,,,,,,,,0,0,0,1,0,181,181,9,489.101402882,9.30101668928e-06,489.851283492,0.749889911254,,,,,z,1,0.733762270524,2018_Nov_06_1614,60.0016742293,chinese_cond1,001,1001,
images/razor04a.jpg,razor,z,sounds/animalfarm_chinese.wav,,,,,,,,,0,0,0,1,0,182,182,36,491.025767663,9.94246511254e-06,491.818479771,0.79272205133,,,,,z,1,0.783783775118,2018_Nov_06_1614,60.0016742293,chinese_cond1,001,1001,
images/lettuce.jpg,mushroom,x,sounds/animalfarm_chinese.wav,,,,,,,,,0,0,0,1,0,183,183,205,493.001672259,9.62173726293e-06,493.668963376,0.66730106009,,,,,x,1,0.650413943313,2018_Nov_06_1614,60.0016742293,chinese_cond1,001,1001,
images/squirrel.jpg,binder,x,sounds/animalfarm_chinese.wav,,,,,,,,,0,0,0,1,0,184,184,132,494.861733344,9.62174090091e-06,495.669488082,0.807765001176,,,,,x,1,0.783778643519,2018_Nov_06_1614,60.0016742293,chinese_cond1,001,1001,
images/fireextinguisher02.jpg,fire extinguisher,x,sounds/animalfarm_chinese.wav,,,,,,,,,0,0,0,1,0,185,185,175,496.848256813,9.30101668928e-06,497.636669928,0.788422736943,,,,,z,0,0.767111223151,2018_Nov_06_1614,60.0016742293,chinese_cond1,001,1001,
images/battery03b.jpg,battery,z,sounds/animalfarm_chinese.wav,,,,,,,,,0,0,0,1,0,186,186,34,498.822398706,9.94246511254e-06,500.070647309,1.24825982804,,,,,z,1,1.23390803989,2018_Nov_06_1614,60.0016742293,chinese_cond1,001,1001,
images/crocodile.jpg,triangle ruler,x,sounds/animalfarm_chinese.wav,,,,,,,,,0,0,0,1,0,187,187,235,501.202184841,9.30101668928e-06,502.471258418,1.26908384032,,,,,x,1,1.25047667706,2018_Nov_06_1614,60.0016742293,chinese_cond1,001,1001,
images/remotecontrol01c.jpg,remote control,z,sounds/animalfarm_chinese.wav,,,,,,,,,0,0,0,1,0,188,188,85,503.617349473,9.94246875052e-06,505.155314456,1.53797524583,,,,,z,1,1.5173115959,2018_Nov_06_1614,60.0016742293,chinese_cond1,001,1001,
images/butterfly.jpg,butterfly,z,sounds/animalfarm_chinese.wav,,,,,,,,,0,0,0,1,0,189,189,91,506.299761798,9.62174090091e-06,507.022477027,0.722725171978,,,,,z,1,0.700436410076,2018_Nov_06_1614,60.0016742293,chinese_cond1,001,1001,
images/tank.jpg,wallet,x,sounds/animalfarm_chinese.wav,,,,,,,,,0,0,0,1,0,190,190,237,508.202275927,9.62174090091e-06,508.989642517,0.787376853747,,,,,x,1,0.767102563583,2018_Nov_06_1614,60.0016742293,chinese_cond1,001,1001,
images/fork01.jpg,cooking pot,x,sounds/animalfarm_chinese.wav,,,,,,,,,0,0,0,1,0,191,191,160,510.146060266,9.30101668928e-06,510.940161113,0.794111109935,,,,,x,1,0.783794359031,2018_Nov_06_1614,60.0016742293,chinese_cond1,001,1001,
images/bat.jpg,hand,x,sounds/animalfarm_chinese.wav,,,,,,,,,0,0,0,1,0,192,192,185,512.109653845,9.30101668928e-06,512.874003308,0.764359084642,,,,,x,1,0.750448292929,2018_Nov_06_1614,60.0016742293,chinese_cond1,001,1001,
images/candy.jpg,candy,z,sounds/animalfarm_chinese.wav,,,,,,,,,0,0,0,1,0,193,193,31,514.026171776,9.94246511254e-06,514.874522561,0.848361048756,,,,,z,1,0.833800789562,2018_Nov_06_1614,60.0016742293,chinese_cond1,001,1001,
images/shotglass.jpg,shot glass,z,sounds/animalfarm_chinese.wav,,,,,,,,,0,0,0,1,0,194,194,86,516.059464601,9.62174090091e-06,516.908390767,0.848940277538,,,,,z,1,0.833798865213,2018_Nov_06_1614,60.0016742293,chinese_cond1,001,1001,
images/lily.jpg,kiwi,x,sounds/animalfarm_chinese.wav,,,,,,,,,0,0,0,1,0,195,195,190,518.075793657,9.62174090091e-06,518.808883047,0.733099332603,,,,,x,1,0.717095170883,2018_Nov_06_1614,60.0016742293,chinese_cond1,001,1001,
images/nametag01a.jpg,name tag,z,sounds/animalfarm_chinese.wav,,,,,,,,,0,0,0,1,0,196,196,108,520.006215965,9.3010130513e-06,521.092818365,1.08661234232,,,,,z,1,1.06718893474,2018_Nov_06_1614,60.0016742293,chinese_cond1,001,1001,
images/button07.jpg,radish,x,sounds/animalfarm_chinese.wav,,,,,,,,,0,0,0,1,0,197,197,215,522.238357453,9.62174090091e-06,523.126692023,0.888345153642,,,,,x,1,0.867146214212,2018_Nov_06_1614,60.0016742293,chinese_cond1,001,1001,
images/birthdaycandle.jpg,birthday candle,z,sounds/animalfarm_chinese.wav,,,,,,,,,0,0,0,1,0,198,198,55,524.294007676,9.94246511254e-06,525.093865531,0.799868118011,,,,,z,1,0.783772870476,2018_Nov_06_1614,60.0016742293,chinese_cond1,001,1001,
images/stapler03a.jpg,candy cane,x,sounds/animalfarm_chinese.wav,,,,,,,,,0,0,0,1,0,199,199,145,526.283002009,9.30101668928e-06,527.094399538,0.81140747141,,,,,x,1,0.800454723456,2018_Nov_06_1614,60.0016742293,chinese_cond1,001,1001,
images/drink.jpg,drink,z,sounds/animalfarm_chinese.wav,,,,,,,,,0,0,0,1,0,200,200,117,528.262731247,9.94246511254e-06,528.978229208,0.715508545869,,,,,z,1,0.700435447903,2018_Nov_06_1614,60.0016742293,chinese_cond1,001,1001,
images/lemon02.jpg,lemon,z,sounds/animalfarm_chinese.wav,,,,,,,,,0,0,0,1,0,201,201,14,530.160979737,8.98029247764e-06,530.762037038,0.601066922733,,,,,z,1,0.583747469078,2018_Nov_06_1614,60.0016742293,chinese_cond1,001,1001,
images/plant01.jpg,plant,z,sounds/animalfarm_chinese.wav,,,,,,,,,0,0,0,1,0,202,202,47,531.945486105,9.62174090091e-06,532.712796819,0.767320977095,,,,,z,1,0.750676328178,2018_Nov_06_1614,60.0016742293,chinese_cond1,001,1001,
images/banana04a.jpg,banana,z,sounds/animalfarm_chinese.wav,,,,,,,,,0,0,0,1,0,203,203,118,533.884263611,9.30101668928e-06,534.446327205,0.562073536395,,,,,z,1,0.550392743411,2018_Nov_06_1614,60.0016742293,chinese_cond1,001,1001,
images/cockroach02.jpg,belt,x,sounds/animalfarm_chinese.wav,,,,,,,,,0,0,0,1,0,204,204,129,535.618489329,9.30101668928e-06,536.263464744,0.644985357314,,,,,x,1,0.633752295988,2018_Nov_06_1614,60.0016742293,chinese_cond1,001,1001,
images/flower01.jpg,bus,x,sounds/animalfarm_chinese.wav,,,,,,,,,0,0,0,1,0,205,205,140,537.449504625,9.30101668928e-06,538.213980774,0.764486412339,,,,,x,1,0.75044508568,2018_Nov_06_1614,60.0016742293,chinese_cond1,001,1001,
images/lipstick04.jpg,lipstick,z,sounds/animalfarm_chinese.wav,,,,,,,,,0,0,0,1,0,206,206,56,539.383837849,9.3010130513e-06,540.09784829,0.714020383337,,,,,z,1,0.700466237471,2018_Nov_06_1614,60.0016742293,chinese_cond1,001,1001,
images/parrot01.jpg,chameleon,x,sounds/animalfarm_chinese.wav,,,,,,,,,0,0,0,1,0,207,207,150,541.284647326,9.94246511254e-06,541.981640436,0.697003052337,,,,,x,1,0.683759047242,2018_Nov_06_1614,60.0016742293,chinese_cond1,001,1001,
images/hammer02a.jpg,flower,x,sounds/animalfarm_chinese.wav,,,,,,,,,0,0,0,1,0,208,208,176,543.15690076,8.98029247764e-06,543.848775425,0.691884607109,,,,,x,1,0.683754557096,2018_Nov_06_1614,60.0016742293,chinese_cond1,001,1001,
images/graduationcap.jpg,graduation cap,z,sounds/animalfarm_chinese.wav,,,,,,,,,0,0,0,1,0,209,209,35,545.021597279,9.30101668928e-06,545.815972025,0.794385008816,,,,,z,1,0.78378473729,2018_Nov_06_1614,60.0016742293,chinese_cond1,001,1001,
images/apple06.jpg,apple,z,sounds/animalfarm_chinese.wav,,,,,,,,,0,0,0,1,0,210,210,13,547.004541782,9.30101668928e-06,547.633108922,0.628577082491,,,,,z,1,0.617069801559,2018_Nov_06_1614,60.0016742293,chinese_cond1,001,1001,
images/screw03c.jpg,screw,z,sounds/animalfarm_chinese.wav,,,,,,,,,0,0,0,1,0,211,211,84,548.80181171,9.30101668928e-06,549.616978395,0.815176627897,,,,,z,1,0.800464345197,2018_Nov_06_1614,60.0016742293,chinese_cond1,001,1001,
images/paintbrush03a.jpg,paint brush,z,sounds/animalfarm_chinese.wav,,,,,,,,,0,0,0,1,0,212,212,0,550.7862819,9.62174090091e-06,551.584152544,0.79788090787,,,,,z,1,0.783790831058,2018_Nov_06_1614,60.0016742293,chinese_cond1,001,1001,
images/lollipop03b.jpg,lollipop,z,sounds/animalfarm_chinese.wav,,,,,,,,,0,0,0,1,0,213,213,42,552.751294044,9.62174090091e-06,553.434630697,0.683346595299,,,,,z,1,0.667077514987,2018_Nov_06_1614,60.0016742293,chinese_cond1,001,1001,
images/bed.jpg,bed,z,sounds/animalfarm_chinese.wav,,,,,,,,,0,0,0,1,0,214,214,103,554.638079193,9.62174090091e-06,555.301817002,0.663748072046,,,,,z,1,0.650432224618,2018_Nov_06_1614,60.0016742293,chinese_cond1,001,1001,
images/peach01.jpg,peach,z,sounds/animalfarm_chinese.wav,,,,,,,,,0,0,0,1,0,215,215,106,556.493594647,9.62174090091e-06,557.102263065,0.608678681652,,,,,z,1,0.600397891041,2018_Nov_06_1614,60.0016742293,chinese_cond1,001,1001,
images/carrot02.jpg,corkscrew,x,sounds/animalfarm_chinese.wav,,,,,,,,,0,0,0,1,0,216,216,161,558.263101363,9.94246511254e-06,559.036108147,0.773017368203,,,,,x,1,0.750443802779,2018_Nov_06_1614,60.0016742293,chinese_cond1,001,1001,
images/rubberglove02a.jpg,lady bug,x,sounds/animalfarm_chinese.wav,,,,,,,,,0,0,0,1,0,217,217,192,560.16849592,9.30101668928e-06,561.053304763,0.884818785744,,,,,x,1,0.867139478996,2018_Nov_06_1614,60.0016742293,chinese_cond1,001,1001,
images/safe.jpg,safe,z,sounds/animalfarm_chinese.wav,,,,,,,,,0,0,0,1,0,218,218,78,562.2320318,9.94246511254e-06,563.037161728,0.805140511085,,,,,z,1,0.783790831058,2018_Nov_06_1614,60.0016742293,chinese_cond1,001,1001,
,,,sounds/animalfarm_chinese.wav,,,,,,,,,0,0,0,1,,,,,,,,,,,,,,,,2018_Nov_06_1614,60.0016742293,chinese_cond1,001,1001,
images/cigar.jpg,crocodile,x,sounds/greatgatsby_english.wav,,,,,,,,,0,1,1,0,0,0,0,162,584.161976229,9.62174090091e-06,586.260029462,2.09806413788,,,,574.04042446,x,1,2.08422839575,2018_Nov_06_1614,60.0016742293,chinese_cond1,001,1001,
images/acousticguitar02.jpg,acoustic guitar,z,sounds/greatgatsby_english.wav,,,,,,,,,0,1,1,0,0,1,1,97,587.373093572,9.94246511254e-06,588.210436445,0.837352815433,,,,,z,1,0.817135934987,2018_Nov_06_1614,60.0016742293,chinese_cond1,001,1001,
images/scissors04a.jpg,leek,x,sounds/greatgatsby_english.wav,,,,,,,,,0,1,1,0,0,2,2,194,589.304641624,9.3010130513e-06,590.144271905,0.839640223876,,,,,x,1,0.817133048466,2018_Nov_06_1614,60.0016742293,chinese_cond1,001,1001,
images/straw.jpg,straw,z,sounds/greatgatsby_english.wav,,,,,,,,,0,1,1,0,0,3,3,109,591.23562969,9.30101668928e-06,592.011425496,0.775805748606,,,,,z,1,0.767121165616,2018_Nov_06_1614,60.0016742293,chinese_cond1,001,1001,
images/apricot.jpg,apricot,z,sounds/greatgatsby_english.wav,,,,,,,,,0,1,1,0,0,4,4,32,593.128502835,9.3010130513e-06,593.928614383,0.800121490509,,,,,z,1,0.783801094247,2018_Nov_06_1614,60.0016742293,chinese_cond1,001,1001,
images/puma.jpg,puma,z,sounds/greatgatsby_english.wav,,,,,,,,,0,1,1,0,0,5,5,4,595.027959495,8.98029247764e-06,595.929211572,0.901261698837,,,,,z,1,0.883900230248,2018_Nov_06_1614,60.0016742293,chinese_cond1,001,1001,
images/hanger02a.jpg,hanger,z,sounds/greatgatsby_english.wav,,,,,,,,,0,1,1,0,0,6,6,88,597.022707308,9.62174090091e-06,597.812951761,0.79025503706,,,,,z,1,0.767112826776,2018_Nov_06_1614,60.0016742293,chinese_cond1,001,1001,
images/razor04a.jpg,razor,z,sounds/greatgatsby_english.wav,,,,,,,,,0,1,1,0,0,7,7,36,598.913919419,9.94246511254e-06,599.896820303,0.982910826671,,,,,z,1,0.967158754549,2018_Nov_06_1614,60.0016742293,chinese_cond1,001,1001,
images/camera01a.jpg,bull,x,sounds/greatgatsby_english.wav,,,,,,,,,0,1,1,0,0,8,8,138,601.007838832,1.02631893242e-05,601.763983516,0.756155267951,,,,,x,1,0.733769005743,2018_Nov_06_1614,60.0016742293,chinese_cond1,001,1001,
images/dragonfly02.jpg,dragon fly,z,sounds/greatgatsby_english.wav,,,,,,,,,0,1,1,0,0,9,9,29,602.94060243,9.94246511254e-06,604.798121451,1.85752928457,,,,,z,1,1.83405769003,2018_Nov_06_1614,60.0016742293,chinese_cond1,001,1001,
images/backpack01b.jpg,swallow,x,sounds/greatgatsby_english.wav,,,,,,,,,0,1,1,0,0,10,10,228,605.928274094,9.30101668928e-06,606.915341833,0.987077681766,,,,,x,1,0.967161961798,2018_Nov_06_1614,60.0016742293,chinese_cond1,001,1001,
images/bowtie.jpg,bowtie,z,sounds/greatgatsby_english.wav,,,,,,,,,0,1,1,0,0,11,11,89,608.026967494,9.62174090091e-06,608.832498968,0.805541096219,,,,,z,1,0.78373823221,2018_Nov_06_1614,60.0016742293,chinese_cond1,001,1001,
images/antelope.jpg,antelope,z,sounds/greatgatsby_english.wav,,,,,,,,,0,1,1,0,0,12,12,12,609.935960582,9.30101668928e-06,610.799685305,0.863735307201,,,,,z,1,0.850462116163,2018_Nov_06_1614,60.0016742293,chinese_cond1,001,1001,
images/parkingmeter.jpg,ear,x,sounds/greatgatsby_english.wav,,,,,,,,,0,1,1,0,0,13,13,171,611.902325863,8.98029247764e-06,612.7335275,0.831211579189,,,,,x,1,0.817128237595,2018_Nov_06_1614,60.0016742293,chinese_cond1,001,1001,
images/lighter02b.jpg,stapler,x,sounds/greatgatsby_english.wav,,,,,,,,,0,1,1,0,0,14,14,227,613.835666124,9.30101668928e-06,614.650698105,0.815042244252,,,,,x,1,0.800457609977,2018_Nov_06_1614,60.0016742293,chinese_cond1,001,1001,
images/floorlamp.jpg,floor lamp,z,sounds/greatgatsby_english.wav,,,,,,,,,0,1,1,0,0,15,15,26,615.743403575,9.62174090091e-06,616.684571122,0.941177810088,,,,,x,0,0.917154569092,2018_Nov_06_1614,60.0016742293,chinese_cond1,001,1001,
images/cat.jpg,black olive,x,sounds/greatgatsby_english.wav,,,,,,,,,0,1,1,0,0,16,16,133,617.81605381,9.94246511254e-06,618.685087489,0.86904394217,,,,,x,1,0.850454739495,2018_Nov_06_1614,60.0016742293,chinese_cond1,001,1001,
images/bus.jpg,microphone,x,sounds/greatgatsby_english.wav,,,,,,,,,0,1,1,0,0,17,17,203,619.804397713,8.98029247764e-06,620.518907522,0.714519751669,,,,,x,1,0.70042165674,2018_Nov_06_1614,60.0016742293,chinese_cond1,001,1001,
images/bandaid01.jpg,door handle,x,sounds/greatgatsby_english.wav,,,,,,,,,0,1,1,0,0,18,18,170,621.62851839,9.94246511254e-06,622.469414892,0.840906765654,,,,,x,1,0.81708205324,2018_Nov_06_1614,60.0016742293,chinese_cond1,001,1001,
images/diploma01.jpg,glasses,x,sounds/greatgatsby_english.wav,,,,,,,,,0,1,1,0,0,19,19,179,623.600836322,9.94246511254e-06,624.519954688,0.919128629521,,,,,x,1,0.900482337853,2018_Nov_06_1614,60.0016742293,chinese_cond1,001,1001,
images/medal01.jpg,medal,z,sounds/greatgatsby_english.wav,,,,,,,,,0,1,1,0,0,20,20,115,625.62135308,9.30101668928e-06,626.436963969,0.815621152306,,,,,z,1,0.800290191695,2018_Nov_06_1614,60.0016742293,chinese_cond1,001,1001,
images/dolphin01.jpg,dolphin,z,sounds/greatgatsby_english.wav,,,,,,,,,0,1,1,0,0,21,21,99,627.537593904,8.98029247764e-06,628.37095947,0.833375187907,,,,,z,1,0.817120540203,2018_Nov_06_1614,60.0016742293,chinese_cond1,001,1001,
images/raisin.jpg,ruler,x,sounds/greatgatsby_english.wav,,,,,,,,,0,1,1,0,0,22,22,218,629.477229029,9.62174090091e-06,630.104751568,0.627532802919,,,,,x,1,0.617068839387,2018_Nov_06_1614,60.0016742293,chinese_cond1,001,1001,
images/icecube02 (2).jpg,aloe,x,sounds/greatgatsby_english.wav,,,,,,,,,0,1,1,0,0,23,23,122,631.216956137,9.30101668928e-06,632.121943373,0.904997179226,,,,,x,1,0.883804333567,2018_Nov_06_1614,60.0016742293,chinese_cond1,001,1001,
images/key03b.jpg,cigar,x,sounds/greatgatsby_english.wav,,,,,,,,,0,1,1,0,0,24,24,153,633.223912976,9.62174090091e-06,634.055791342,0.831888628996,,,,,x,1,0.817125030346,2018_Nov_06_1614,60.0016742293,chinese_cond1,001,1001,
images/mitten01.jpg,mitten,z,sounds/greatgatsby_english.wav,,,,,,,,,0,1,1,0,0,25,25,102,635.177292757,9.94246511254e-06,635.889605922,0.712323429034,,,,,x,0,0.70043191993,2018_Nov_06_1614,60.0016742293,chinese_cond1,001,1001,
images/notebook02b.jpg,notebook,z,sounds/greatgatsby_english.wav,,,,,,,,,0,1,1,0,0,26,26,7,636.996764529,9.3010130513e-06,639.407549346,2.41079443825,,,,,z,1,2.40115634077,2018_Nov_06_1614,60.0016742293,chinese_cond1,001,1001,
images/showerhead01.jpg,skateboard,x,sounds/greatgatsby_english.wav,,,,,,,,,0,1,1,0,0,27,27,223,640.516048582,9.30101668928e-06,642.14124683,1.62520851113,,,,,x,1,1.60066794123,2018_Nov_06_1614,60.0016742293,chinese_cond1,001,1001,
images/honeycomb.jpg,honey comb,z,sounds/greatgatsby_english.wav,,,,,,,,,0,1,1,0,0,28,28,59,643.254770539,9.3010130513e-06,644.025063351,0.770303075202,,,,,z,1,0.750424559301,2018_Nov_06_1614,60.0016742293,chinese_cond1,001,1001,
images/swan.jpg,swan,z,sounds/greatgatsby_english.wav,,,,,,,,,0,1,1,0,0,29,29,54,645.117611345,9.62174090091e-06,645.992263479,0.87466175573,,,,,x,0,0.850478152395,2018_Nov_06_1614,60.0016742293,chinese_cond1,001,1001,
images/banjo.jpg,knife,x,sounds/greatgatsby_english.wav,,,,,,,,,0,1,1,0,0,30,30,191,647.087456169,9.62174090091e-06,647.95945591,0.872010645493,,,,,x,1,0.850488094857,2018_Nov_06_1614,60.0016742293,chinese_cond1,001,1001,
images/panda.jpg,panda,z,sounds/greatgatsby_english.wav,,,,,,,,,0,1,1,0,0,31,31,83,649.069336828,8.65956462803e-06,649.693217218,0.623889691236,,,,,z,1,0.600392438722,2018_Nov_06_1614,60.0016742293,chinese_cond1,001,1001,
images/treadmill.jpg,lily,x,sounds/greatgatsby_english.wav,,,,,,,,,0,1,1,0,0,32,32,199,650.797680776,9.3010130513e-06,651.527037251,0.729367059455,,,,,x,1,0.717098378129,2018_Nov_06_1614,60.0016742293,chinese_cond1,001,1001,
images/dice05a.jpg,band aid,x,sounds/greatgatsby_english.wav,,,,,,,,,0,1,1,0,0,33,33,126,652.638904738,9.94246511254e-06,653.510895178,0.872000382304,,,,,x,1,0.850471096452,2018_Nov_06_1614,60.0016742293,chinese_cond1,001,1001,
images/egg01b (1).jpg,egg,z,sounds/greatgatsby_english.wav,,,,,,,,,0,1,1,0,0,34,34,19,654.622613207,9.62174090091e-06,655.261362073,0.63875944975,,,,,z,1,0.617088082865,2018_Nov_06_1614,60.0016742293,chinese_cond1,001,1001,
images/spoon02b.jpg,spoon,z,sounds/greatgatsby_english.wav,,,,,,,,,0,1,1,0,0,35,35,38,656.351385322,8.98029247764e-06,656.995150643,0.643775904533,,,,,z,1,0.633760955556,2018_Nov_06_1614,60.0016742293,chinese_cond1,001,1001,
images/leaf01a.jpg,leaf,z,sounds/greatgatsby_english.wav,,,,,,,,,0,1,1,0,0,36,36,68,658.096427159,9.62173726293e-06,658.778973867,0.682556650401,,,,,z,1,0.667116322675,2018_Nov_06_1614,60.0016742293,chinese_cond1,001,1001,
images/mushroom01.jpg,shower head,x,sounds/greatgatsby_english.wav,,,,,,,,,0,1,1,0,0,37,37,222,659.894485107,9.3010130513e-06,660.646117195,0.751642350922,,,,,x,1,0.733773495889,2018_Nov_06_1614,60.0016742293,chinese_cond1,001,1001,
images/kiwi03.jpg,backpack,x,sounds/greatgatsby_english.wav,,,,,,,,,0,1,1,0,0,38,38,125,661.773733546,9.30101668928e-06,662.563277216,0.789554253628,,,,,x,1,0.767114751121,2018_Nov_06_1614,60.0016742293,chinese_cond1,001,1001,
images/button07.jpg,radish,x,sounds/greatgatsby_english.wav,,,,,,,,,0,1,1,0,0,39,39,215,663.673937495,9.62174090091e-06,664.563854841,0.889928250683,,,,,x,1,0.867195605813,2018_Nov_06_1614,60.0016742293,chinese_cond1,001,1001,
images/pingpongpaddle01c (1).jpg,ping pong paddle,z,sounds/greatgatsby_english.wav,,,,,,,,,0,1,1,0,0,40,40,10,665.674575417,9.62174090091e-06,666.364273644,0.689708490128,,,,,z,1,0.667096758469,2018_Nov_06_1614,60.0016742293,chinese_cond1,001,1001,
images/safe.jpg,safe,z,sounds/greatgatsby_english.wav,,,,,,,,,0,1,1,0,0,41,41,78,667.473804651,9.62174090091e-06,668.148053891,0.674259502834,,,,,z,1,0.650403359396,2018_Nov_06_1614,60.0016742293,chinese_cond1,001,1001,
images/swallow.jpg,mattress,x,sounds/greatgatsby_english.wav,,,,,,,,,0,1,1,0,0,42,42,202,669.248234491,9.62174090091e-06,669.898515333,0.650290464313,,,,,x,1,0.633726958738,2018_Nov_06_1614,60.0016742293,chinese_cond1,001,1001,
images/chessknight02b (1).jpg,cockroach,x,sounds/greatgatsby_english.wav,,,,,,,,,0,1,1,0,0,43,43,155,671.092677246,9.62174090091e-06,671.782346929,0.68967994563,,,,,x,1,0.666987391349,2018_Nov_06_1614,60.0016742293,chinese_cond1,001,1001,
images/parkfountain.jpg,park fountain,z,sounds/greatgatsby_english.wav,,,,,,,,,0,1,1,0,0,44,44,93,672.901150728,9.30101668928e-06,673.666183655,0.765042869665,,,,,z,1,0.750430973792,2018_Nov_06_1614,60.0016742293,chinese_cond1,001,1001,
images/seagull.jpg,seagull,z,sounds/greatgatsby_english.wav,,,,,,,,,0,1,1,0,0,45,45,50,674.772364693,9.62174090091e-06,675.383301277,0.610946525896,,,,,z,1,0.600413606553,2018_Nov_06_1614,60.0016742293,chinese_cond1,001,1001,
images/diaper01a.jpg,camera,x,sounds/greatgatsby_english.wav,,,,,,,,,0,1,1,0,0,46,46,143,676.502952752,8.98029247764e-06,677.300471562,0.79752907289,,,,,x,1,0.783777681347,2018_Nov_06_1614,60.0016742293,chinese_cond1,001,1001,
images/gps.jpg,gps,z,sounds/greatgatsby_english.wav,,,,,,,,,0,1,1,0,0,47,47,21,678.417563974,9.30101668928e-06,679.234154036,0.816600324764,,,,,z,1,0.8002837772,2018_Nov_06_1614,60.0016742293,chinese_cond1,001,1001,
images/boxingglove02a.jpg,bracelet,x,sounds/greatgatsby_english.wav,,,,,,,,,0,1,1,0,0,48,48,135,680.344519569,9.62174090091e-06,681.301529953,0.957020968017,,,,,x,1,0.933837063523,2018_Nov_06_1614,60.0016742293,chinese_cond1,001,1001,
images/desktopcomputer.jpg,desktop computer,z,sounds/greatgatsby_english.wav,,,,,,,,,0,1,1,0,0,49,49,16,682.436123029,9.62174090091e-06,683.185348398,0.749235312171,,,,,z,1,0.733774458062,2018_Nov_06_1614,60.0016742293,chinese_cond1,001,1001,
images/atm.jpg,atm,z,sounds/greatgatsby_english.wav,,,,,,,,,0,1,1,0,0,50,50,96,684.323011451,9.94246511254e-06,684.952490732,0.629489864939,,,,,z,1,0.617088082865,2018_Nov_06_1614,60.0016742293,chinese_cond1,001,1001,
images/printer03a.jpg,printer,z,sounds/greatgatsby_english.wav,,,,,,,,,0,1,1,0,0,51,51,72,686.060801061,9.30101668928e-06,686.8029583,0.742167823042,,,,,z,1,0.733776061687,2018_Nov_06_1614,60.0016742293,chinese_cond1,001,1001,
images/corn01.jpg,corn,z,sounds/greatgatsby_english.wav,,,,,,,,,0,1,1,0,0,52,52,22,687.901238927,9.94246511254e-06,688.536747512,0.635518847546,,,,,x,0,0.617072046629,2018_Nov_06_1614,60.0016742293,chinese_cond1,001,1001,
images/croissant02b.jpg,croissant,z,sounds/greatgatsby_english.wav,,,,,,,,,0,1,1,0,0,53,53,39,689.646674294,9.62174090091e-06,690.28721152,0.640546848412,,,,,z,1,0.617083592719,2018_Nov_06_1614,60.0016742293,chinese_cond1,001,1001,
images/ear.jpg,bullet,x,sounds/greatgatsby_english.wav,,,,,,,,,0,1,1,0,0,54,54,139,691.470701319,9.3010130513e-06,692.18773908,0.717048024351,,,,,x,1,0.700457898631,2018_Nov_06_1614,60.0016742293,chinese_cond1,001,1001,
images/hammer02a.jpg,flower,x,sounds/greatgatsby_english.wav,,,,,,,,,0,1,1,0,0,55,55,176,693.282106866,9.62174090091e-06,694.00485481,0.722757565174,,,,,z,0,0.700362643398,2018_Nov_06_1614,60.0016742293,chinese_cond1,001,1001,
images/ostrich.jpg,ostrich,z,sounds/greatgatsby_english.wav,,,,,,,,,0,1,1,0,0,56,56,76,695.105568775,9.30101668928e-06,695.888673255,0.78311506415,,,,,z,1,0.767111864603,2018_Nov_06_1614,60.0016742293,chinese_cond1,001,1001,
images/chameleon.jpg,50 dollar bill,x,sounds/greatgatsby_english.wav,,,,,,,,,0,1,1,0,0,57,57,120,697.0,9.30101668928e-06,697.755840958,0.755851220951,,,,,x,1,0.73377477879,2018_Nov_06_1614,60.0016742293,chinese_cond1,001,1001,
images/bottleofredwine02.jpg,pipe,x,sounds/greatgatsby_english.wav,,,,,,,,,0,1,1,0,0,58,58,213,698.855004861,8.98028883967e-06,699.65634286,0.801348262426,,,,,x,1,0.783795962656,2018_Nov_06_1614,60.0016742293,chinese_cond1,001,1001,
images/cake.jpg,cake,z,sounds/greatgatsby_english.wav,,,,,,,,,0,1,1,0,0,59,59,23,700.770174785,9.94246511254e-06,701.57351122,0.803346377204,,,,,z,1,0.783795962652,2018_Nov_06_1614,60.0016742293,chinese_cond1,001,1001,
images/doorhandle.jpg,doll,x,sounds/greatgatsby_english.wav,,,,,,,,,0,1,1,0,0,60,60,168,702.677425376,8.98028883967e-06,703.490674769,0.813259656457,,,,,x,1,0.800461779399,2018_Nov_06_1614,60.0016742293,chinese_cond1,001,1001,
images/flamingo.jpg,flamingo,z,sounds/greatgatsby_english.wav,,,,,,,,,0,1,1,0,0,61,61,52,704.589532701,9.30101668928e-06,705.25780716,0.668284401974,,,,,z,1,0.650418754183,2018_Nov_06_1614,60.0016742293,chinese_cond1,001,1001,
images/pen03c.jpg,pepper,x,sounds/greatgatsby_english.wav,,,,,,,,,0,1,1,0,0,62,62,211,706.352857769,3.23931926687e-05,707.124957544,0.772114848944,,,,,x,1,0.750428728723,2018_Nov_06_1614,60.0016742293,chinese_cond1,001,1001,
images/elbow.jpg,elbow,z,sounds/greatgatsby_english.wav,,,,,,,,,0,1,1,0,0,63,63,105,708.237789771,9.94246511254e-06,709.125487702,0.887708515143,,,,,z,1,0.867138196099,2018_Nov_06_1614,60.0016742293,chinese_cond1,001,1001,
images/ruler02b.jpg,watermelon,x,sounds/greatgatsby_english.wav,,,,,,,,,0,1,1,0,0,64,64,238,710.228401839,9.62174090091e-06,710.942634862,0.714242645543,,,,,x,1,0.7004146008,2018_Nov_06_1614,60.0016742293,chinese_cond1,001,1001,
images/tie01.jpg,bench,x,sounds/greatgatsby_english.wav,,,,,,,,,0,1,1,0,0,65,65,130,712.041830838,9.30101668928e-06,712.976324104,0.934503208689,,,,,x,1,0.916947380945,2018_Nov_06_1614,60.0016742293,chinese_cond1,001,1001,
images/candycane01a.jpg,lip,x,sounds/greatgatsby_english.wav,,,,,,,,,0,1,1,0,0,66,66,200,714.071289721,9.62174090091e-06,714.82697641,0.755696310931,,,,,x,1,0.733760025454,2018_Nov_06_1614,60.0016742293,chinese_cond1,001,1001,
images/cherry01.jpg,highlighter,x,sounds/greatgatsby_english.wav,,,,,,,,,0,1,1,0,0,67,67,187,716.016700455,9.30101668928e-06,716.677464825,0.660774633499,,,,,x,1,0.650420037084,2018_Nov_06_1614,60.0016742293,chinese_cond1,001,1001,
images/blueberry02.jpg,blueberry,z,sounds/greatgatsby_english.wav,,,,,,,,,0,1,1,0,0,68,68,46,717.790979233,9.30101668928e-06,718.627972516,0.837002904806,,,,,z,1,0.817114125708,2018_Nov_06_1614,60.0016742293,chinese_cond1,001,1001,
images/shotglass.jpg,shot glass,z,sounds/greatgatsby_english.wav,,,,,,,,,0,1,1,0,0,69,69,86,719.737484601,9.30101668928e-06,720.695187751,0.957713091884,,,,,z,1,0.933829366128,2018_Nov_06_1614,60.0016742293,chinese_cond1,001,1001,
images/bat.jpg,hand,x,sounds/greatgatsby_english.wav,,,,,,,,,0,1,1,0,0,70,70,185,721.79366434,9.62174090091e-06,722.512366983,0.71871322691,,,,,x,1,0.70044827689,2018_Nov_06_1614,60.0016742293,chinese_cond1,001,1001,
images/electrictoothbrush01a.jpg,banjo,x,sounds/greatgatsby_english.wav,,,,,,,,,0,1,1,0,0,71,71,127,723.607980464,9.62174090091e-06,724.51285673,0.90488652921,,,,,x,1,0.883809785886,2018_Nov_06_1614,60.0016742293,chinese_cond1,001,1001,
images/dryingmachine01.jpg,drying machine,z,sounds/greatgatsby_english.wav,,,,,,,,,0,1,1,0,0,72,72,18,725.717198444,9.30101668928e-06,726.630086413,0.91289791109,,,,,z,1,0.900491959594,2018_Nov_06_1614,60.0016742293,chinese_cond1,001,1001,
images/parkbench03.jpg,park bench,z,sounds/greatgatsby_english.wav,,,,,,,,,0,1,1,0,0,73,73,71,727.769520828,9.62174090091e-06,728.763971328,0.994461084709,,,,,z,1,0.983837721007,2018_Nov_06_1614,60.0016742293,chinese_cond1,001,1001,
images/ceilingfan02.jpg,paper clip,x,sounds/greatgatsby_english.wav,,,,,,,,,0,1,1,0,0,74,74,208,729.863676615,1.02631893242e-05,730.614460386,0.750794034138,,,,,x,1,0.73376804357,2018_Nov_06_1614,60.0016742293,chinese_cond1,001,1001,
images/hairband.jpg,hairband,z,sounds/greatgatsby_english.wav,,,,,,,,,0,1,1,0,0,75,75,66,731.725289687,1.02631893242e-05,732.414930824,0.689651721859,,,,,z,1,0.66704480107,2018_Nov_06_1614,60.0016742293,chinese_cond1,001,1001,
images/lantern03.jpg,lantern,z,sounds/greatgatsby_english.wav,,,,,,,,,0,1,1,0,0,76,76,5,733.522933258,9.62174090091e-06,734.248749254,0.725825938225,,,,,z,1,0.717094208703,2018_Nov_06_1614,60.0016742293,chinese_cond1,001,1001,
images/apple06.jpg,apple,z,sounds/greatgatsby_english.wav,,,,,,,,,0,1,1,0,0,77,77,13,735.376784472,9.30101668928e-06,736.015871061,0.639096852119,,,,,z,1,0.617074933154,2018_Nov_06_1614,60.0016742293,chinese_cond1,001,1001,
images/eyedrops.jpg,bicycle,x,sounds/greatgatsby_english.wav,,,,,,,,,0,1,1,0,0,78,78,131,737.117212364,9.62174090091e-06,737.933035893,0.815833151322,,,,,x,1,0.800449591861,2018_Nov_06_1614,60.0016742293,chinese_cond1,001,1001,
images/cheetah.jpg,cheetah,z,sounds/greatgatsby_english.wav,,,,,,,,,0,1,1,0,0,79,79,82,739.036142785,9.94246511254e-06,739.750184337,0.714051814357,,,,,z,1,0.700430957761,2018_Nov_06_1614,60.0016742293,chinese_cond1,001,1001,
images/daisy.jpg,daisy,z,sounds/greatgatsby_english.wav,,,,,,,,,0,1,1,0,0,80,80,6,740.853843837,9.30101668928e-06,741.483973869,0.630139973873,,,,,z,1,0.617077819676,2018_Nov_06_1614,60.0016742293,chinese_cond1,001,1001,
images/tent.jpg,tent,z,sounds/greatgatsby_english.wav,,,,,,,,,0,1,1,0,0,81,81,11,742.611673609,9.62173726293e-06,744.001508368,1.38984502262,,,,,z,1,1.36748024897,2018_Nov_06_1614,60.0016742293,chinese_cond1,001,1001,
images/gamecontroller01.jpg,game controller,z,sounds/greatgatsby_english.wav,,,,,,,,,0,1,1,0,0,82,82,112,745.122032856,9.30101668928e-06,745.901810779,0.779787545554,,,,,z,1,0.767124052138,2018_Nov_06_1614,60.0016742293,chinese_cond1,001,1001,
images/tulip02.jpg,sport shorts,x,sounds/greatgatsby_english.wav,,,,,,,,,0,1,1,0,0,83,83,225,746.997011808,1.05839171738e-05,748.252421872,1.25542096879,,,,,x,1,1.23390739844,2018_Nov_06_1614,60.0016742293,chinese_cond1,001,1001,
images/ant.jpg,ant,z,sounds/greatgatsby_english.wav,,,,,,,,,0,1,1,0,0,84,84,98,749.347959983,9.62174090091e-06,749.986224875,0.638275155477,,,,,z,1,0.617097383882,2018_Nov_06_1614,60.0016742293,chinese_cond1,001,1001,
images/computermouse02a.jpg,world map,x,sounds/greatgatsby_english.wav,,,,,,,,,0,1,1,0,0,85,85,239,751.088348104,9.62174090091e-06,751.786668052,0.698330211078,,,,,x,1,0.683748784053,2018_Nov_06_1614,60.0016742293,chinese_cond1,001,1001,
images/hand01a.jpg,cupcake,x,sounds/greatgatsby_english.wav,,,,,,,,,0,1,1,0,0,86,86,163,752.899218362,9.30101668928e-06,753.720528208,0.821320109215,,,,,x,1,0.800464024473,2018_Nov_06_1614,60.0016742293,chinese_cond1,001,1001,
images/leek.jpg,donut,x,sounds/greatgatsby_english.wav,,,,,,,,,0,1,1,0,0,87,87,169,754.822038533,9.62174090091e-06,755.554331243,0.732303293938,,,,,x,1,0.717098057401,2018_Nov_06_1614,60.0016742293,chinese_cond1,001,1001,
images/marker01a.jpg,marker,z,sounds/greatgatsby_english.wav,,,,,,,,,0,1,1,0,0,88,88,95,756.653370063,9.62174090091e-06,757.40482928,0.751469801045,,,,,z,1,0.73377958966,2018_Nov_06_1614,60.0016742293,chinese_cond1,001,1001,
images/aquarium.jpg,computer mouse,x,sounds/greatgatsby_english.wav,,,,,,,,,0,1,1,0,0,89,89,159,758.540988775,9.62174090091e-06,759.388662511,0.847683678225,,,,,x,1,0.833789243472,2018_Nov_06_1614,60.0016742293,chinese_cond1,001,1001,
images/mattress.jpg,cat,x,sounds/greatgatsby_english.wav,,,,,,,,,0,1,1,0,0,90,90,147,760.493955462,9.62173726293e-06,761.155787525,0.661843288144,,,,,x,1,0.650405283748,2018_Nov_06_1614,60.0016742293,chinese_cond1,001,1001,
images/50dollarbill.jpg,cherry,x,sounds/greatgatsby_english.wav,,,,,,,,,0,1,1,0,0,91,91,151,762.276150367,9.94246511254e-06,763.139658601,0.863518497314,,,,,x,1,0.850470134279,2018_Nov_06_1614,60.0016742293,chinese_cond1,001,1001,
images/wallet01.jpg,lamp,x,sounds/greatgatsby_english.wav,,,,,,,,,0,1,1,0,0,92,92,193,764.245794417,8.98029247764e-06,764.873443002,0.627658847719,,,,,x,1,0.617075253875,2018_Nov_06_1614,60.0016742293,chinese_cond1,001,1001,
images/lipstick04.jpg,lipstick,z,sounds/greatgatsby_english.wav,,,,,,,,,0,1,1,0,0,93,93,56,765.973916424,9.30101668928e-06,766.707257903,0.733351422205,,,,,z,1,0.717089077112,2018_Nov_06_1614,60.0016742293,chinese_cond1,001,1001,
images/flipflop01b.jpg,flip flop,z,sounds/greatgatsby_english.wav,,,,,,,,,0,1,1,0,0,94,94,27,767.824903245,9.94246511254e-06,768.624424019,0.79953135709,,,,,z,1,0.783777039898,2018_Nov_06_1614,60.0016742293,chinese_cond1,001,1001,
images/licenseplate.jpg,license plate,z,sounds/greatgatsby_english.wav,,,,,,,,,0,1,1,0,0,95,95,40,769.742159163,9.3010130513e-06,770.4415715,0.699421957903,,,,,z,1,0.683749746226,2018_Nov_06_1614,60.0016742293,chinese_cond1,001,1001,
images/banana04a.jpg,banana,z,sounds/greatgatsby_english.wav,,,,,,,,,0,1,1,0,0,96,96,118,771.547373441,8.98029247764e-06,772.058659903,0.511296725177,,,,,z,1,0.500383747083,2018_Nov_06_1614,60.0016742293,chinese_cond1,001,1001,
images/pepper05a.jpg,lighter,x,sounds/greatgatsby_english.wav,,,,,,,,,0,1,1,0,0,97,97,198,773.263614202,9.62174090091e-06,773.925648,0.662043741071,,,,,x,1,0.650245883582,2018_Nov_06_1614,60.0016742293,chinese_cond1,001,1001,
images/cupcake.jpg,scissors,x,sounds/greatgatsby_english.wav,,,,,,,,,0,1,1,0,0,98,98,219,775.045695891,9.62174090091e-06,775.959732695,0.914046746908,,,,,x,1,0.900507675102,2018_Nov_06_1614,60.0016742293,chinese_cond1,001,1001,
images/bullet (2).jpg,rubber glove,x,sounds/greatgatsby_english.wav,,,,,,,,,0,1,1,0,0,99,99,217,777.065388386,9.62174090091e-06,778.043564034,0.978185269181,,,,,x,1,0.967161641071,2018_Nov_06_1614,60.0016742293,chinese_cond1,001,1001,
images/bench02.jpg,electric toothbrush,x,sounds/greatgatsby_english.wav,,,,,,,,,0,1,1,0,0,100,100,172,779.152544036,9.30101668928e-06,780.010746843,0.858213069594,,,,,x,1,0.833796940864,2018_Nov_06_1614,60.0016742293,chinese_cond1,001,1001,
images/microphone01.jpg,diaper,x,sounds/greatgatsby_english.wav,,,,,,,,,0,1,1,0,0,101,101,164,781.110512104,9.30101668928e-06,781.877922564,0.767420401746,,,,,x,1,0.750464008437,2018_Nov_06_1614,60.0016742293,chinese_cond1,001,1001,
images/bowlingball.jpg,bowling ball,z,sounds/greatgatsby_english.wav,,,,,,,,,0,1,1,0,0,102,102,20,783.010429005,9.62174090091e-06,784.061808457,1.05139003681,,,,,z,1,1.03385056603,2018_Nov_06_1614,60.0016742293,chinese_cond1,001,1001,
images/magnifyingglass01b.jpg,magnifying glass,z,sounds/greatgatsby_english.wav,,,,,,,,,0,1,1,0,0,103,103,64,785.169136407,9.30101668928e-06,786.162412414,0.993286270193,,,,,z,1,0.983883584639,2018_Nov_06_1614,60.0016742293,chinese_cond1,001,1001,
images/ladder.jpg,ladder,z,sounds/greatgatsby_english.wav,,,,,,,,,0,1,1,0,0,104,104,113,787.332950709,9.62174090091e-06,788.812884729,1.47994460443,,,,,z,1,1.46712010722,2018_Nov_06_1614,60.0016742293,chinese_cond1,001,1001,
images/basketball01.jpg,basket ball,z,sounds/greatgatsby_english.wav,,,,,,,,,0,1,1,0,0,105,105,33,790.030012133,9.30101668928e-06,790.596690955,0.566689406045,,,,,z,1,0.550215061936,2018_Nov_06_1614,60.0016742293,chinese_cond1,001,1001,
images/fireextinguisher02.jpg,fire extinguisher,x,sounds/greatgatsby_english.wav,,,,,,,,,0,1,1,0,0,106,106,175,791.707478562,9.30101668928e-06,792.630722731,0.923254111131,,,,,z,0,0.900473999012,2018_Nov_06_1614,60.0016742293,chinese_cond1,001,1001,
images/skateboard.jpg,key,x,sounds/greatgatsby_english.wav,,,,,,,,,0,1,1,0,0,107,107,189,793.722332605,8.98029247764e-06,794.948017264,1.22569428074,,,,,x,1,1.21725505214,2018_Nov_06_1614,60.0016742293,chinese_cond1,001,1001,
images/carrot02.jpg,corkscrew,x,sounds/greatgatsby_english.wav,,,,,,,,,0,1,1,0,0,108,108,161,796.050875915,9.3010130513e-06,796.915178905,0.864312932354,,,,,x,1,0.850419459777,2018_Nov_06_1614,60.0016742293,chinese_cond1,001,1001,
images/pictureframe04.jpg,picture frame,z,sounds/greatgatsby_english.wav,,,,,,,,,0,1,1,0,0,109,109,41,798.037091168,9.62174090091e-06,800.53280324,2.49572233453,,,,,z,1,2.48421409142,2018_Nov_06_1614,60.0016742293,chinese_cond1,001,1001,
images/donut.jpg,rhinoceros,x,sounds/greatgatsby_english.wav,,,,,,,,,0,1,1,0,0,110,110,216,801.659478906,9.62173726293e-06,803.433559797,1.77409147517,,,,,x,1,1.75069396804,2018_Nov_06_1614,60.0016742293,chinese_cond1,001,1001,
images/thumbtack02a.jpg,thumb tack,z,sounds/greatgatsby_english.wav,,,,,,,,,0,1,1,0,0,111,111,60,804.543197606,9.62174090091e-06,805.98422676,1.44103909666,,,,,z,1,1.41728590585,2018_Nov_06_1614,60.0016742293,chinese_cond1,001,1001,
images/bracelet02a.jpg,chess knight,x,sounds/greatgatsby_english.wav,,,,,,,,,0,1,1,0,0,112,112,152,807.093154164,8.98029247764e-06,808.51857493,1.42543038847,,,,,x,1,1.40096647176,2018_Nov_06_1614,60.0016742293,chinese_cond1,001,1001,
images/envelope02a.jpg,grand piano,x,sounds/greatgatsby_english.wav,,,,,,,,,0,1,1,0,0,113,113,182,809.641483044,9.3010130513e-06,810.585443461,0.943970359906,,,,,x,1,0.933835780623,2018_Nov_06_1614,60.0016742293,chinese_cond1,001,1001,
images/lightbulb03b.jpg,treadmill,x,sounds/greatgatsby_english.wav,,,,,,,,,0,1,1,0,0,114,114,234,811.762925445,9.62174090091e-06,812.969395809,1.20648094783,,,,,x,1,1.18385189704,2018_Nov_06_1614,60.0016742293,chinese_cond1,001,1001,
images/cactus.jpg,cactus,z,sounds/greatgatsby_english.wav,,,,,,,,,0,1,1,0,0,115,115,70,814.081355665,9.30101668928e-06,814.819891281,0.738546520635,,,,,z,1,0.71710479262,2018_Nov_06_1614,60.0016742293,chinese_cond1,001,1001,
images/dresser02.jpg,dresser,z,sounds/greatgatsby_english.wav,,,,,,,,,0,1,1,0,0,116,116,87,816.011094188,9.94246511254e-06,816.987124187,0.976039941768,,,,,z,1,0.967177677307,2018_Nov_06_1614,60.0016742293,chinese_cond1,001,1001,
images/arrow02.jpg,hammer,x,sounds/greatgatsby_english.wav,,,,,,,,,0,1,1,0,0,117,117,184,818.14025098,9.30101668928e-06,819.237965207,1.09772384899,,,,,x,1,1.08412768819,2018_Nov_06_1614,60.0016742293,chinese_cond1,001,1001,
images/mirror02.jpg,8 ball,x,sounds/greatgatsby_english.wav,,,,,,,,,0,1,1,0,0,118,118,121,820.340086192,9.30101668928e-06,821.088196081,0.748120152446,,,,,x,1,0.733772533713,2018_Nov_06_1614,60.0016742293,chinese_cond1,001,1001,
images/hairdryer03a.jpg,hairdryer,z,sounds/greatgatsby_english.wav,,,,,,,,,0,1,1,0,0,119,119,119,822.188022922,8.98028883967e-06,822.955186102,0.767173123015,,,,,z,1,0.750268045653,2018_Nov_06_1614,60.0016742293,chinese_cond1,001,1001,
images/tank.jpg,wallet,x,sounds/greatgatsby_english.wav,,,,,,,,,0,1,1,0,0,120,120,237,824.060167309,9.94246511254e-06,824.822492999,0.762336274056,,,,,x,1,0.750433539593,2018_Nov_06_1614,60.0016742293,chinese_cond1,001,1001,
images/bowl02b (1).jpg,bowl,z,sounds/greatgatsby_english.wav,,,,,,,,,0,1,1,0,0,121,121,24,825.940344247,9.62174090091e-06,826.673006752,0.7326730895,,,,,z,1,0.717116980162,2018_Nov_06_1614,60.0016742293,chinese_cond1,001,1001,
images/broom02.jpg,broom,z,sounds/greatgatsby_english.wav,,,,,,,,,0,1,1,0,0,122,122,116,827.767595838,9.62174090091e-06,828.70670305,0.939118116166,,,,,z,1,0.916993886029,2018_Nov_06_1614,60.0016742293,chinese_cond1,001,1001,
images/hat05.jpg,hat,z,sounds/greatgatsby_english.wav,,,,,,,,,0,1,1,0,0,123,123,15,829.81201781,1.05839135358e-05,830.44064204,0.628634812932,,,,,z,1,0.616974867051,2018_Nov_06_1614,60.0016742293,chinese_cond1,001,1001,
images/ashtray02b.jpg,ashtray,z,sounds/greatgatsby_english.wav,,,,,,,,,0,1,1,0,0,124,124,43,831.554196217,9.30101668928e-06,832.391162239,0.836975963932,,,,,z,1,0.817130161944,2018_Nov_06_1614,60.0016742293,chinese_cond1,001,1001,
images/broadsword.jpg,teapot,x,sounds/greatgatsby_english.wav,,,,,,,,,0,1,1,0,0,125,125,231,833.56207514,9.62174090091e-06,834.691759204,1.12969464765,,,,,x,1,1.11720755281,2018_Nov_06_1614,60.0016742293,chinese_cond1,001,1001,
images/feather03b.jpg,feather,z,sounds/greatgatsby_english.wav,,,,,,,,,0,1,1,0,0,126,126,114,835.792471565,9.94246511254e-06,836.558919209,0.766458227696,,,,,z,1,0.750443482055,2018_Nov_06_1614,60.0016742293,chinese_cond1,001,1001,
images/hairpin.jpg,hair pin,z,sounds/greatgatsby_english.wav,,,,,,,,,0,1,1,0,0,127,127,28,837.729245184,9.62174090091e-06,838.62613316,0.896898560237,,,,,z,1,0.883818766179,2018_Nov_06_1614,60.0016742293,chinese_cond1,001,1001,
images/birthdaycandle.jpg,birthday candle,z,sounds/greatgatsby_english.wav,,,,,,,,,0,1,1,0,0,128,128,55,839.722944227,9.62174090091e-06,840.543289333,0.820355690088,,,,,z,1,0.800445101719,2018_Nov_06_1614,60.0016742293,chinese_cond1,001,1001,
images/screwdriver02b.jpg,cola,x,sounds/greatgatsby_english.wav,,,,,,,,,0,1,1,0,0,129,129,158,841.637685022,9.30101668928e-06,842.310421724,0.672746965225,,,,,x,1,0.650411056791,2018_Nov_06_1614,60.0016742293,chinese_cond1,001,1001,
images/lollipop03b.jpg,lollipop,z,sounds/greatgatsby_english.wav,,,,,,,,,0,1,1,0,0,130,130,42,843.402822826,9.30101668928e-06,844.177582692,0.774770128603,,,,,z,1,0.750442519882,2018_Nov_06_1614,60.0016742293,chinese_cond1,001,1001,
images/squirrel.jpg,binder,x,sounds/greatgatsby_english.wav,,,,,,,,,0,1,1,0,0,131,131,132,845.280881056,9.30101668928e-06,846.028065013,0.747193899559,,,,,x,1,0.733761949803,2018_Nov_06_1614,60.0016742293,chinese_cond1,001,1001,
images/sportshorts02.jpg,tape,x,sounds/greatgatsby_english.wav,,,,,,,,,0,1,1,0,0,132,132,230,847.136201831,9.62174090091e-06,847.861874463,0.725682895016,,,,,x,1,0.717103188996,2018_Nov_06_1614,60.0016742293,chinese_cond1,001,1001,
images/doll.jpg,carrot,x,sounds/greatgatsby_english.wav,,,,,,,,,0,1,1,0,0,133,133,146,848.973380813,9.62174090091e-06,849.612449121,0.639078891538,,,,,x,1,0.617184941719,2018_Nov_06_1614,60.0016742293,chinese_cond1,001,1001,
images/comb02a.jpg,diploma,x,sounds/greatgatsby_english.wav,,,,,,,,,0,1,1,0,0,134,134,166,850.717312943,9.62174090091e-06,851.429471519,0.712169160463,,,,,x,1,0.700415562973,2018_Nov_06_1614,60.0016742293,chinese_cond1,001,1001,
images/rubberglove02a.jpg,lady bug,x,sounds/greatgatsby_english.wav,,,,,,,,,0,1,1,0,0,135,135,192,852.534433162,8.98029247764e-06,853.146600687,0.612177787956,,,,,x,1,0.600406229885,2018_Nov_06_1614,60.0016742293,chinese_cond1,001,1001,
images/headphones02b.jpg,headphones,z,sounds/greatgatsby_english.wav,,,,,,,,,0,1,1,0,0,136,136,101,854.254486056,9.62174090091e-06,854.913568226,0.65909275326,,,,,z,1,0.650258712569,2018_Nov_06_1614,60.0016742293,chinese_cond1,001,1001,
images/handbag02a.jpg,candle,x,sounds/greatgatsby_english.wav,,,,,,,,,0,1,1,0,0,137,137,144,856.10614191,9.62174090091e-06,857.014280587,0.908150544317,,,,,x,1,0.883800805594,2018_Nov_06_1614,60.0016742293,chinese_cond1,001,1001,
images/watermelon01.jpg,orange,x,sounds/greatgatsby_english.wav,,,,,,,,,0,1,1,0,0,138,138,207,858.143625004,9.62173726293e-06,858.731402378,0.587787317196,,,,,x,1,0.567059843059,2018_Nov_06_1614,60.0016742293,chinese_cond1,001,1001,
images/worldmap.jpg,scooter,x,sounds/greatgatsby_english.wav,,,,,,,,,0,1,1,0,0,139,139,220,859.862800074,9.62173726293e-06,860.531859988,0.669070177446,,,,,x,1,0.650400793602,2018_Nov_06_1614,60.0016742293,chinese_cond1,001,1001,
images/crocodile.jpg,triangle ruler,x,sounds/greatgatsby_english.wav,,,,,,,,,0,1,1,0,0,140,140,235,861.629905845,9.62174090091e-06,862.26595453,0.636058947915,,,,,x,1,0.617370641314,2018_Nov_06_1614,60.0016742293,chinese_cond1,001,1001,
images/pipe.jpg,icecube,x,sounds/greatgatsby_english.wav,,,,,,,,,0,1,1,0,0,141,141,188,863.460233828,9.62174090091e-06,864.399559132,0.939335567502,,,,,z,0,0.917143985178,2018_Nov_06_1614,60.0016742293,chinese_cond1,001,1001,
images/lightswitch02a.jpg,fork,x,sounds/greatgatsby_english.wav,,,,,,,,,0,1,1,0,0,142,142,177,865.511798339,1.02631893242e-05,866.250038888,0.738251774648,,,,,x,1,0.717101906099,2018_Nov_06_1614,60.0016742293,chinese_cond1,001,1001,
images/graduationcap.jpg,graduation cap,z,sounds/greatgatsby_english.wav,,,,,,,,,0,1,1,0,0,143,143,35,867.353648997,9.62174090091e-06,868.050514458,0.696875403912,,,,,z,1,0.683760650867,2018_Nov_06_1614,60.0016742293,chinese_cond1,001,1001,
images/table02.jpg,table,z,sounds/greatgatsby_english.wav,,,,,,,,,0,1,1,0,0,144,144,49,869.166010624,9.30101668928e-06,870.001200793,0.835210374546,,,,,z,1,0.81726614921,2018_Nov_06_1614,60.0016742293,chinese_cond1,001,1001,
images/sunglasses03a.jpg,sun glasses,z,sounds/greatgatsby_english.wav,,,,,,,,,0,1,1,0,0,145,145,17,871.11061217,9.62174090091e-06,871.818179573,0.707577345165,,,,,z,1,0.683760971591,2018_Nov_06_1614,60.0016742293,chinese_cond1,001,1001,
images/peach01.jpg,peach,z,sounds/greatgatsby_english.wav,,,,,,,,,0,1,1,0,0,146,146,106,872.947797247,9.94246511254e-06,873.701990963,0.754203978977,,,,,z,1,0.733772533717,2018_Nov_06_1614,60.0016742293,chinese_cond1,001,1001,
images/lamp04b.jpg,parking meter,x,sounds/greatgatsby_english.wav,,,,,,,,,0,1,1,0,0,147,147,209,874.904070926,9.30101668928e-06,875.735858527,0.831797543186,,,,,x,1,0.817124709622,2018_Nov_06_1614,60.0016742293,chinese_cond1,001,1001,
images/lion.jpg,lion,z,sounds/greatgatsby_english.wav,,,,,,,,,0,1,1,0,0,148,148,44,876.849392499,9.30101668928e-06,877.469650304,0.620268068105,,,,,z,1,0.600354272483,2018_Nov_06_1614,60.0016742293,chinese_cond1,001,1001,
images/umbrella01.jpg,umbrella,z,sounds/greatgatsby_english.wav,,,,,,,,,0,1,1,0,0,149,149,53,878.583585182,9.62174090091e-06,879.220110785,0.63653586552,,,,,z,1,0.6170781404,2018_Nov_06_1614,60.0016742293,chinese_cond1,001,1001,
images/grandpiano.jpg,tulip,x,sounds/greatgatsby_english.wav,,,,,,,,,0,1,1,0,0,150,150,236,880.335699961,9.94246511254e-06,881.053935629,0.718245931046,,,,,x,1,0.700438334425,2018_Nov_06_1614,60.0016742293,chinese_cond1,001,1001,
images/beermug01b.jpg,beer mug,z,sounds/greatgatsby_english.wav,,,,,,,,,0,1,1,0,0,151,151,111,882.171960067,9.62174090091e-06,882.837710744,0.665760940159,,,,,z,1,0.650401114326,2018_Nov_06_1614,60.0016742293,chinese_cond1,001,1001,
images/teapot.jpg,light switch,x,sounds/greatgatsby_english.wav,,,,,,,,,0,1,1,0,0,152,152,197,883.955959369,9.3010130513e-06,884.671535588,0.715586802689,,,,,x,1,0.700430316305,2018_Nov_06_1614,60.0016742293,chinese_cond1,001,1001,
images/blackolive.jpg,tank,x,sounds/greatgatsby_english.wav,,,,,,,,,0,1,1,0,0,153,153,229,885.787881354,9.62174090091e-06,886.505357866,0.717486454992,,,,,x,1,0.700427429787,2018_Nov_06_1614,60.0016742293,chinese_cond1,001,1001,
images/handfan01b.jpg,handfan,z,sounds/greatgatsby_english.wav,,,,,,,,,0,1,1,0,0,154,154,69,887.620678275,9.62174090091e-06,888.33916475,0.718496096299,,,,,z,1,0.700429033412,2018_Nov_06_1614,60.0016742293,chinese_cond1,001,1001,
images/cookingpot.jpg,grasshopper,x,sounds/greatgatsby_english.wav,,,,,,,,,0,1,1,0,0,155,155,183,889.45439728,9.62174090091e-06,890.189669201,0.735281864079,,,,,x,1,0.717121470305,2018_Nov_06_1614,60.0016742293,chinese_cond1,001,1001,
images/flashlight05.jpg,flash light,z,sounds/greatgatsby_english.wav,,,,,,,,,0,1,1,0,0,156,156,8,891.293929419,9.62174090091e-06,891.956782028,0.662862871915,,,,,z,1,0.650412339688,2018_Nov_06_1614,60.0016742293,chinese_cond1,001,1001,
images/axe01.jpg,axe,z,sounds/greatgatsby_english.wav,,,,,,,,,0,1,1,0,0,157,157,104,893.060605419,9.62174090091e-06,893.707236736,0.646641900308,,,,,z,1,0.633727920911,2018_Nov_06_1614,60.0016742293,chinese_cond1,001,1001,
images/computerkeyboard01a.jpg,computer keyboard,z,sounds/greatgatsby_english.wav,,,,,,,,,0,1,1,0,0,158,158,61,894.825171371,9.30101668928e-06,895.691104605,0.865943175926,,,,,z,1,0.850477510947,2018_Nov_06_1614,60.0016742293,chinese_cond1,001,1001,
images/saltshaker03c.jpg,salt shaker,z,sounds/greatgatsby_english.wav,,,,,,,,,0,1,1,0,0,159,159,63,896.803171262,9.94246511254e-06,897.441552256,0.638390937092,,,,,z,1,0.617073650254,2018_Nov_06_1614,60.0016742293,chinese_cond1,001,1001,
images/nametag01a.jpg,name tag,z,sounds/greatgatsby_english.wav,,,,,,,,,0,1,1,0,0,160,160,108,898.562729739,9.62174090091e-06,899.292051897,0.729332421193,,,,,z,1,0.717107999866,2018_Nov_06_1614,60.0016742293,chinese_cond1,001,1001,
images/lock02a.jpg,lock,z,sounds/greatgatsby_english.wav,,,,,,,,,0,1,1,0,0,161,161,65,900.401617543,9.62174090091e-06,901.142523956,0.740916676048,,,,,z,1,0.717097095232,2018_Nov_06_1614,60.0016742293,chinese_cond1,001,1001,
images/lychee02a.jpg,lychee,z,sounds/greatgatsby_english.wav,,,,,,,,,0,1,1,0,0,162,162,62,902.268842335,9.62174090091e-06,902.893110481,0.624278409552,,,,,z,1,0.600518483523,2018_Nov_06_1614,60.0016742293,chinese_cond1,001,1001,
images/highheelshoe02a.jpg,high heel shoe,z,sounds/greatgatsby_english.wav,,,,,,,,,0,1,1,0,0,163,163,75,904.000666466,9.94246511254e-06,904.860186168,0.85953028587,,,,,z,1,0.850485208339,2018_Nov_06_1614,60.0016742293,chinese_cond1,001,1001,
images/beachumbrella01.jpg,beach umbrella,z,sounds/greatgatsby_english.wav,,,,,,,,,0,1,1,0,0,164,164,92,905.967257217,1.05839135358e-05,906.643974754,0.676728441445,,,,,z,1,0.667088419625,2018_Nov_06_1614,60.0016742293,chinese_cond1,001,1001,
images/snowman.jpg,globe,x,sounds/greatgatsby_english.wav,,,,,,,,,0,1,1,0,0,165,165,180,907.755825242,9.30101668928e-06,908.461114217,0.705299237736,,,,,x,1,0.6837545571,2018_Nov_06_1614,60.0016742293,chinese_cond1,001,1001,
images/candle08a.jpg,screw driver,x,sounds/greatgatsby_english.wav,,,,,,,,,0,1,1,0,0,166,166,221,909.575710109,9.94246511254e-06,910.444969898,0.869270373794,,,,,x,1,0.8504717379,2018_Nov_06_1614,60.0016742293,chinese_cond1,001,1001,
images/radish01.jpg,raisin,x,sounds/greatgatsby_english.wav,,,,,,,,,0,1,1,0,0,167,167,214,911.556773561,8.98029247764e-06,912.295470822,0.738707524426,,,,,x,1,0.717104151172,2018_Nov_06_1614,60.0016742293,chinese_cond1,001,1001,
images/bicycle.jpg,hand bag,x,sounds/greatgatsby_english.wav,,,,,,,,,0,1,1,0,0,168,168,186,913.406052203,9.62174090091e-06,914.612741301,1.20669936134,,,,,x,1,1.18390449589,2018_Nov_06_1614,60.0016742293,chinese_cond1,001,1001,
images/cocktailshrimp01.jpg,cocktail shrimp,z,sounds/greatgatsby_english.wav,,,,,,,,,0,1,1,0,0,169,169,30,915.816007305,1.15460898087e-05,916.496560709,0.680564950115,,,,,x,0,0.667095796292,2018_Nov_06_1614,60.0016742293,chinese_cond1,001,1001,
images/glasses01b.jpg,calculator,x,sounds/greatgatsby_english.wav,,,,,,,,,0,1,1,0,0,170,170,142,917.590037201,9.62174090091e-06,918.413724579,0.823697320571,,,,,x,1,0.800451195486,2018_Nov_06_1614,60.0016742293,chinese_cond1,001,1001,
images/flower01.jpg,bus,x,sounds/greatgatsby_english.wav,,,,,,,,,0,1,1,0,0,171,171,140,919.52934262,9.62174090091e-06,920.230869174,0.701537137193,,,,,x,1,0.683760650863,2018_Nov_06_1614,60.0016742293,chinese_cond1,001,1001,
images/lemon02.jpg,lemon,z,sounds/greatgatsby_english.wav,,,,,,,,,0,1,1,0,0,172,172,14,921.343861763,9.94246511254e-06,922.048010561,0.704159382207,,,,,z,1,0.683757122893,2018_Nov_06_1614,60.0016742293,chinese_cond1,001,1001,
images/corkscrew02a.jpg,masquerade mask,x,sounds/greatgatsby_english.wav,,,,,,,,,0,1,1,0,0,173,173,201,923.153112681,9.94246511254e-06,924.148568975,0.995466556593,,,,,x,1,0.983844135502,2018_Nov_06_1614,60.0016742293,chinese_cond1,001,1001,
images/gorilla.jpg,gorilla,z,sounds/greatgatsby_english.wav,,,,,,,,,0,1,1,0,0,174,174,80,925.260784768,1.02631929622e-05,926.032398645,0.771623819455,,,,,z,1,0.750432898145,2018_Nov_06_1614,60.0016742293,chinese_cond1,001,1001,
images/triangleruler02.jpg,bottle of red wine,x,sounds/greatgatsby_english.wav,,,,,,,,,0,1,1,0,0,175,175,134,927.14410577,9.30101668928e-06,927.932889322,0.788793173953,,,,,x,1,0.767120524168,2018_Nov_06_1614,60.0016742293,chinese_cond1,001,1001,
images/drink.jpg,drink,z,sounds/greatgatsby_english.wav,,,,,,,,,0,1,1,0,0,176,176,117,929.033720352,9.62173726293e-06,929.833385451,0.799675362472,,,,,z,1,0.783786982363,2018_Nov_06_1614,60.0016742293,chinese_cond1,001,1001,
images/djmixer01.jpg,light bulb,x,sounds/greatgatsby_english.wav,,,,,,,,,0,1,1,0,0,177,177,196,931.030709709,9.94246511254e-06,931.900601006,0.869902201423,,,,,x,1,0.850465002684,2018_Nov_06_1614,60.0016742293,chinese_cond1,001,1001,
images/radio03a.jpg,radio,z,sounds/greatgatsby_english.wav,,,,,,,,,0,1,1,0,0,178,178,37,933.015847327,9.30101668928e-06,933.684396969,0.668559904476,,,,,z,1,0.650415226213,2018_Nov_06_1614,60.0016742293,chinese_cond1,001,1001,
images/candy.jpg,candy,z,sounds/greatgatsby_english.wav,,,,,,,,,0,1,1,0,0,179,179,31,934.78746377,9.3010130513e-06,935.451732058,0.66427855067,,,,,z,1,0.65061086827,2018_Nov_06_1614,60.0016742293,chinese_cond1,001,1001,
images/mailbox01.jpg,mail box,z,sounds/greatgatsby_english.wav,,,,,,,,,0,1,1,0,0,180,180,73,936.572614153,9.62174090091e-06,937.635431931,1.06282772049,,,,,z,1,1.05051862785,2018_Nov_06_1614,60.0016742293,chinese_cond1,001,1001,
images/globe.jpg,cloud,x,sounds/greatgatsby_english.wav,,,,,,,,,0,1,1,0,0,181,181,154,938.764420664,1.02631893242e-05,939.569263863,0.804854103942,,,,,x,1,0.783771908304,2018_Nov_06_1614,60.0016742293,chinese_cond1,001,1001,
images/knife04.jpg,tooth brush,x,sounds/greatgatsby_english.wav,,,,,,,,,0,1,1,0,0,182,182,233,940.667239802,9.3010130513e-06,941.436432207,0.769202668813,,,,,x,1,0.750442199158,2018_Nov_06_1614,60.0016742293,chinese_cond1,001,1001,
images/eraser.jpg,eraser,z,sounds/greatgatsby_english.wav,,,,,,,,,0,1,1,0,0,183,183,110,942.544360554,9.62174090091e-06,943.153547905,0.609197293466,,,,,z,1,0.600409116407,2018_Nov_06_1614,60.0016742293,chinese_cond1,001,1001,
images/nailpolish02b.jpg,nail polish,z,sounds/greatgatsby_english.wav,,,,,,,,,0,1,1,0,0,184,184,94,944.263907985,9.94246511254e-06,944.92068671,0.656788987857,,,,,z,1,0.633750050914,2018_Nov_06_1614,60.0016742293,chinese_cond1,001,1001,
images/bull.jpg,button,x,sounds/greatgatsby_english.wav,,,,,,,,,0,1,1,0,0,185,185,141,946.027813886,9.62174090091e-06,946.637804332,0.610000708803,,,,,x,1,0.600410720032,2018_Nov_06_1614,60.0016742293,chinese_cond1,001,1001,
images/cloud.jpg,ceiling fan,x,sounds/greatgatsby_english.wav,,,,,,,,,0,1,1,0,0,186,186,149,947.744439195,9.30101668928e-06,948.488308463,0.743880172129,,,,,x,1,0.733795305168,2018_Nov_06_1614,60.0016742293,chinese_cond1,001,1001,
images/butterfly.jpg,butterfly,z,sounds/greatgatsby_english.wav,,,,,,,,,0,1,1,0,0,187,187,91,949.597279806,3.97698604502e-05,950.288760941,0.691501661837,,,,,z,1,0.667090985422,2018_Nov_06_1614,60.0016742293,chinese_cond1,001,1001,
images/tape01a.jpg,tie,x,sounds/greatgatsby_english.wav,,,,,,,,,0,1,1,0,0,188,188,232,951.415448153,9.94246511254e-06,952.055881786,0.640443895794,,,,,x,1,0.617067877211,2018_Nov_06_1614,60.0016742293,chinese_cond1,001,1001,
images/coffeepot03b.jpg,coffee pot,z,sounds/greatgatsby_english.wav,,,,,,,,,0,1,1,0,0,189,189,107,953.178237291,9.30101668928e-06,953.906372447,0.728145098416,,,,,z,1,0.717107037693,2018_Nov_06_1614,60.0016742293,chinese_cond1,001,1001,
images/parrot01.jpg,chameleon,x,sounds/greatgatsby_english.wav,,,,,,,,,0,1,1,0,0,190,190,150,955.021002014,8.98028883967e-06,956.106961361,1.0859689686,,,,,x,1,1.06718284097,2018_Nov_06_1614,60.0016742293,chinese_cond1,001,1001,
images/baseball01a.jpg,baseball,z,sounds/greatgatsby_english.wav,,,,,,,,,0,1,1,0,0,191,191,74,957.319762831,9.62174090091e-06,958.12415028,0.804398033444,,,,,z,1,0.783743363805,2018_Nov_06_1614,60.0016742293,chinese_cond1,001,1001,
images/masquerademask02b.jpg,mirror,x,sounds/greatgatsby_english.wav,,,,,,,,,0,1,1,0,0,192,192,204,959.230052288,9.62174090091e-06,959.891266956,0.661224930955,,,,,x,1,0.65001945195,2018_Nov_06_1614,60.0016742293,chinese_cond1,001,1001,
images/electricguitar02.jpg,electric guitar,z,sounds/greatgatsby_english.wav,,,,,,,,,0,1,1,0,0,193,193,100,960.994739153,9.62174090091e-06,961.791776876,0.797047665139,,,,,z,1,0.783787303088,2018_Nov_06_1614,60.0016742293,chinese_cond1,001,1001,
images/aloe02.jpg,broad sword,x,sounds/greatgatsby_english.wav,,,,,,,,,0,1,1,0,0,194,194,137,962.912875781,9.62174090091e-06,963.575579253,0.662714697115,,,,,x,1,0.650427734476,2018_Nov_06_1614,60.0016742293,chinese_cond1,001,1001,
images/lettuce.jpg,mushroom,x,sounds/greatgatsby_english.wav,,,,,,,,,0,1,1,0,0,195,195,205,964.700065011,9.62174090091e-06,965.409403776,0.709349028315,,,,,x,1,0.700448597614,2018_Nov_06_1614,60.0016742293,chinese_cond1,001,1001,
images/gluestick.jpg,squirrel,x,sounds/greatgatsby_english.wav,,,,,,,,,0,1,1,0,0,196,196,226,966.518712842,9.62174090091e-06,967.310080794,0.79137789418,,,,,x,1,0.767306223759,2018_Nov_06_1614,60.0016742293,chinese_cond1,001,1001,
images/cauliflower01.jpg,glue stick,x,sounds/greatgatsby_english.wav,,,,,,,,,0,1,1,0,0,197,197,181,968.426872367,9.30101668928e-06,969.077021712,0.650159287914,,,,,x,1,0.63374620222,2018_Nov_06_1614,60.0016742293,chinese_cond1,001,1001,
images/calculator02b.jpg,dice,x,sounds/greatgatsby_english.wav,,,,,,,,,0,1,1,0,0,198,198,165,970.180470817,9.30101668928e-06,970.977522331,0.797061777026,,,,,x,1,0.783790510333,2018_Nov_06_1614,60.0016742293,chinese_cond1,001,1001,
images/giraffe.jpg,lettuce,x,sounds/greatgatsby_english.wav,,,,,,,,,0,1,1,0,0,199,199,195,972.079966927,9.94246511254e-06,972.661297094,0.581341071778,,,,,x,1,0.567063371029,2018_Nov_06_1614,60.0016742293,chinese_cond1,001,1001,
images/puzzle.jpg,puzzle,z,sounds/greatgatsby_english.wav,,,,,,,,,0,1,1,0,0,200,200,57,973.782437052,9.30101668928e-06,974.528443629,0.74601683997,,,,,z,1,0.733768685019,2018_Nov_06_1614,60.0016742293,chinese_cond1,001,1001,
images/redfox.jpg,red fox,z,sounds/greatgatsby_english.wav,,,,,,,,,0,1,1,0,0,201,201,1,975.642542077,9.62174090091e-06,976.412277148,0.769744693531,,,,,z,1,0.750440916258,2018_Nov_06_1614,60.0016742293,chinese_cond1,001,1001,
images/dreamcatcher.jpg,dream catcher,z,sounds/greatgatsby_english.wav,,,,,,,,,0,1,1,0,0,202,202,48,977.511835863,9.62174090091e-06,978.262757867,0.750932266474,,,,,z,1,0.73374687574,2018_Nov_06_1614,60.0016742293,chinese_cond1,001,1001,
images/volleyball.jpg,volley ball,z,sounds/greatgatsby_english.wav,,,,,,,,,0,1,1,0,0,203,203,2,979.396317888,9.94246511254e-06,979.963210313,0.566903008686,,,,,z,1,0.550396912833,2018_Nov_06_1614,60.0016742293,chinese_cond1,001,1001,
images/nailclipper03a.jpg,aquarium,x,sounds/greatgatsby_english.wav,,,,,,,,,0,1,1,0,0,204,204,123,981.063490338,9.30101668928e-06,981.880380598,0.81690052307,,,,,x,1,0.800450554038,2018_Nov_06_1614,60.0016742293,chinese_cond1,001,1001,
images/lily.jpg,kiwi,x,sounds/greatgatsby_english.wav,,,,,,,,,0,1,1,0,0,205,205,190,982.980635926,9.30101668928e-06,983.597499502,0.616876083848,,,,,x,1,0.600412965101,2018_Nov_06_1614,60.0016742293,chinese_cond1,001,1001,
images/rhinoceros01.jpg,envelope,x,sounds/greatgatsby_english.wav,,,,,,,,,0,1,1,0,0,206,206,173,984.711170103,9.30101668928e-06,985.464654055,0.753493894525,,,,,x,1,0.733773495889,2018_Nov_06_1614,60.0016742293,chinese_cond1,001,1001,
images/highlighter03b.jpg,coin,x,sounds/greatgatsby_english.wav,,,,,,,,,0,1,1,0,0,207,207,156,986.567599623,1.05839135358e-05,987.29846607,0.730877672719,,,,,x,1,0.717099340302,2018_Nov_06_1614,60.0016742293,chinese_cond1,001,1001,
images/tissuebox03.jpg,tissue box,z,sounds/greatgatsby_english.wav,,,,,,,,,0,1,1,0,0,208,208,58,988.424893816,9.30101668928e-06,989.098780637,0.673897404664,,,,,z,1,0.650255184595,2018_Nov_06_1614,60.0016742293,chinese_cond1,001,1001,
images/cola.jpg,comb,x,sounds/greatgatsby_english.wav,,,,,,,,,0,1,1,0,0,209,209,157,990.221096372,1.02631893242e-05,990.866067617,0.644982470792,,,,,x,1,0.633745560768,2018_Nov_06_1614,60.0016742293,chinese_cond1,001,1001,
images/pouch01b.jpg,pouch,z,sounds/greatgatsby_english.wav,,,,,,,,,0,1,1,0,0,210,210,25,991.979565989,9.30101668928e-06,992.583183956,0.603627909335,,,,,x,0,0.583640667763,2018_Nov_06_1614,60.0016742293,chinese_cond1,001,1001,
images/sock03.jpg,sock,z,sounds/greatgatsby_english.wav,,,,,,,,,0,1,1,0,0,211,211,90,993.690297982,9.94246511254e-06,994.467020683,0.776733284391,,,,,z,1,0.76711795837,2018_Nov_06_1614,60.0016742293,chinese_cond1,001,1001,
images/fork01.jpg,cooking pot,x,sounds/greatgatsby_english.wav,,,,,,,,,0,1,1,0,0,212,212,160,995.56288946,9.62174090091e-06,996.534216673,0.971336835006,,,,,x,1,0.950493579254,2018_Nov_06_1614,60.0016742293,chinese_cond1,001,1001,
