images,name,corrAns,sounds,trials_3.thisRepN,trials_3.thisTrialN,trials_3.thisN,trials_3.thisIndex,trials_4.thisRepN,trials_4.thisTrialN,trials_4.thisN,trials_4.thisIndex,trials_2.thisRepN,trials_2.thisTrialN,trials_2.thisN,trials_2.thisIndex,trials.thisRepN,trials.thisTrialN,trials.thisN,trials.thisIndex,begin_global,begin_routine,end_global,end_routine,key_resp_2.keys,key_resp_2.corr,key_resp_2.rt,begin_book,key_resp_1.keys,key_resp_1.corr,key_resp_1.rt,date,frameRate,expName,session,participant,
images/volleyball.jpg,volley ball,z,,0,0,0,0,,,,,,,,,,,,,,,,,,,,,,,,2018_Nov_09_1341,59.9888216649,spanish_cond1,001,1003,
images/puma.jpg,puma,z,,,,,,0,0,0,0,,,,,,,,,48.1613647304,9.94245056063e-06,49.0721932912,0.910839144606,z,1,0.900478166877,,,,,2018_Nov_09_1341,59.9888216649,spanish_cond1,001,1003,
images/bowtie.jpg,bowtie,z,sounds/animalfarm_spanish.wav,,,,,,,,,0,0,0,1,0,0,0,89,91.3192034251,9.621726349e-06,93.5337348366,2.21454167465,,,,81.0688471813,z,1,2.20082432398,2018_Nov_09_1341,59.9888216649,spanish_cond1,001,1003,
images/razor04a.jpg,razor,z,sounds/animalfarm_spanish.wav,,,,,,,,,0,0,0,1,0,1,1,36,94.6394382974,9.621726349e-06,96.0177081152,1.37828040164,,,,,z,1,1.3672786181,2018_Nov_09_1341,59.9888216649,spanish_cond1,001,1003,
images/pouch01b.jpg,pouch,z,sounds/animalfarm_spanish.wav,,,,,,,,,0,0,0,1,0,2,2,25,97.1612697963,9.621726349e-06,98.3516167199,1.19035750744,,,,,z,1,1.16718875134,2018_Nov_09_1341,59.9888216649,spanish_cond1,001,1003,
images/cookingpot.jpg,grasshopper,x,sounds/animalfarm_spanish.wav,,,,,,,,,0,0,0,1,0,3,3,183,99.5419575496,8.98027792573e-06,100.568854077,1.02690582816,,,,,x,1,1.01714941458,2018_Nov_09_1341,59.9888216649,spanish_cond1,001,1003,
images/weight01.jpg,weight,z,sounds/animalfarm_spanish.wav,,,,,,,,,0,0,0,1,0,4,4,67,101.673809931,9.621726349e-06,103.786375595,2.11257592734,,,,,z,1,2.10077650403,2018_Nov_09_1341,59.9888216649,spanish_cond1,001,1003,
images/bull.jpg,button,x,sounds/animalfarm_spanish.wav,,,,,,,,,0,0,0,1,0,5,5,141,104.892227551,8.98027792573e-06,107.670695383,2.77847777499,,,,,x,1,2.76760460163,2018_Nov_09_1341,59.9888216649,spanish_cond1,001,1003,
images/skateboard.jpg,key,x,sounds/animalfarm_spanish.wav,,,,,,,,,0,0,0,1,0,6,6,189,108.828405468,9.62166814134e-06,109.904608446,1.07621324144,,,,,x,1,1.06716723077,2018_Nov_09_1341,59.9888216649,spanish_cond1,001,1003,
images/straw.jpg,straw,z,sounds/animalfarm_spanish.wav,,,,,,,,,0,0,0,1,0,7,7,109,110.996204236,9.621726349e-06,111.905125453,0.908930518141,,,,,z,1,0.900444490951,2018_Nov_09_1341,59.9888216649,spanish_cond1,001,1003,
images/50dollarbill.jpg,cherry,x,sounds/animalfarm_spanish.wav,,,,,,,,,0,0,0,1,0,8,8,151,113.099529851,9.621726349e-06,114.538992139,1.43947255076,,,,,x,1,1.41706647543,2018_Nov_09_1341,59.9888216649,spanish_cond1,001,1003,
images/battery03b.jpg,battery,z,sounds/animalfarm_spanish.wav,,,,,,,,,0,0,0,1,0,9,9,34,115.719881563,9.621726349e-06,117.506579165,1.786707544,,,,,z,1,1.76734545693,2018_Nov_09_1341,59.9888216649,spanish_cond1,001,1003,
images/puma.jpg,puma,z,sounds/animalfarm_spanish.wav,,,,,,,,,0,0,0,1,0,10,10,4,118.606378103,9.621726349e-06,119.640461727,1.03409388673,,,,,z,1,1.01715165959,2018_Nov_09_1341,59.9888216649,spanish_cond1,001,1003,
images/backpack01b.jpg,swallow,x,sounds/animalfarm_spanish.wav,,,,,,,,,0,0,0,1,0,11,11,228,120.770512924,9.621726349e-06,121.941070877,1.17056821648,,,,,x,1,1.15053004393,2018_Nov_09_1341,59.9888216649,spanish_cond1,001,1003,
images/raisin.jpg,ruler,x,sounds/animalfarm_spanish.wav,,,,,,,,,0,0,0,1,0,12,12,218,123.124423459,9.621726349e-06,124.158335175,1.03392197884,,,,,x,1,1.01718597708,2018_Nov_09_1341,59.9888216649,spanish_cond1,001,1003,
images/masquerademask02b.jpg,mirror,x,sounds/animalfarm_spanish.wav,,,,,,,,,0,0,0,1,0,13,13,204,125.346721835,9.62166814134e-06,126.642293379,1.29558180715,,,,,x,1,1.28390714538,2018_Nov_09_1341,59.9888216649,spanish_cond1,001,1003,
images/hat05.jpg,hat,z,sounds/animalfarm_spanish.wav,,,,,,,,,0,0,0,1,0,14,14,15,127.746247934,8.98027792573e-06,128.776163754,1.02992544137,,,,,z,1,1.01714909385,2018_Nov_09_1341,59.9888216649,spanish_cond1,001,1003,
images/gamecontroller01.jpg,game controller,z,sounds/animalfarm_spanish.wav,,,,,,,,,0,0,0,1,0,15,15,112,129.974500545,9.621726349e-06,131.576893657,1.60240305407,,,,,z,1,1.58395053929,2018_Nov_09_1341,59.9888216649,spanish_cond1,001,1003,
images/clothespin02a.jpg,clothes pin,z,sounds/animalfarm_spanish.wav,,,,,,,,,0,0,0,1,0,16,16,79,132.760921362,9.621726349e-06,134.894418093,2.1335066738,,,,,z,1,2.1174374565,2018_Nov_09_1341,59.9888216649,spanish_cond1,001,1003,
images/flashlight05.jpg,flash light,z,sounds/animalfarm_spanish.wav,,,,,,,,,0,0,0,1,0,17,17,8,135.99691528,9.621726349e-06,137.228352677,1.23144733923,,,,,z,1,1.21720239811,2018_Nov_09_1341,59.9888216649,spanish_cond1,001,1003,
images/crocodile.jpg,triangle ruler,x,sounds/animalfarm_spanish.wav,,,,,,,,,0,0,0,1,0,18,18,235,138.325726303,9.30100213736e-06,139.312237307,0.986521588406,,,,,x,1,0.967149558885,2018_Nov_09_1341,59.9888216649,spanish_cond1,001,1003,
images/dragonfly02.jpg,dragon fly,z,sounds/animalfarm_spanish.wav,,,,,,,,,0,0,0,1,0,19,19,29,140.478486338,1.02631747723e-05,141.812881801,1.33440572635,,,,,z,1,1.31723065383,2018_Nov_09_1341,59.9888216649,spanish_cond1,001,1003,
images/lemon02.jpg,lemon,z,sounds/animalfarm_spanish.wav,,,,,,,,,0,0,0,1,0,20,20,14,142.924908971,9.621726349e-06,143.746713304,0.821814275987,,,,,z,1,0.800436440739,2018_Nov_09_1341,59.9888216649,spanish_cond1,001,1003,
images/pen03c.jpg,pepper,x,sounds/animalfarm_spanish.wav,,,,,,,,,0,0,0,1,0,21,21,211,144.840922671,8.98027792573e-06,145.897272855,1.05636012653,,,,,x,1,1.03382704465,2018_Nov_09_1341,59.9888216649,spanish_cond1,001,1003,
images/radish01.jpg,raisin,x,sounds/animalfarm_spanish.wav,,,,,,,,,0,0,0,1,0,22,22,214,147.086654079,1.02631747723e-05,148.664654553,1.57801105792,,,,,x,1,1.56729888782,2018_Nov_09_1341,59.9888216649,spanish_cond1,001,1003,
images/elbow.jpg,elbow,z,sounds/animalfarm_spanish.wav,,,,,,,,,0,0,0,1,0,23,23,105,149.776313211,1.02631747723e-05,151.365356842,1.58905453555,,,,,z,1,1.56730049144,2018_Nov_09_1341,59.9888216649,spanish_cond1,001,1003,
images/electricguitar02.jpg,electric guitar,z,sounds/animalfarm_spanish.wav,,,,,,,,,0,0,0,1,0,24,24,100,152.467714514,9.621726349e-06,153.315867258,0.848163327901,,,,,z,1,0.833770533092,2018_Nov_09_1341,59.9888216649,spanish_cond1,001,1003,
images/flipflop01b.jpg,flip flop,z,sounds/animalfarm_spanish.wav,,,,,,,,,0,0,0,1,0,25,25,27,154.453579901,8.98021971807e-06,155.433083415,0.979513455764,,,,,z,1,0.967153407575,2018_Nov_09_1341,59.9888216649,spanish_cond1,001,1003,
images/cloud.jpg,ceiling fan,x,sounds/animalfarm_spanish.wav,,,,,,,,,0,0,0,1,0,26,26,149,156.60536205,9.94239235297e-06,157.583636872,0.978285084188,,,,,x,1,0.967138333537,2018_Nov_09_1341,59.9888216649,spanish_cond1,001,1003,
images/spoon02b.jpg,spoon,z,sounds/animalfarm_spanish.wav,,,,,,,,,0,0,0,1,0,27,27,38,158.756427062,9.94245056063e-06,159.884230307,1.12781382888,,,,,z,1,1.1171869713,2018_Nov_09_1341,59.9888216649,spanish_cond1,001,1003,
images/drink.jpg,drink,z,sounds/animalfarm_spanish.wav,,,,,,,,,0,0,0,1,0,28,28,117,161.050185234,9.94245056063e-06,162.534918948,1.48474397755,,,,,z,1,1.46727480146,2018_Nov_09_1341,59.9888216649,spanish_cond1,001,1003,
images/camera01a.jpg,bull,x,sounds/animalfarm_spanish.wav,,,,,,,,,0,0,0,1,0,29,29,138,163.718223101,9.3009439297e-06,164.668811773,0.950598293915,,,,,x,1,0.93380841054,2018_Nov_09_1341,59.9888216649,spanish_cond1,001,1003,
images/birthdaycandle.jpg,birthday candle,z,sounds/animalfarm_spanish.wav,,,,,,,,,0,0,0,1,0,30,30,55,165.766206246,9.62166814134e-06,167.80296663,2.03677128773,,,,,z,1,2.01743806584,2018_Nov_09_1341,59.9888216649,spanish_cond1,001,1003,
images/eraser.jpg,eraser,z,sounds/animalfarm_spanish.wav,,,,,,,,,0,0,0,1,0,31,31,110,168.939538459,9.30100213736e-06,170.453626727,1.51409821009,,,,,z,1,1.50060600735,2018_Nov_09_1341,59.9888216649,spanish_cond1,001,1003,
images/honeycomb.jpg,honey comb,z,sounds/animalfarm_spanish.wav,,,,,,,,,0,0,0,1,0,32,32,59,171.677407488,9.621726349e-06,173.254363044,1.57696517807,,,,,z,1,1.56729920855,2018_Nov_09_1341,59.9888216649,spanish_cond1,001,1003,
images/saltshaker03c.jpg,salt shaker,z,sounds/animalfarm_spanish.wav,,,,,,,,,0,0,0,1,0,33,33,63,174.366268339,9.94245056063e-06,176.27184088,1.90558248386,,,,,z,1,1.88407764211,2018_Nov_09_1341,59.9888216649,spanish_cond1,001,1003,
images/pingpongpaddle01c (1).jpg,ping pong paddle,z,sounds/animalfarm_spanish.wav,,,,,,,,,0,0,0,1,0,34,34,10,177.38281351,9.30100213736e-06,178.505724115,1.12292054808,,,,,z,1,1.10051511426,2018_Nov_09_1341,59.9888216649,spanish_cond1,001,1003,
images/ashtray02b.jpg,ashtray,z,sounds/animalfarm_spanish.wav,,,,,,,,,0,0,0,1,0,35,35,43,179.61888376,9.62166814134e-06,180.439566202,0.820692384616,,,,,z,1,0.800442213775,2018_Nov_09_1341,59.9888216649,spanish_cond1,001,1003,
images/paintbrush03a.jpg,paint brush,z,sounds/animalfarm_spanish.wav,,,,,,,,,0,0,0,1,0,36,36,0,181.539146728,9.621726349e-06,182.323383096,0.78424631065,,,,,z,1,0.767101386213,2018_Nov_09_1341,59.9888216649,spanish_cond1,001,1003,
images/volleyball.jpg,volley ball,z,sounds/animalfarm_spanish.wav,,,,,,,,,0,0,0,1,0,37,37,2,183.456169424,9.94245056063e-06,184.523946671,1.06778751034,,,,,z,1,1.05049409083,2018_Nov_09_1341,59.9888216649,spanish_cond1,001,1003,
images/bullet (2).jpg,rubber glove,x,sounds/animalfarm_spanish.wav,,,,,,,,,0,0,0,1,0,38,38,217,185.629333578,9.621726349e-06,186.924578625,1.29525531048,,,,,x,1,1.28387699736,2018_Nov_09_1341,59.9888216649,spanish_cond1,001,1003,
images/bus.jpg,microphone,x,sounds/animalfarm_spanish.wav,,,,,,,,,0,0,0,1,0,39,39,203,188.119414076,9.621726349e-06,189.541919704,1.42251589103,,,,,x,1,1.40059827792,2018_Nov_09_1341,59.9888216649,spanish_cond1,001,1003,
images/swallow.jpg,mattress,x,sounds/animalfarm_spanish.wav,,,,,,,,,0,0,0,1,0,40,40,202,190.643616044,8.98027792573e-06,191.525763571,0.882157469576,,,,,x,1,0.867121944553,2018_Nov_09_1341,59.9888216649,spanish_cond1,001,1003,
images/sportshorts02.jpg,tape,x,sounds/animalfarm_spanish.wav,,,,,,,,,0,0,0,1,0,41,41,230,192.634384975,9.3009439297e-06,193.692990809,1.0586157759,,,,,x,1,1.0338264032,2018_Nov_09_1341,59.9888216649,spanish_cond1,001,1003,
images/microphone01.jpg,diaper,x,sounds/animalfarm_spanish.wav,,,,,,,,,0,0,0,1,0,42,42,164,194.862317825,9.621726349e-06,196.26033107,1.39802318765,,,,,x,1,1.38392353436,2018_Nov_09_1341,59.9888216649,spanish_cond1,001,1003,
images/gorilla.jpg,gorilla,z,sounds/animalfarm_spanish.wav,,,,,,,,,0,0,0,1,0,43,43,80,197.371908585,8.98027792573e-06,198.144144436,0.772245472879,,,,,z,1,0.75041862455,2018_Nov_09_1341,59.9888216649,spanish_cond1,001,1003,
images/lighter02b.jpg,stapler,x,sounds/animalfarm_spanish.wav,,,,,,,,,0,0,0,1,0,44,44,227,199.316027619,1.09045649879e-05,200.444731456,1.12871442089,,,,,x,1,1.11715874763,2018_Nov_09_1341,59.9888216649,spanish_cond1,001,1003,
images/cheetah.jpg,cheetah,z,sounds/animalfarm_spanish.wav,,,,,,,,,0,0,0,1,0,45,45,82,201.622311654,9.30100213736e-06,204.612335545,2.99003383314,,,,,None,0,,2018_Nov_09_1341,59.9888216649,spanish_cond1,001,1003,
images/banana04a.jpg,banana,z,sounds/animalfarm_spanish.wav,,,,,,,,,0,0,0,1,0,46,46,118,205.718539655,9.30100213736e-06,206.996464663,1.27793495019,,,,,z,1,1.26724523073,2018_Nov_09_1341,59.9888216649,spanish_cond1,001,1003,
images/corn01.jpg,corn,z,sounds/animalfarm_spanish.wav,,,,,,,,,0,0,0,1,0,47,47,22,208.096740197,9.3009439297e-06,208.813585469,0.716855214734,,,,,z,1,0.700422938273,2018_Nov_09_1341,59.9888216649,spanish_cond1,001,1003,
images/beachumbrella01.jpg,beach umbrella,z,sounds/animalfarm_spanish.wav,,,,,,,,,0,0,0,1,0,48,48,92,209.996327393,9.94239235297e-06,210.897453743,0.901137895416,,,,,z,1,0.883792518754,2018_Nov_09_1341,59.9888216649,spanish_cond1,001,1003,
images/stapler03a.jpg,candy cane,x,sounds/animalfarm_spanish.wav,,,,,,,,,0,0,0,1,0,49,49,145,212.092651612,9.621726349e-06,212.947974774,0.855333746644,,,,,x,1,0.833768288081,2018_Nov_09_1341,59.9888216649,spanish_cond1,001,1003,
images/nailpolish02b.jpg,nail polish,z,sounds/animalfarm_spanish.wav,,,,,,,,,0,0,0,1,0,50,50,94,214.128214092,8.98027792573e-06,215.031858443,0.903653972549,,,,,z,1,0.883792518696,2018_Nov_09_1341,59.9888216649,spanish_cond1,001,1003,
images/arrow02.jpg,hammer,x,sounds/animalfarm_spanish.wav,,,,,,,,,0,0,0,1,0,51,51,184,216.128934117,8.98027792573e-06,216.965690587,0.836765771324,,,,,x,1,0.817107656389,2018_Nov_09_1341,59.9888216649,spanish_cond1,001,1003,
images/axe01.jpg,axe,z,sounds/animalfarm_spanish.wav,,,,,,,,,0,0,0,1,0,52,52,104,218.069133267,9.30100213736e-06,219.3496401,1.28051677562,,,,,z,1,1.26722085581,2018_Nov_09_1341,59.9888216649,spanish_cond1,001,1003,
images/lettuce.jpg,mushroom,x,sounds/animalfarm_spanish.wav,,,,,,,,,0,0,0,1,0,53,53,205,220.537495001,9.621726349e-06,221.566880343,1.0293956059,,,,,x,1,1.01715647051,2018_Nov_09_1341,59.9888216649,spanish_cond1,001,1003,
images/banjo.jpg,knife,x,sounds/animalfarm_spanish.wav,,,,,,,,,0,0,0,1,0,54,54,191,222.716615634,9.94239235297e-06,223.667423681,0.950818310375,,,,,x,1,0.933797185251,2018_Nov_09_1341,59.9888216649,spanish_cond1,001,1003,
images/umbrella01.jpg,umbrella,z,sounds/animalfarm_spanish.wav,,,,,,,,,0,0,0,1,0,55,55,53,224.780596475,9.62166814134e-06,226.268103808,1.4875175957,,,,,z,1,1.46727736725,2018_Nov_09_1341,59.9888216649,spanish_cond1,001,1003,
images/toothbrush03a.jpg,parrot,x,sounds/animalfarm_spanish.wav,,,,,,,,,0,0,0,1,0,56,56,210,227.361455559,9.62166814134e-06,228.168974541,0.807528923615,,,,,x,1,0.784146886319,2018_Nov_09_1341,59.9888216649,spanish_cond1,001,1003,
images/sock03.jpg,sock,z,sounds/animalfarm_spanish.wav,,,,,,,,,0,0,0,1,0,57,57,90,229.34983959,9.3009439297e-06,230.23579122,0.88596125209,,,,,z,1,0.867115209403,2018_Nov_09_1341,59.9888216649,spanish_cond1,001,1003,
images/envelope02a.jpg,grand piano,x,sounds/animalfarm_spanish.wav,,,,,,,,,0,0,0,1,0,58,58,182,231.421258975,9.94245056063e-06,232.436352551,1.01510319766,,,,,x,1,1.00047467102,2018_Nov_09_1341,59.9888216649,spanish_cond1,001,1003,
images/corkscrew02a.jpg,masquerade mask,x,sounds/animalfarm_spanish.wav,,,,,,,,,0,0,0,1,0,59,59,201,233.599918087,9.621726349e-06,235.087136448,1.48725267797,,,,,x,1,1.46729051694,2018_Nov_09_1341,59.9888216649,spanish_cond1,001,1003,
images/plate01b.jpg,plate,z,sounds/animalfarm_spanish.wav,,,,,,,,,0,0,0,1,0,60,60,3,236.259838118,1.02631747723e-05,237.037570531,0.777742997103,,,,,z,1,0.767106838466,2018_Nov_09_1341,59.9888216649,spanish_cond1,001,1003,
images/basketball01.jpg,basket ball,z,sounds/animalfarm_spanish.wav,,,,,,,,,0,0,0,1,0,61,61,33,238.177242796,9.30100213736e-06,238.8713834,0.694151187199,,,,,z,1,0.683730875666,2018_Nov_09_1341,59.9888216649,spanish_cond1,001,1003,
images/candle08a.jpg,screw driver,x,sounds/animalfarm_spanish.wav,,,,,,,,,0,0,0,1,0,62,62,221,239.985508102,9.621726349e-06,240.755187465,0.769689305394,,,,,x,1,0.750418303825,2018_Nov_09_1341,59.9888216649,spanish_cond1,001,1003,
images/bicycle.jpg,hand bag,x,sounds/animalfarm_spanish.wav,,,,,,,,,0,0,0,1,0,63,63,186,241.939867843,9.94245056063e-06,242.622335709,0.682477808325,,,,,x,1,0.66706158442,2018_Nov_09_1341,59.9888216649,spanish_cond1,001,1003,
images/lamp04b.jpg,parking meter,x,sounds/animalfarm_spanish.wav,,,,,,,,,0,0,0,1,0,64,64,209,243.742876487,9.30100213736e-06,244.322775324,0.579908779764,,,,,x,1,0.567038780893,2018_Nov_09_1341,59.9888216649,spanish_cond1,001,1003,
images/belt02a.jpg,snowman,x,sounds/animalfarm_spanish.wav,,,,,,,,,0,0,0,1,0,65,65,224,245.502738178,9.94245056063e-06,246.206600236,0.703872641956,,,,,x,1,0.683736648643,2018_Nov_09_1341,59.9888216649,spanish_cond1,001,1003,
images/fireextinguisher02.jpg,fire extinguisher,z,sounds/animalfarm_spanish.wav,,,,,,,,,0,0,0,1,0,66,66,175,247.383273748,8.98027792573e-06,248.540549573,1.15728576703,,,,,z,1,1.13386395993,2018_Nov_09_1341,59.9888216649,spanish_cond1,001,1003,
images/button07.jpg,radish,x,sounds/animalfarm_spanish.wav,,,,,,,,,0,0,0,1,0,67,67,215,249.652972836,9.3009439297e-06,250.491039141,0.838075927459,,,,,x,1,0.817101241846,2018_Nov_09_1341,59.9888216649,spanish_cond1,001,1003,
images/pepper05a.jpg,lighter,x,sounds/animalfarm_spanish.wav,,,,,,,,,0,0,0,1,0,68,68,198,251.681636871,9.621726349e-06,252.574925055,0.893298126466,,,,,x,1,0.883796367445,2018_Nov_09_1341,59.9888216649,spanish_cond1,001,1003,
images/ladder.jpg,ladder,z,sounds/animalfarm_spanish.wav,,,,,,,,,0,0,0,1,0,69,69,113,253.738223428,9.62166814134e-06,254.625444162,0.887230355584,,,,,z,1,0.867114888679,2018_Nov_09_1341,59.9888216649,spanish_cond1,001,1003,
images/ant.jpg,ant,z,sounds/animalfarm_spanish.wav,,,,,,,,,0,0,0,1,0,70,70,98,255.795722765,9.94239235297e-06,256.575953936,0.78024175507,,,,,z,1,0.767094009556,2018_Nov_09_1341,59.9888216649,spanish_cond1,001,1003,
images/blackolive.jpg,tank,x,sounds/animalfarm_spanish.wav,,,,,,,,,0,0,0,1,0,71,71,229,257.760456634,9.621726349e-06,258.543125304,0.782678613381,,,,,x,1,0.767075086886,2018_Nov_09_1341,59.9888216649,spanish_cond1,001,1003,
images/icecube02 (2).jpg,aloe,x,sounds/animalfarm_spanish.wav,,,,,,,,,0,0,0,1,0,72,72,122,259.653969966,9.621726349e-06,260.443606358,0.78964633483,,,,,x,1,0.767078614852,2018_Nov_09_1341,59.9888216649,spanish_cond1,001,1003,
images/handbag02a.jpg,candle,x,sounds/animalfarm_spanish.wav,,,,,,,,,0,0,0,1,0,73,73,144,261.624142345,8.98027792573e-06,262.410841229,0.786709147564,,,,,x,1,0.767128326988,2018_Nov_09_1341,59.9888216649,spanish_cond1,001,1003,
images/gps.jpg,gps,z,sounds/animalfarm_spanish.wav,,,,,,,,,0,0,0,1,0,74,74,21,263.595437898,9.621726349e-06,264.394659438,0.799231802754,,,,,z,1,0.783779978461,2018_Nov_09_1341,59.9888216649,spanish_cond1,001,1003,
images/broom02.jpg,broom,z,sounds/animalfarm_spanish.wav,,,,,,,,,0,0,0,1,0,75,75,116,265.488730252,9.621726349e-06,266.728586965,1.2398666559,,,,,x,0,1.21720913332,2018_Nov_09_1341,59.9888216649,spanish_cond1,001,1003,
images/scissors04a.jpg,leek,x,sounds/animalfarm_spanish.wav,,,,,,,,,0,0,0,1,0,76,76,194,267.890076457,9.30100213736e-06,268.929150862,1.03908402607,,,,,x,1,1.01714813168,2018_Nov_09_1341,59.9888216649,spanish_cond1,001,1003,
images/egg01b (1).jpg,egg,z,sounds/animalfarm_spanish.wav,,,,,,,,,0,0,0,1,0,77,77,19,270.099825558,9.94239235297e-06,270.979688571,0.879872634192,,,,,z,1,0.867123868898,2018_Nov_09_1341,59.9888216649,spanish_cond1,001,1003,
images/dreamcatcher.jpg,dream catcher,z,sounds/animalfarm_spanish.wav,,,,,,,,,0,0,0,1,0,78,78,48,272.159734492,9.621726349e-06,273.146921903,0.98719767388,,,,,z,1,0.967148596712,2018_Nov_09_1341,59.9888216649,spanish_cond1,001,1003,
images/cocktailshrimp01.jpg,cocktail shrimp,z,sounds/animalfarm_spanish.wav,,,,,,,,,0,0,0,1,0,79,79,30,274.262423792,9.94245056063e-06,275.014060204,0.751646354736,,,,,z,1,0.733741635922,2018_Nov_09_1341,59.9888216649,spanish_cond1,001,1003,
images/comb02a.jpg,diploma,x,sounds/animalfarm_spanish.wav,,,,,,,,,0,0,0,1,0,80,80,166,276.118903484,9.621726349e-06,276.98125274,0.862359839783,,,,,x,1,0.850456822722,2018_Nov_09_1341,59.9888216649,spanish_cond1,001,1003,
images/aquarium.jpg,computer mouse,x,sounds/animalfarm_spanish.wav,,,,,,,,,0,0,0,1,0,81,81,159,278.189759037,9.94245056063e-06,279.631925987,1.44217753405,,,,,x,1,1.43392691802,2018_Nov_09_1341,59.9888216649,spanish_cond1,001,1003,
images/dolphin01.jpg,dolphin,z,sounds/animalfarm_spanish.wav,,,,,,,,,0,0,0,1,0,82,82,99,280.803468562,9.30100213736e-06,281.549092047,0.74563374836,,,,,z,1,0.733736183611,2018_Nov_09_1341,59.9888216649,spanish_cond1,001,1003,
images/lipstick04.jpg,lipstick,z,sounds/animalfarm_spanish.wav,,,,,,,,,0,0,0,1,0,83,83,56,282.64963314,9.30100213736e-06,283.449586571,0.799963694066,,,,,z,1,0.783747585374,2018_Nov_09_1341,59.9888216649,spanish_cond1,001,1003,
images/broadsword.jpg,teapot,x,sounds/animalfarm_spanish.wav,,,,,,,,,0,0,0,1,0,84,84,231,284.605361409,9.94239235297e-06,285.41676275,0.811411283503,,,,,x,1,0.800433874945,2018_Nov_09_1341,59.9888216649,spanish_cond1,001,1003,
images/8ball.jpg,nail clipper,x,sounds/animalfarm_spanish.wav,,,,,,,,,0,0,0,1,0,85,85,206,286.595483441,9.30100213736e-06,287.684009584,1.08853576501,,,,,x,1,1.06716306135,2018_Nov_09_1341,59.9888216649,spanish_cond1,001,1003,
images/pineapple01a.jpg,pineapple,z,sounds/animalfarm_spanish.wav,,,,,,,,,0,0,0,1,0,86,86,51,288.797480652,9.621726349e-06,289.60119136,0.803720971744,,,,,z,1,0.783775167598,2018_Nov_09_1341,59.9888216649,spanish_cond1,001,1003,
images/lollipop03b.jpg,lollipop,z,sounds/animalfarm_spanish.wav,,,,,,,,,0,0,0,1,0,87,87,42,290.769120021,9.3009439297e-06,291.518353572,0.749242851627,,,,,z,1,0.733749333303,2018_Nov_09_1341,59.9888216649,spanish_cond1,001,1003,
images/bat.jpg,hand,x,sounds/animalfarm_spanish.wav,,,,,,,,,0,0,0,1,0,88,88,185,292.685821032,9.621726349e-06,293.75227369,1.06646292162,,,,,x,1,1.05050275038,2018_Nov_09_1341,59.9888216649,spanish_cond1,001,1003,
images/electrictoothbrush01a.jpg,banjo,x,sounds/animalfarm_spanish.wav,,,,,,,,,0,0,0,1,0,89,89,127,294.873709608,9.94245056063e-06,296.102859604,1.2291602589,,,,,x,1,1.21720271884,2018_Nov_09_1341,59.9888216649,spanish_cond1,001,1003,
images/bowl02b (1).jpg,bowl,z,sounds/animalfarm_spanish.wav,,,,,,,,,0,0,0,1,0,90,90,24,297.242418333,9.94239235297e-06,298.203408394,0.961000324227,,,,,z,1,0.950463589979,2018_Nov_09_1341,59.9888216649,spanish_cond1,001,1003,
images/remotecontrol01c.jpg,remote control,z,sounds/animalfarm_spanish.wav,,,,,,,,,0,0,0,1,0,91,91,85,299.425643909,9.621726349e-06,300.570689258,1.14505561191,,,,,z,1,1.13385530037,2018_Nov_09_1341,59.9888216649,spanish_cond1,001,1003,
images/mailbox01.jpg,mail box,z,sounds/animalfarm_spanish.wav,,,,,,,,,0,0,0,1,0,92,92,73,301.762829347,9.621726349e-06,304.754961675,2.99214259116,,,,,None,0,,2018_Nov_09_1341,59.9888216649,spanish_cond1,001,1003,
images/toucan.jpg,toucan,z,sounds/animalfarm_spanish.wav,,,,,,,,,0,0,0,1,0,93,93,81,305.931874447,9.62166814134e-06,307.189070764,1.25720593886,,,,,z,1,1.23387938674,2018_Nov_09_1341,59.9888216649,spanish_cond1,001,1003,
images/bandaid01.jpg,door handle,x,sounds/animalfarm_spanish.wav,,,,,,,,,0,0,0,1,0,94,94,170,308.296808896,9.621726349e-06,309.256294122,0.959496130352,,,,,x,1,0.950488927192,2018_Nov_09_1341,59.9888216649,spanish_cond1,001,1003,
images/coffeepot03b.jpg,coffee pot,z,sounds/animalfarm_spanish.wav,,,,,,,,,0,0,0,1,0,95,95,107,310.448797591,9.621726349e-06,311.306820926,0.858034239849,,,,,z,1,0.833788172924,2018_Nov_09_1341,59.9888216649,spanish_cond1,001,1003,
images/nailclipper03a.jpg,aquarium,x,sounds/animalfarm_spanish.wav,,,,,,,,,0,0,0,1,0,96,96,123,312.407036485,9.94245056063e-06,313.407361057,1.00033483549,,,,,x,1,0.983802493254,2018_Nov_09_1341,59.9888216649,spanish_cond1,001,1003,
images/djmixer01.jpg,light bulb,x,sounds/animalfarm_spanish.wav,,,,,,,,,0,0,0,1,0,97,97,196,314.529340281,9.62166814134e-06,315.557929908,1.02859956975,,,,,z,0,1.01717218594,2018_Nov_09_1341,59.9888216649,spanish_cond1,001,1003,
images/lip.jpg,boxing glove,x,sounds/animalfarm_spanish.wav,,,,,,,,,0,0,0,1,0,98,98,136,316.661116971,9.94245056063e-06,317.641794975,0.980688907963,,,,,x,1,0.967154049024,2018_Nov_09_1341,59.9888216649,spanish_cond1,001,1003,
images/apple06.jpg,apple,z,sounds/animalfarm_spanish.wav,,,,,,,,,0,0,0,1,0,99,99,13,318.885692165,9.94245056063e-06,319.642291776,0.756609553297,,,,,z,1,0.733737466508,2018_Nov_09_1341,59.9888216649,spanish_cond1,001,1003,
images/knife04.jpg,tooth brush,x,sounds/animalfarm_spanish.wav,,,,,,,,,0,0,0,1,0,100,100,233,320.812014885,9.94245056063e-06,323.809895223,2.99789092125,,,,,None,0,,2018_Nov_09_1341,59.9888216649,spanish_cond1,001,1003,
images/diaper01a.jpg,camera,x,sounds/animalfarm_spanish.wav,,,,,,,,,0,0,0,1,0,101,101,143,324.993994129,9.621726349e-06,327.077594278,2.08361041185,,,,,x,1,2.06744529813,2018_Nov_09_1341,59.9888216649,spanish_cond1,001,1003,
images/glasses01b.jpg,calculator,x,sounds/animalfarm_spanish.wav,,,,,,,,,0,0,0,1,0,102,102,142,328.170864886,9.94245056063e-06,329.994980675,1.82412669354,,,,,x,1,1.80068532232,2018_Nov_09_1341,59.9888216649,spanish_cond1,001,1003,
images/hanger02a.jpg,hanger,z,sounds/animalfarm_spanish.wav,,,,,,,,,0,0,0,1,0,103,103,88,331.118559989,9.621726349e-06,331.812112706,0.693562980043,,,,,z,1,0.68372510263,2018_Nov_09_1341,59.9888216649,spanish_cond1,001,1003,
images/showerhead01.jpg,skateboard,x,sounds/animalfarm_spanish.wav,,,,,,,,,0,0,0,1,0,104,104,223,332.920578239,9.94245056063e-06,333.946017719,1.0254497428,,,,,x,1,1.00049519731,2018_Nov_09_1341,59.9888216649,spanish_cond1,001,1003,
images/aloe02.jpg,broad sword,x,sounds/animalfarm_spanish.wav,,,,,,,,,0,0,0,1,0,105,105,137,335.067292634,9.621726349e-06,335.879842165,0.812559474201,,,,,x,1,0.80042585684,2018_Nov_09_1341,59.9888216649,spanish_cond1,001,1003,
images/dryingmachine01.jpg,drying machine,z,sounds/animalfarm_spanish.wav,,,,,,,,,0,0,0,1,0,106,106,18,337.07122214,9.621726349e-06,337.880356927,0.809145050182,,,,,z,1,0.800417518069,2018_Nov_09_1341,59.9888216649,spanish_cond1,001,1003,
images/hairband.jpg,hairband,z,sounds/animalfarm_spanish.wav,,,,,,,,,0,0,0,1,0,107,107,66,339.061900307,1.02631747723e-05,340.147623967,1.08573392319,,,,,z,1,1.06716402352,2018_Nov_09_1341,59.9888216649,spanish_cond1,001,1003,
images/diploma01.jpg,glasses,x,sounds/animalfarm_spanish.wav,,,,,,,,,0,0,0,1,0,108,108,179,341.279003281,9.621726349e-06,342.164811227,0.885819812946,,,,,x,1,0.86710815347,2018_Nov_09_1341,59.9888216649,spanish_cond1,001,1003,
images/peach01.jpg,peach,z,sounds/animalfarm_spanish.wav,,,,,,,,,0,0,0,1,0,109,109,106,343.294254973,9.621726349e-06,344.7821584,1.48791304801,,,,,z,1,1.46727704653,2018_Nov_09_1341,59.9888216649,spanish_cond1,001,1003,
images/grandpiano.jpg,tulip,x,sounds/animalfarm_spanish.wav,,,,,,,,,0,0,0,1,0,110,110,236,345.963908005,9.94239235297e-06,346.866031805,0.902134383854,,,,,x,1,0.883769426611,2018_Nov_09_1341,59.9888216649,spanish_cond1,001,1003,
images/bowlingball.jpg,bowling ball,z,sounds/animalfarm_spanish.wav,,,,,,,,,0,0,0,1,0,111,111,20,348.064334279,1.02631747723e-05,349.450041037,1.38571734179,,,,,z,1,1.36725296022,2018_Nov_09_1341,59.9888216649,spanish_cond1,001,1003,
images/rubberglove02a.jpg,lady bug,x,sounds/animalfarm_spanish.wav,,,,,,,,,0,0,0,1,0,112,112,192,350.554989193,9.621726349e-06,352.000684745,1.44570581493,,,,,x,1,1.43393493613,2018_Nov_09_1341,59.9888216649,spanish_cond1,001,1003,
images/lychee02a.jpg,lychee,z,sounds/animalfarm_spanish.wav,,,,,,,,,0,0,0,1,0,113,113,62,353.189628182,9.30100213736e-06,354.267953709,1.07833546988,,,,,z,1,1.06717204157,2018_Nov_09_1341,59.9888216649,spanish_cond1,001,1003,
images/giraffe.jpg,lettuce,x,sounds/animalfarm_spanish.wav,,,,,,,,,0,0,0,1,0,114,114,195,355.369751397,9.621726349e-06,356.218466049,0.848725556454,,,,,x,1,0.833778551256,2018_Nov_09_1341,59.9888216649,spanish_cond1,001,1003,
images/ear.jpg,bullet,x,sounds/animalfarm_spanish.wav,,,,,,,,,0,0,0,1,0,115,115,139,357.397313106,1.02631165646e-05,358.469050328,1.07174748526,,,,,x,1,1.05050307111,2018_Nov_09_1341,59.9888216649,spanish_cond1,001,1003,
images/computerkeyboard01a.jpg,computer keyboard,z,sounds/animalfarm_spanish.wav,,,,,,,,,0,0,0,1,0,116,116,61,359.586830958,9.94245056063e-06,360.519576812,0.932755474816,,,,,z,1,0.917150665424,2018_Nov_09_1341,59.9888216649,spanish_cond1,001,1003,
images/pipe.jpg,icecube,x,sounds/animalfarm_spanish.wav,,,,,,,,,0,0,0,1,0,117,117,188,361.700608958,9.62166814134e-06,363.020225154,1.31962678029,,,,,z,0,1.300565532,2018_Nov_09_1341,59.9888216649,spanish_cond1,001,1003,
images/hairdryer03a.jpg,hairdryer,z,sounds/animalfarm_spanish.wav,,,,,,,,,0,0,0,1,0,118,118,119,364.120099463,9.30100213736e-06,364.954052808,0.833962967328,,,,,z,1,0.817118240229,2018_Nov_09_1341,59.9888216649,spanish_cond1,001,1003,
images/magnifyingglass01b.jpg,magnifying glass,z,sounds/animalfarm_spanish.wav,,,,,,,,,0,0,0,1,0,119,119,64,366.061300874,9.621726349e-06,367.087947558,1.02665694657,,,,,z,1,1.01716448861,2018_Nov_09_1341,59.9888216649,spanish_cond1,001,1003,
images/panda.jpg,panda,z,sounds/animalfarm_spanish.wav,,,,,,,,,0,0,0,1,0,120,120,83,368.275430098,9.94239235297e-06,368.921749201,0.646330007294,,,,,z,1,0.633733585768,2018_Nov_09_1341,59.9888216649,spanish_cond1,001,1003,
images/desktopcomputer.jpg,desktop computer,z,sounds/animalfarm_spanish.wav,,,,,,,,,0,0,0,1,0,121,121,16,370.057734427,9.94245056063e-06,370.938950894,0.881226729485,,,,,x,0,0.867123548232,2018_Nov_09_1341,59.9888216649,spanish_cond1,001,1003,
images/sunglasses03a.jpg,sun glasses,z,sounds/animalfarm_spanish.wav,,,,,,,,,0,0,0,1,0,122,122,17,372.047723359,9.3009439297e-06,372.806084705,0.75837160903,,,,,z,1,0.733759917202,2018_Nov_09_1341,59.9888216649,spanish_cond1,001,1003,
images/seagull.jpg,seagull,z,sounds/animalfarm_spanish.wav,,,,,,,,,0,0,0,1,0,123,123,50,373.914167615,9.621726349e-06,374.940131157,1.02597412595,,,,,z,1,1.01727674191,2018_Nov_09_1341,59.9888216649,spanish_cond1,001,1003,
images/tulip02.jpg,sport shorts,x,sounds/animalfarm_spanish.wav,,,,,,,,,0,0,0,1,0,124,124,225,376.03538961,9.30100213736e-06,377.140563236,1.10518420924,,,,,x,1,1.08386731148,2018_Nov_09_1341,59.9888216649,spanish_cond1,001,1003,
images/leek.jpg,donut,x,sounds/animalfarm_spanish.wav,,,,,,,,,0,0,0,1,0,125,125,169,378.317618729,9.30100213736e-06,379.074380947,0.756772480905,,,,,x,1,0.733741315198,2018_Nov_09_1341,59.9888216649,spanish_cond1,001,1003,
images/tissuebox03.jpg,tissue box,z,sounds/animalfarm_spanish.wav,,,,,,,,,0,0,0,1,0,126,126,58,380.200304752,1.02631165646e-05,381.158268464,0.957973975805,,,,,z,1,0.933831182017,2018_Nov_09_1341,59.9888216649,spanish_cond1,001,1003,
images/grasshopper.jpg,cauliflower,x,sounds/animalfarm_spanish.wav,,,,,,,,,0,0,0,1,0,127,127,148,382.252210668,9.94239235297e-06,383.175452517,0.923252753622,,,,,x,1,0.900471111003,2018_Nov_09_1341,59.9888216649,spanish_cond1,001,1003,
images/squirrel.jpg,binder,x,sounds/animalfarm_spanish.wav,,,,,,,,,0,0,0,1,0,128,128,132,384.355438463,9.621726349e-06,385.292501898,0.937074339541,,,,,x,1,0.916971380881,2018_Nov_09_1341,59.9888216649,spanish_cond1,001,1003,
images/printer03a.jpg,printer,z,sounds/animalfarm_spanish.wav,,,,,,,,,0,0,0,1,0,129,129,72,386.472573798,9.62166814134e-06,387.409890604,0.937327390537,,,,,x,0,0.91714809963,2018_Nov_09_1341,59.9888216649,spanish_cond1,001,1003,
images/handfan01b.jpg,handfan,z,sounds/animalfarm_spanish.wav,,,,,,,,,0,0,0,1,0,130,130,69,388.524733727,9.30100213736e-06,389.527101309,1.00237784517,,,,,z,1,0.983828471857,2018_Nov_09_1341,59.9888216649,spanish_cond1,001,1003,
images/lantern03.jpg,lantern,z,sounds/animalfarm_spanish.wav,,,,,,,,,0,0,0,1,0,131,131,5,390.635030271,9.94245056063e-06,391.560948239,0.925928551122,,,,,z,1,0.917143288709,2018_Nov_09_1341,59.9888216649,spanish_cond1,001,1003,
images/notebook02b.jpg,notebook,z,sounds/animalfarm_spanish.wav,,,,,,,,,0,0,0,1,0,132,132,7,392.740134941,9.3009439297e-06,393.578148969,0.838023970195,,,,,z,1,0.817112146469,2018_Nov_09_1341,59.9888216649,spanish_cond1,001,1003,
images/swan.jpg,swan,z,sounds/animalfarm_spanish.wav,,,,,,,,,0,0,0,1,0,133,133,54,394.734888223,9.94245056063e-06,396.245500488,1.51062316925,,,,,z,1,1.50063166529,2018_Nov_09_1341,59.9888216649,spanish_cond1,001,1003,
images/marker01a.jpg,marker,z,sounds/animalfarm_spanish.wav,,,,,,,,,0,0,0,1,0,134,134,95,397.382850072,9.621726349e-06,398.129334059,0.746493929182,,,,,z,1,0.733772746113,2018_Nov_09_1341,59.9888216649,spanish_cond1,001,1003,
images/hairpin.jpg,hair pin,z,sounds/animalfarm_spanish.wav,,,,,,,,,0,0,0,1,0,135,135,28,399.221157883,9.30100213736e-06,400.0798557,0.858708400978,,,,,z,1,0.850481518486,2018_Nov_09_1341,59.9888216649,spanish_cond1,001,1003,
images/doorhandle.jpg,doll,x,sounds/animalfarm_spanish.wav,,,,,,,,,0,0,0,1,0,136,136,168,401.25828325,9.3009439297e-06,402.363590617,1.10531763028,,,,,x,1,1.0836630105,2018_Nov_09_1341,59.9888216649,spanish_cond1,001,1003,
images/fryingpan01.jpg,frying pan,z,sounds/animalfarm_spanish.wav,,,,,,,,,0,0,0,1,0,137,137,45,403.497252521,9.30100213736e-06,404.897747526,1.40050526801,,,,,z,1,1.38393283536,2018_Nov_09_1341,59.9888216649,spanish_cond1,001,1003,
images/flower01.jpg,bus,x,sounds/animalfarm_spanish.wav,,,,,,,,,0,0,0,1,0,138,138,140,406.012831512,9.62166814134e-06,407.014952458,1.00213120866,,,,,x,1,0.983819491579,2018_Nov_09_1341,59.9888216649,spanish_cond1,001,1003,
images/highheelshoe02a.jpg,high heel shoe,z,sounds/animalfarm_spanish.wav,,,,,,,,,0,0,0,1,0,139,139,75,408.19660777,9.30100213736e-06,409.082162024,0.885564196215,,,,,z,1,0.867124189623,2018_Nov_09_1341,59.9888216649,spanish_cond1,001,1003,
images/carrot02.jpg,corkscrew,x,sounds/animalfarm_spanish.wav,,,,,,,,,0,0,0,1,0,140,140,161,410.256451597,9.621726349e-06,411.166036712,0.909595057543,,,,,x,1,0.900463734346,2018_Nov_09_1341,59.9888216649,spanish_cond1,001,1003,
images/donut.jpg,rhinoceros,x,sounds/animalfarm_spanish.wav,,,,,,,,,0,0,0,1,0,141,141,216,412.363767335,9.94239235297e-06,413.333261064,0.969504311972,,,,,x,1,0.950476418948,2018_Nov_09_1341,59.9888216649,spanish_cond1,001,1003,
images/nametag01a.jpg,name tag,z,sounds/animalfarm_spanish.wav,,,,,,,,,0,0,0,1,0,142,142,108,414.554487902,9.30100213736e-06,415.567181182,1.01270322251,,,,,z,1,1.00051059207,2018_Nov_09_1341,59.9888216649,spanish_cond1,001,1003,
images/dice05a.jpg,band aid,x,sounds/animalfarm_spanish.wav,,,,,,,,,0,0,0,1,0,143,143,126,416.729238355,9.94245056063e-06,417.717866136,0.988638043811,,,,,x,1,0.967294846661,2018_Nov_09_1341,59.9888216649,spanish_cond1,001,1003,
images/safe.jpg,safe,z,sounds/animalfarm_spanish.wav,,,,,,,,,0,0,0,1,0,144,144,78,418.828842935,9.62166814134e-06,419.634879852,0.806049104664,,,,,z,1,0.783768753114,2018_Nov_09_1341,59.9888216649,spanish_cond1,001,1003,
images/teapot.jpg,light switch,x,sounds/animalfarm_spanish.wav,,,,,,,,,0,0,0,1,0,145,145,197,420.824633437,9.30100213736e-06,421.902147213,1.0775237183,,,,,x,1,1.06718198408,2018_Nov_09_1341,59.9888216649,spanish_cond1,001,1003,
images/lightbulb03b.jpg,treadmill,x,sounds/animalfarm_spanish.wav,,,,,,,,,0,0,0,1,0,146,146,234,423.004794498,9.94245056063e-06,425.986553019,2.9817691053,,,,,x,1,2.96769478911,2018_Nov_09_1341,59.9888216649,spanish_cond1,001,1003,
images/doll.jpg,carrot,x,sounds/animalfarm_spanish.wav,,,,,,,,,0,0,0,1,0,147,147,146,427.16553959,8.98027792573e-06,427.953712521,0.788182872755,,,,,x,1,0.767104914179,2018_Nov_09_1341,59.9888216649,spanish_cond1,001,1003,
images/chameleon.jpg,50 dollar bill,x,sounds/animalfarm_spanish.wav,,,,,,,,,0,0,0,1,0,148,148,120,429.190306512,9.3009439297e-06,430.020934274,0.830637704465,,,,,x,1,0.817132672761,2018_Nov_09_1341,59.9888216649,spanish_cond1,001,1003,
images/lily.jpg,kiwi,x,sounds/animalfarm_spanish.wav,,,,,,,,,0,0,0,1,0,149,149,190,431.194162573,9.94245056063e-06,431.888073538,0.693920907623,,,,,x,1,0.683751081233,2018_Nov_09_1341,59.9888216649,spanish_cond1,001,1003,
images/daisy.jpg,daisy,z,sounds/animalfarm_spanish.wav,,,,,,,,,0,0,0,1,0,150,150,6,432.990891448,9.62166814134e-06,433.638528725,0.647647219361,,,,,z,1,0.63373903808,2018_Nov_09_1341,59.9888216649,spanish_cond1,001,1003,
images/kiwi03.jpg,backpack,x,sounds/animalfarm_spanish.wav,,,,,,,,,0,0,0,1,0,151,151,125,434.839044513,9.30100213736e-06,435.622370988,0.783336738357,,,,,x,1,0.767100103316,2018_Nov_09_1341,59.9888216649,spanish_cond1,001,1003,
images/snowman.jpg,globe,x,sounds/animalfarm_spanish.wav,,,,,,,,,0,0,0,1,0,152,152,180,436.808237402,8.98021971807e-06,437.772905201,0.964677100244,,,,,x,1,0.950472249533,2018_Nov_09_1341,59.9888216649,spanish_cond1,001,1003,
images/orange.jpg,bat,x,sounds/animalfarm_spanish.wav,,,,,,,,,0,0,0,1,0,153,153,128,438.89797107,9.30100213736e-06,439.573383978,0.675422850065,,,,,x,1,0.650403839187,2018_Nov_09_1341,59.9888216649,spanish_cond1,001,1003,
images/parkbench03.jpg,park bench,z,sounds/animalfarm_spanish.wav,,,,,,,,,0,0,0,1,0,154,154,71,440.680036781,9.30100213736e-06,441.523917806,0.843891288794,,,,,z,1,0.833805491973,2018_Nov_09_1341,59.9888216649,spanish_cond1,001,1003,
images/mirror02.jpg,8 ball,x,sounds/animalfarm_spanish.wav,,,,,,,,,0,0,0,1,0,155,155,121,442.626892229,1.02631747723e-05,444.024547226,1.39766558079,,,,,x,1,1.38393379748,2018_Nov_09_1341,59.9888216649,spanish_cond1,001,1003,
images/tie01.jpg,bench,x,sounds/animalfarm_spanish.wav,,,,,,,,,0,0,0,1,0,156,156,130,445.194696578,9.30100213736e-06,446.408530415,1.21384442144,,,,,x,1,1.20058313973,2018_Nov_09_1341,59.9888216649,spanish_cond1,001,1003,
images/cactus.jpg,cactus,z,sounds/animalfarm_spanish.wav,,,,,,,,,0,0,0,1,0,157,157,70,447.592117446,9.621726349e-06,448.409026575,0.816919712292,,,,,z,1,0.800460815779,2018_Nov_09_1341,59.9888216649,spanish_cond1,001,1003,
images/computermouse02a.jpg,world map,x,sounds/animalfarm_spanish.wav,,,,,,,,,0,0,0,1,0,158,158,239,449.511680274,9.94245056063e-06,451.026549825,1.51487981359,,,,,z,0,1.50080774253,2018_Nov_09_1341,59.9888216649,spanish_cond1,001,1003,
images/lock02a.jpg,lock,z,sounds/animalfarm_spanish.wav,,,,,,,,,0,0,0,1,0,159,159,65,452.136480424,9.30100213736e-06,452.926861857,0.790391055169,,,,,z,1,0.767119025986,2018_Nov_09_1341,59.9888216649,spanish_cond1,001,1003,
images/calculator02b.jpg,dice,x,sounds/animalfarm_spanish.wav,,,,,,,,,0,0,0,1,0,160,160,165,454.029209586,9.30100213736e-06,454.877363613,0.848164610798,,,,,x,1,0.83379394596,2018_Nov_09_1341,59.9888216649,spanish_cond1,001,1003,
images/gluestick.jpg,squirrel,x,sounds/animalfarm_spanish.wav,,,,,,,,,0,0,0,1,0,161,161,226,456.058906352,9.94245056063e-06,456.727840962,0.668944873731,,,,,x,1,0.650407687877,2018_Nov_09_1341,59.9888216649,spanish_cond1,001,1003,
images/butterfly.jpg,butterfly,z,sounds/animalfarm_spanish.wav,,,,,,,,,0,0,0,1,0,162,162,91,457.919413371,9.30100213736e-06,459.045113951,1.12571084389,,,,,z,1,1.11720429035,2018_Nov_09_1341,59.9888216649,spanish_cond1,001,1003,
images/eyedrops.jpg,bicycle,x,sounds/animalfarm_spanish.wav,,,,,,,,,0,0,0,1,0,163,163,131,460.147688432,8.98027792573e-06,460.995733092,0.848054923292,,,,,x,1,0.833908764995,2018_Nov_09_1341,59.9888216649,spanish_cond1,001,1003,
images/candycane01a.jpg,lip,x,sounds/animalfarm_spanish.wav,,,,,,,,,0,0,0,1,0,164,164,200,462.168780503,9.94245056063e-06,463.079501621,0.910732022894,,,,,x,1,0.90049195796,2018_Nov_09_1341,59.9888216649,spanish_cond1,001,1003,
images/bottleofredwine02.jpg,pipe,x,sounds/animalfarm_spanish.wav,,,,,,,,,0,0,0,1,0,165,165,213,464.177103602,8.98027792573e-06,465.296751166,1.11965782638,,,,,x,1,1.10055103531,2018_Nov_09_1341,59.9888216649,spanish_cond1,001,1003,
images/cola.jpg,comb,x,sounds/animalfarm_spanish.wav,,,,,,,,,0,0,0,1,0,166,166,157,466.48436841,9.94245056063e-06,467.513985315,1.02962716838,,,,,x,1,1.01718950499,2018_Nov_09_1341,59.9888216649,spanish_cond1,001,1003,
images/floorlamp.jpg,floor lamp,z,sounds/animalfarm_spanish.wav,,,,,,,,,0,0,0,1,0,167,167,26,468.658285944,9.94245056063e-06,469.531151728,0.872876047681,,,,,z,1,0.850456181332,2018_Nov_09_1341,59.9888216649,spanish_cond1,001,1003,
images/candy.jpg,candy,z,sounds/animalfarm_spanish.wav,,,,,,,,,0,0,0,1,0,168,168,31,470.63366463,9.621726349e-06,471.381655056,0.748000368185,,,,,z,1,0.733784612908,2018_Nov_09_1341,59.9888216649,spanish_cond1,001,1003,
images/paperclip04.jpg,eye drops,x,sounds/animalfarm_spanish.wav,,,,,,,,,0,0,0,1,0,169,169,174,472.487649734,8.98027792573e-06,473.865625127,1.37798533589,,,,,x,1,1.36727316579,2018_Nov_09_1341,59.9888216649,spanish_cond1,001,1003,
images/graduationcap.jpg,graduation cap,z,sounds/animalfarm_spanish.wav,,,,,,,,,0,0,0,1,0,170,170,35,475.047726246,9.3009439297e-06,475.899467567,0.851750942646,,,,,z,1,0.833786890085,2018_Nov_09_1341,59.9888216649,spanish_cond1,001,1003,
images/blueberry02.jpg,blueberry,z,sounds/animalfarm_spanish.wav,,,,,,,,,0,0,0,1,0,171,171,46,477.086936958,9.94245056063e-06,478.466818732,1.37989203801,,,,,z,1,1.36727509013,2018_Nov_09_1341,59.9888216649,spanish_cond1,001,1003,
images/licenseplate.jpg,license plate,z,sounds/animalfarm_spanish.wav,,,,,,,,,0,0,0,1,0,172,172,40,479.671833311,9.621726349e-06,480.500677208,0.828854480991,,,,,z,1,0.817130427749,2018_Nov_09_1341,59.9888216649,spanish_cond1,001,1003,
images/beermug01b.jpg,beer mug,z,sounds/animalfarm_spanish.wav,,,,,,,,,0,0,0,1,0,173,173,111,481.691157232,9.94245056063e-06,482.534536325,0.843389356276,,,,,z,1,0.833799077547,2018_Nov_09_1341,59.9888216649,spanish_cond1,001,1003,
images/parkfountain.jpg,park fountain,z,sounds/animalfarm_spanish.wav,,,,,,,,,0,0,0,1,0,174,174,93,483.655486026,9.94239235297e-06,484.968490825,1.31301538285,,,,,z,1,1.300574833,2018_Nov_09_1341,59.9888216649,spanish_cond1,001,1003,
images/flamingo.jpg,flamingo,z,sounds/animalfarm_spanish.wav,,,,,,,,,0,0,0,1,0,175,175,52,486.06747705,9.621726349e-06,486.802282847,0.734816060169,,,,,z,1,0.717079079885,2018_Nov_09_1341,59.9888216649,spanish_cond1,001,1003,
images/boxingglove02a.jpg,bracelet,x,sounds/animalfarm_spanish.wav,,,,,,,,,0,0,0,1,0,176,176,135,487.987485684,9.30100213736e-06,489.16958584,1.1821107401,,,,,x,1,1.16721825785,2018_Nov_09_1341,59.9888216649,spanish_cond1,001,1003,
images/triangleruler02.jpg,bottle of red wine,x,sounds/animalfarm_spanish.wav,,,,,,,,,0,0,0,1,0,177,177,134,490.281507812,9.621726349e-06,491.1867731,0.905275551369,,,,,x,1,0.883809196355,2018_Nov_09_1341,59.9888216649,spanish_cond1,001,1003,
images/cauliflower01.jpg,glue stick,x,sounds/animalfarm_spanish.wav,,,,,,,,,0,0,0,1,0,178,178,181,492.371915961,1.02631165646e-05,493.420681993,1.04877693637,,,,,x,1,1.03383474197,2018_Nov_09_1341,59.9888216649,spanish_cond1,001,1003,
images/pictureframe04.jpg,picture frame,z,sounds/animalfarm_spanish.wav,,,,,,,,,0,0,0,1,0,179,179,41,494.542869688,9.30100213736e-06,495.83797971,1.29511964438,,,,,z,1,1.28388437396,2018_Nov_09_1341,59.9888216649,spanish_cond1,001,1003,
images/mattress.jpg,cat,x,sounds/animalfarm_spanish.wav,,,,,,,,,0,0,0,1,0,180,180,147,496.942710416,9.94239235297e-06,497.855164405,0.91246393061,,,,,x,1,0.900459885655,2018_Nov_09_1341,59.9888216649,spanish_cond1,001,1003,
images/barrel01.jpg,barrel,z,sounds/animalfarm_spanish.wav,,,,,,,,,0,0,0,1,0,181,181,9,499.05449159,9.621726349e-06,502.056100982,3.0016199752,,,,,None,0,,2018_Nov_09_1341,59.9888216649,spanish_cond1,001,1003,
images/redfox.jpg,red fox,z,sounds/animalfarm_spanish.wav,,,,,,,,,0,0,0,1,0,182,182,1,503.198024406,9.62166814134e-06,504.040103927,0.842089783982,,,,,z,1,0.833786248579,2018_Nov_09_1341,59.9888216649,spanish_cond1,001,1003,
images/hand01a.jpg,cupcake,x,sounds/animalfarm_spanish.wav,,,,,,,,,0,0,0,1,0,183,183,163,505.221451666,9.30100213736e-06,505.957268705,0.735826660413,,,,,x,1,0.717097361106,2018_Nov_09_1341,59.9888216649,spanish_cond1,001,1003,
images/shotglass.jpg,shot glass,z,sounds/animalfarm_spanish.wav,,,,,,,,,0,0,0,1,0,184,184,86,507.066699936,9.621726349e-06,508.624618299,1.55792894622,,,,,z,1,1.53396575764,2018_Nov_09_1341,59.9888216649,spanish_cond1,001,1003,
images/ceilingfan02.jpg,paper clip,x,sounds/animalfarm_spanish.wav,,,,,,,,,0,0,0,1,0,185,185,208,509.793600216,9.94245056063e-06,510.725164203,0.93157489103,,,,,x,1,0.917139119352,2018_Nov_09_1341,59.9888216649,spanish_cond1,001,1003,
images/dresser02.jpg,dresser,z,sounds/animalfarm_spanish.wav,,,,,,,,,0,0,0,1,0,186,186,87,511.94341665,9.94239235297e-06,512.775703836,0.832297449349,,,,,z,1,0.817126899725,2018_Nov_09_1341,59.9888216649,spanish_cond1,001,1003,
images/cupcake.jpg,scissors,x,sounds/animalfarm_spanish.wav,,,,,,,,,0,0,0,1,0,187,187,219,513.974721203,9.621726349e-06,514.726198536,0.751487275818,,,,,x,1,0.733761520823,2018_Nov_09_1341,59.9888216649,spanish_cond1,001,1003,
images/acousticguitar02.jpg,acoustic guitar,z,sounds/animalfarm_spanish.wav,,,,,,,,,0,0,0,1,0,188,188,97,515.839748501,9.30100213736e-06,516.610188621,0.770449741161,,,,,z,1,0.750601757783,2018_Nov_09_1341,59.9888216649,spanish_cond1,001,1003,
images/ladybug03.jpg,giraffe,x,sounds/animalfarm_spanish.wav,,,,,,,,,0,0,0,1,0,189,189,178,517.79518844,9.62166814134e-06,518.893947913,1.09876973613,,,,,x,1,1.08385063388,2018_Nov_09_1341,59.9888216649,spanish_cond1,001,1003,
images/screwdriver02b.jpg,cola,x,sounds/animalfarm_spanish.wav,,,,,,,,,0,0,0,1,0,190,190,158,520.01604805,8.98021971807e-06,523.011524242,2.99548581452,,,,,None,0,,2018_Nov_09_1341,59.9888216649,spanish_cond1,001,1003,
images/medal01.jpg,medal,z,sounds/animalfarm_spanish.wav,,,,,,,,,0,0,0,1,0,191,191,115,524.187612754,1.05838989839e-05,525.929118148,1.74151661876,,,,,z,1,1.71736452391,2018_Nov_09_1341,59.9888216649,spanish_cond1,001,1003,
images/chessknight02b (1).jpg,cockroach,x,sounds/animalfarm_spanish.wav,,,,,,,,,0,0,0,1,0,192,192,155,527.110171462,9.94245056063e-06,528.046337512,0.936177596275,,,,,x,1,0.917162852886,2018_Nov_09_1341,59.9888216649,spanish_cond1,001,1003,
images/table02.jpg,table,z,sounds/animalfarm_spanish.wav,,,,,,,,,0,0,0,1,0,193,193,49,529.231202306,9.621726349e-06,529.963483687,0.73229132354,,,,,z,1,0.717093512416,2018_Nov_09_1341,59.9888216649,spanish_cond1,001,1003,
images/croissant02b.jpg,croissant,z,sounds/animalfarm_spanish.wav,,,,,,,,,0,0,0,1,0,194,194,39,531.162470265,9.94245056063e-06,532.197401561,1.03494155937,,,,,z,1,1.01717635535,2018_Nov_09_1341,59.9888216649,spanish_cond1,001,1003,
images/tent.jpg,tent,z,sounds/animalfarm_spanish.wav,,,,,,,,,0,0,0,1,0,195,195,11,533.406978754,9.94239235297e-06,535.114829652,1.70786116127,,,,,z,1,1.68401824404,2018_Nov_09_1341,59.9888216649,spanish_cond1,001,1003,
images/scooter.jpg,pen,x,sounds/animalfarm_spanish.wav,,,,,,,,,0,0,0,1,0,196,196,212,536.208515919,9.30100213736e-06,537.26536996,1.05686398334,,,,,x,1,1.03383410053,2018_Nov_09_1341,59.9888216649,spanish_cond1,001,1003,
images/cockroach02.jpg,belt,x,sounds/animalfarm_spanish.wav,,,,,,,,,0,0,0,1,0,197,197,129,538.434925651,9.94239235297e-06,539.932738156,1.4978230882,,,,,x,1,1.48396269471,2018_Nov_09_1341,59.9888216649,spanish_cond1,001,1003,
images/highlighter03b.jpg,coin,x,sounds/animalfarm_spanish.wav,,,,,,,,,0,0,0,1,0,198,198,156,541.034920712,9.621726349e-06,541.966577709,0.931667259487,,,,,x,1,0.917119234451,2018_Nov_09_1341,59.9888216649,spanish_cond1,001,1003,
images/plant01.jpg,plant,z,sounds/animalfarm_spanish.wav,,,,,,,,,0,0,0,1,0,199,199,47,543.148672092,9.62166814134e-06,545.284117861,2.13545539067,,,,,z,1,2.1174480404,2018_Nov_09_1341,59.9888216649,spanish_cond1,001,1003,
images/binder03b.jpg,dj mixer,x,sounds/animalfarm_spanish.wav,,,,,,,,,0,0,0,1,0,200,200,167,546.397592777,9.94245056063e-06,547.284622359,0.887040166475,,,,,x,1,0.867116813024,2018_Nov_09_1341,59.9888216649,spanish_cond1,001,1003,
images/atm.jpg,atm,z,sounds/animalfarm_spanish.wav,,,,,,,,,0,0,0,1,0,201,201,96,548.422325381,9.94245056063e-06,549.201803173,0.779488054512,,,,,z,1,0.767103631282,2018_Nov_09_1341,59.9888216649,spanish_cond1,001,1003,
images/ostrich.jpg,ostrich,z,sounds/animalfarm_spanish.wav,,,,,,,,,0,0,0,1,0,202,202,76,550.302657292,9.30100213736e-06,551.70245344,1.39980609046,,,,,z,1,1.38393411826,2018_Nov_09_1341,59.9888216649,spanish_cond1,001,1003,
images/cat.jpg,black olive,x,sounds/animalfarm_spanish.wav,,,,,,,,,0,0,0,1,0,203,203,133,552.90390542,9.94245056063e-06,553.702975257,0.799080100434,,,,,x,1,0.783780940576,2018_Nov_09_1341,59.9888216649,spanish_cond1,001,1003,
images/hammer02a.jpg,flower,x,sounds/animalfarm_spanish.wav,,,,,,,,,0,0,0,1,0,204,204,176,554.861460531,9.94245056063e-06,555.70347302,0.842022752797,,,,,x,1,0.833778551198,2018_Nov_09_1341,59.9888216649,spanish_cond1,001,1003,
images/cake.jpg,cake,z,sounds/animalfarm_spanish.wav,,,,,,,,,0,0,0,1,0,205,205,23,556.847576724,9.30100213736e-06,557.987441103,1.13987496268,,,,,z,1,1.11722417525,2018_Nov_09_1341,59.9888216649,spanish_cond1,001,1003,
images/leaf01a.jpg,leaf,z,sounds/animalfarm_spanish.wav,,,,,,,,,0,0,0,1,0,206,206,68,559.12365693,9.621726349e-06,559.97109446,0.847447793407,,,,,z,1,0.833613378578,2018_Nov_09_1341,59.9888216649,spanish_cond1,001,1003,
images/ruler02b.jpg,watermelon,x,sounds/animalfarm_spanish.wav,,,,,,,,,0,0,0,1,0,207,207,238,561.146250628,9.30100213736e-06,561.955127874,0.808887509047,,,,,x,1,0.800453759846,2018_Nov_09_1341,59.9888216649,spanish_cond1,001,1003,
,,,sounds/animalfarm_spanish.wav,,,,,,,,,0,0,0,1,,,,,,,,,,,,,,,,2018_Nov_09_1341,59.9888216649,spanish_cond1,001,1003,
images/basketball01.jpg,basket ball,z,sounds/greatgatsby_english.wav,,,,,,,,,0,1,1,0,0,0,0,33,583.120484331,9.621726349e-06,584.911072311,1.79059856333,,,,572.958170579,z,1,1.76737079408,2018_Nov_09_1341,59.9888216649,spanish_cond1,001,1003,
images/magnifyingglass01b.jpg,magnifying glass,z,sounds/greatgatsby_english.wav,,,,,,,,,0,1,1,0,0,1,1,64,586.01687712,8.98027792573e-06,586.861574067,0.844706568343,,,,,z,1,0.833795870305,2018_Nov_09_1341,59.9888216649,spanish_cond1,001,1003,
images/honeycomb.jpg,honey comb,z,sounds/greatgatsby_english.wav,,,,,,,,,0,1,1,0,0,2,2,59,587.974565011,9.621726349e-06,588.578937308,0.60440052097,,,,,z,1,0.58389473334,2018_Nov_09_1341,59.9888216649,spanish_cond1,001,1003,
images/ostrich.jpg,ostrich,z,sounds/greatgatsby_english.wav,,,,,,,,,0,1,1,0,0,3,3,76,589.678444708,9.621726349e-06,590.362473536,0.684039091109,,,,,z,1,0.667079544917,2018_Nov_09_1341,59.9888216649,spanish_cond1,001,1003,
images/licenseplate.jpg,license plate,z,sounds/greatgatsby_english.wav,,,,,,,,,0,1,1,0,0,4,4,40,591.478968386,9.621726349e-06,592.112928403,0.63396963838,,,,,z,1,0.617067501764,2018_Nov_09_1341,59.9888216649,spanish_cond1,001,1003,
images/snowman.jpg,globe,x,sounds/greatgatsby_english.wav,,,,,,,,,0,1,1,0,0,5,5,180,593.222787159,9.3009439297e-06,593.930082885,0.707305667922,,,,,x,1,0.683759099338,2018_Nov_09_1341,59.9888216649,spanish_cond1,001,1003,
images/clothespin02a.jpg,clothes pin,z,sounds/greatgatsby_english.wav,,,,,,,,,0,1,1,0,0,6,6,79,595.034199726,9.94239235297e-06,595.830562976,0.796373834193,,,,,z,1,0.78377516754,2018_Nov_09_1341,59.9888216649,spanish_cond1,001,1003,
images/bed.jpg,bed,z,sounds/greatgatsby_english.wav,,,,,,,,,0,1,1,0,0,7,7,103,597.02210684,9.621726349e-06,597.697722766,0.67562650959,,,,,z,1,0.6670965433,2018_Nov_09_1341,59.9888216649,spanish_cond1,001,1003,
images/triangleruler02.jpg,bottle of red wine,x,sounds/greatgatsby_english.wav,,,,,,,,,0,1,1,0,0,8,8,134,598.808109433,1.02631165646e-05,599.998312031,1.19021510612,,,,,z,0,1.16720446676,2018_Nov_09_1341,59.9888216649,spanish_cond1,001,1003,
images/djmixer01.jpg,light bulb,x,sounds/greatgatsby_english.wav,,,,,,,,,0,1,1,0,0,9,9,196,601.119148517,9.62166814134e-06,602.015508592,0.896370979724,,,,,x,1,0.883823949669,2018_Nov_09_1341,59.9888216649,spanish_cond1,001,1003,
images/hat05.jpg,hat,z,sounds/greatgatsby_english.wav,,,,,,,,,0,1,1,0,0,10,10,15,603.118701749,9.621726349e-06,603.715940511,0.597249345621,,,,,z,1,0.583728919271,2018_Nov_09_1341,59.9888216649,spanish_cond1,001,1003,
images/watermelon01.jpg,orange,x,sounds/greatgatsby_english.wav,,,,,,,,,0,1,1,0,0,11,11,207,604.910293273,9.621726349e-06,606.066562667,1.15627997764,,,,,x,1,1.13388641056,2018_Nov_09_1341,59.9888216649,spanish_cond1,001,1003,
images/tape01a.jpg,tie,x,sounds/greatgatsby_english.wav,,,,,,,,,0,1,1,0,0,12,12,232,607.225762512,9.621726349e-06,608.467147153,1.24139490415,,,,,x,1,1.2172075297,2018_Nov_09_1341,59.9888216649,spanish_cond1,001,1003,
images/barrel01.jpg,barrel,z,sounds/greatgatsby_english.wav,,,,,,,,,0,1,1,0,0,13,13,9,609.596350678,9.621726349e-06,610.367666373,0.771325958194,,,,,z,1,0.750442678807,2018_Nov_09_1341,59.9888216649,spanish_cond1,001,1003,
images/sportshorts02.jpg,tape,x,sounds/greatgatsby_english.wav,,,,,,,,,0,1,1,0,0,14,14,230,611.474675821,9.621726349e-06,612.851647028,1.37698179157,,,,,x,1,1.36728022172,2018_Nov_09_1341,59.9888216649,spanish_cond1,001,1003,
images/hanger02a.jpg,hanger,z,sounds/greatgatsby_english.wav,,,,,,,,,0,1,1,0,0,15,15,88,613.944420515,9.94239235297e-06,615.252261342,1.30785109056,,,,,z,1,1.28391580487,2018_Nov_09_1341,59.9888216649,spanish_cond1,001,1003,
images/glasses01b.jpg,calculator,x,sounds/greatgatsby_english.wav,,,,,,,,,0,1,1,0,0,16,16,142,616.344649319,9.30100213736e-06,617.802990042,1.45835098653,,,,,x,1,1.43401351338,2018_Nov_09_1341,59.9888216649,spanish_cond1,001,1003,
images/fireextinguisher02.jpg,fire extinguisher,z,sounds/greatgatsby_english.wav,,,,,,,,,0,1,1,0,0,17,17,175,618.915573026,1.09046231955e-05,620.436956153,1.52139339037,,,,,z,1,1.5005675205,2018_Nov_09_1341,59.9888216649,spanish_cond1,001,1003,
images/pen03c.jpg,pepper,x,sounds/greatgatsby_english.wav,,,,,,,,,0,1,1,0,0,18,18,211,621.530470191,9.94245056063e-06,622.470796668,0.940336419852,,,,,x,1,0.917139440076,2018_Nov_09_1341,59.9888216649,spanish_cond1,001,1003,
images/screwdriver02b.jpg,cola,x,sounds/greatgatsby_english.wav,,,,,,,,,0,1,1,0,0,19,19,158,623.56415323,9.621726349e-06,625.054796919,1.49065395229,,,,,x,1,1.46727704658,2018_Nov_09_1341,59.9888216649,spanish_cond1,001,1003,
images/sock03.jpg,sock,z,sounds/greatgatsby_english.wav,,,,,,,,,0,1,1,0,0,20,20,90,626.160125775,9.30100213736e-06,627.305378311,1.1452627994,,,,,z,1,1.13386684645,2018_Nov_09_1341,59.9888216649,spanish_cond1,001,1003,
images/cola.jpg,comb,x,sounds/greatgatsby_english.wav,,,,,,,,,0,1,1,0,0,21,21,157,628.42613173,9.62166814134e-06,629.472609719,1.04648825235,,,,,x,1,1.03383826994,2018_Nov_09_1341,59.9888216649,spanish_cond1,001,1003,
images/treadmill.jpg,lily,x,sounds/greatgatsby_english.wav,,,,,,,,,0,1,1,0,0,22,22,199,630.578577777,9.30100213736e-06,631.889899418,1.31133158365,,,,,x,1,1.30058124749,2018_Nov_09_1341,59.9888216649,spanish_cond1,001,1003,
images/paperclip04.jpg,eye drops,x,sounds/greatgatsby_english.wav,,,,,,,,,0,1,1,0,0,23,23,174,632.994972977,9.94245056063e-06,634.390735705,1.39577299048,,,,,x,1,1.38409704587,2018_Nov_09_1341,59.9888216649,spanish_cond1,001,1003,
images/bandaid01.jpg,door handle,x,sounds/greatgatsby_english.wav,,,,,,,,,0,1,1,0,0,24,24,170,635.497301912,9.621726349e-06,636.341072609,0.84378031845,,,,,x,1,0.83380388841,2018_Nov_09_1341,59.9888216649,spanish_cond1,001,1003,
images/lighter02b.jpg,stapler,x,sounds/greatgatsby_english.wav,,,,,,,,,0,1,1,0,0,25,25,227,637.442258677,9.94245056063e-06,639.225146082,1.78289798839,,,,,x,1,1.76737560489,2018_Nov_09_1341,59.9888216649,spanish_cond1,001,1003,
images/hairdryer03a.jpg,hairdryer,z,sounds/greatgatsby_english.wav,,,,,,,,,0,1,1,0,0,26,26,119,640.322916443,9.30100213736e-06,641.192310394,0.869404214143,,,,,z,1,0.850460671412,2018_Nov_09_1341,59.9888216649,spanish_cond1,001,1003,
images/pineapple01a.jpg,pineapple,z,sounds/greatgatsby_english.wav,,,,,,,,,0,1,1,0,0,27,27,51,642.304853607,9.62166814134e-06,645.059983662,2.75514031819,,,,,z,1,2.73428397963,2018_Nov_09_1341,59.9888216649,spanish_cond1,001,1003,
images/handbag02a.jpg,candle,x,sounds/greatgatsby_english.wav,,,,,,,,,0,1,1,0,0,28,28,144,646.175876514,9.94245056063e-06,647.093839893,0.917973642296,,,,,x,1,0.900448660308,2018_Nov_09_1341,59.9888216649,spanish_cond1,001,1003,
images/gluestick.jpg,squirrel,x,sounds/greatgatsby_english.wav,,,,,,,,,0,1,1,0,0,29,29,226,648.200879809,9.3009439297e-06,649.277746365,1.07687649794,,,,,x,1,1.06718775711,2018_Nov_09_1341,59.9888216649,spanish_cond1,001,1003,
images/radio03a.jpg,radio,z,sounds/greatgatsby_english.wav,,,,,,,,,0,1,1,0,0,30,30,37,650.39132744,9.30100213736e-06,653.028717917,2.63740009861,,,,,z,1,2.61759348854,2018_Nov_09_1341,59.9888216649,spanish_cond1,001,1003,
images/aloe02.jpg,broad sword,x,sounds/greatgatsby_english.wav,,,,,,,,,0,1,1,0,0,31,31,137,654.149002758,9.94245056063e-06,654.82918643,0.680194255896,,,,,x,1,0.667065112328,2018_Nov_09_1341,59.9888216649,spanish_cond1,001,1003,
images/remotecontrol01c.jpg,remote control,z,sounds/greatgatsby_english.wav,,,,,,,,,0,1,1,0,0,32,32,85,655.93804966,9.62166814134e-06,658.930097317,2.99205824081,,,,,None,0,,2018_Nov_09_1341,59.9888216649,spanish_cond1,001,1003,
images/globe.jpg,cloud,x,sounds/greatgatsby_english.wav,,,,,,,,,0,1,1,0,0,33,33,154,660.132601912,9.3009439297e-06,661.831004933,1.69841360458,,,,,x,1,1.68401984766,2018_Nov_09_1341,59.9888216649,spanish_cond1,001,1003,
images/mailbox01.jpg,mail box,z,sounds/greatgatsby_english.wav,,,,,,,,,0,1,1,0,0,34,34,73,662.949635161,9.30100213736e-06,663.781329329,0.831704752054,,,,,z,1,0.81694761524,2018_Nov_09_1341,59.9888216649,spanish_cond1,001,1003,
images/handfan01b.jpg,handfan,z,sounds/greatgatsby_english.wav,,,,,,,,,0,1,1,0,0,35,35,69,664.895577509,9.621726349e-06,666.265481251,1.36991464585,,,,,z,1,1.35059842223,2018_Nov_09_1341,59.9888216649,spanish_cond1,001,1003,
images/electrictoothbrush01a.jpg,banjo,x,sounds/greatgatsby_english.wav,,,,,,,,,0,1,1,0,0,36,36,127,667.359594721,9.94245056063e-06,668.149298144,0.789714328246,,,,,x,1,0.767098178971,2018_Nov_09_1341,59.9888216649,spanish_cond1,001,1003,
images/paintbrush03a.jpg,paint brush,z,sounds/greatgatsby_english.wav,,,,,,,,,0,1,1,0,0,37,37,0,669.250868119,9.62166814134e-06,670.983364385,1.73250684986,,,,,z,1,1.71734816703,2018_Nov_09_1341,59.9888216649,spanish_cond1,001,1003,
images/doll.jpg,carrot,x,sounds/greatgatsby_english.wav,,,,,,,,,0,1,1,0,0,38,38,146,672.094473643,3.59210534953e-05,673.317307628,1.22286092554,,,,,x,1,1.2005581233,2018_Nov_09_1341,59.9888216649,spanish_cond1,001,1003,
images/envelope02a.jpg,grand piano,x,sounds/greatgatsby_english.wav,,,,,,,,,0,1,1,0,0,39,39,182,674.439562674,9.94245056063e-06,675.167796202,0.728244432481,,,,,x,1,0.717098964727,2018_Nov_09_1341,59.9888216649,spanish_cond1,001,1003,
images/skateboard.jpg,key,x,sounds/greatgatsby_english.wav,,,,,,,,,0,1,1,0,0,40,40,189,676.257022164,9.30100213736e-06,677.10162546,0.844613237772,,,,,x,1,0.83379779465,2018_Nov_09_1341,59.9888216649,spanish_cond1,001,1003,
images/knife04.jpg,tooth brush,x,sounds/greatgatsby_english.wav,,,,,,,,,0,1,1,0,0,41,41,233,678.197034012,9.94245056063e-06,679.102148881,0.905125452671,,,,,x,1,0.883819780196,2018_Nov_09_1341,59.9888216649,spanish_cond1,001,1003,
images/bus.jpg,microphone,x,sounds/greatgatsby_english.wav,,,,,,,,,0,1,1,0,0,42,42,203,680.219373377,9.30100213736e-06,680.902609696,0.683246262255,,,,,x,1,0.667087883747,2018_Nov_09_1341,59.9888216649,spanish_cond1,001,1003,
images/corn01.jpg,corn,z,sounds/greatgatsby_english.wav,,,,,,,,,0,1,1,0,0,43,43,22,682.0014006,9.621726349e-06,682.869773046,0.86838303,,,,,z,1,0.850449446123,2018_Nov_09_1341,59.9888216649,spanish_cond1,001,1003,
images/headphones02b.jpg,headphones,z,sounds/greatgatsby_english.wav,,,,,,,,,0,1,1,0,0,44,44,101,684.05597622,9.3009439297e-06,684.836967827,0.781001870113,,,,,z,1,0.767119988159,2018_Nov_09_1341,59.9888216649,spanish_cond1,001,1003,
images/lily.jpg,kiwi,x,sounds/greatgatsby_english.wav,,,,,,,,,0,1,1,0,0,45,45,190,685.934766412,9.30100213736e-06,686.65409184,0.719335691538,,,,,x,1,0.700425183342,2018_Nov_09_1341,59.9888216649,spanish_cond1,001,1003,
images/microphone01.jpg,diaper,x,sounds/greatgatsby_english.wav,,,,,,,,,0,1,1,0,0,46,46,164,687.751598888,9.30100213736e-06,688.587928154,0.836339529604,,,,,x,1,0.817117598781,2018_Nov_09_1341,59.9888216649,spanish_cond1,001,1003,
images/acousticguitar02.jpg,acoustic guitar,z,sounds/greatgatsby_english.wav,,,,,,,,,0,1,1,0,0,47,47,97,689.70054353,9.62166814134e-06,690.488431017,0.787898070179,,,,,z,1,0.76711261156,2018_Nov_09_1341,59.9888216649,spanish_cond1,001,1003,
images/antelope.jpg,antelope,z,sounds/greatgatsby_english.wav,,,,,,,,,0,1,1,0,0,48,48,12,691.662922325,9.621726349e-06,693.055762939,1.39285119803,,,,,z,1,1.38388697186,2018_Nov_09_1341,59.9888216649,spanish_cond1,001,1003,
images/dryingmachine01.jpg,drying machine,z,sounds/greatgatsby_english.wav,,,,,,,,,0,1,1,0,0,49,49,18,694.175213257,9.3009439297e-06,694.872893046,0.697689731256,,,,,z,1,0.683751401957,2018_Nov_09_1341,59.9888216649,spanish_cond1,001,1003,
images/aquarium.jpg,computer mouse,x,sounds/greatgatsby_english.wav,,,,,,,,,0,1,1,0,0,50,50,159,696.007848749,9.30100213736e-06,697.623616358,1.61577819264,,,,,z,0,1.60065414797,2018_Nov_09_1341,59.9888216649,spanish_cond1,001,1003,
images/flower01.jpg,bus,x,sounds/greatgatsby_english.wav,,,,,,,,,0,1,1,0,0,51,51,140,698.736710575,9.94239235297e-06,699.657460722,0.920760730805,,,,,x,1,0.900473676797,2018_Nov_09_1341,59.9888216649,spanish_cond1,001,1003,
images/worldmap.jpg,scooter,x,sounds/greatgatsby_english.wav,,,,,,,,,0,1,1,0,0,52,52,220,700.786981442,8.98027792573e-06,701.958060251,1.171088751,,,,,x,1,1.15054191073,2018_Nov_09_1341,59.9888216649,spanish_cond1,001,1003,
images/candy.jpg,candy,z,sounds/greatgatsby_english.wav,,,,,,,,,0,1,1,0,0,53,53,31,703.05847562,9.30100213736e-06,703.825219399,0.766754042474,,,,,z,1,0.750447169004,2018_Nov_09_1341,59.9888216649,spanish_cond1,001,1003,
images/cat.jpg,black olive,x,sounds/greatgatsby_english.wav,,,,,,,,,0,1,1,0,0,54,54,133,704.954525876,9.94245056063e-06,706.209175006,1.25466035528,,,,,x,1,1.23390664824,2018_Nov_09_1341,59.9888216649,spanish_cond1,001,1003,
images/button07.jpg,radish,x,sounds/greatgatsby_english.wav,,,,,,,,,0,1,1,0,0,55,55,215,707.319663343,9.94245056063e-06,708.643133996,1.32348091644,,,,,x,1,1.30057226721,2018_Nov_09_1341,59.9888216649,spanish_cond1,001,1003,
images/redfox.jpg,red fox,z,sounds/greatgatsby_english.wav,,,,,,,,,0,1,1,0,0,56,56,1,709.754726905,9.3009439297e-06,710.376903214,0.622186251276,,,,,z,1,0.600392437482,2018_Nov_09_1341,59.9888216649,spanish_cond1,001,1003,
images/weight01.jpg,weight,z,sounds/greatgatsby_english.wav,,,,,,,,,0,1,1,0,0,57,57,67,711.480072637,9.621726349e-06,712.294074727,0.814012993826,,,,,z,1,0.80045408057,2018_Nov_09_1341,59.9888216649,spanish_cond1,001,1003,
images/lemon02.jpg,lemon,z,sounds/greatgatsby_english.wav,,,,,,,,,0,1,1,0,0,58,58,14,713.404851074,9.621726349e-06,714.244584501,0.839743690507,,,,,z,1,0.817118881678,2018_Nov_09_1341,59.9888216649,spanish_cond1,001,1003,
images/feather03b.jpg,feather,z,sounds/greatgatsby_english.wav,,,,,,,,,0,1,1,0,0,59,59,114,715.344089977,9.621726349e-06,716.07839737,0.734318297065,,,,,z,1,0.71710217197,2018_Nov_09_1341,59.9888216649,spanish_cond1,001,1003,
images/icecube02 (2).jpg,aloe,x,sounds/greatgatsby_english.wav,,,,,,,,,0,1,1,0,0,60,60,122,717.187410378,9.30100213736e-06,720.179360535,2.99196042016,,,,,None,0,,2018_Nov_09_1341,59.9888216649,spanish_cond1,001,1003,
images/cocktailshrimp01.jpg,cocktail shrimp,z,sounds/greatgatsby_english.wav,,,,,,,,,0,1,1,0,0,61,61,30,721.292477202,9.621726349e-06,722.913512697,1.62104575802,,,,,z,1,1.60067499499,2018_Nov_09_1341,59.9888216649,spanish_cond1,001,1003,
images/bracelet02a.jpg,chess knight,x,sounds/greatgatsby_english.wav,,,,,,,,,0,1,1,0,0,62,62,152,724.100662968,1.02631165646e-05,725.114091026,1.01343896257,,,,,x,1,1.00053336343,2018_Nov_09_1341,59.9888216649,spanish_cond1,001,1003,
images/tank.jpg,wallet,x,sounds/greatgatsby_english.wav,,,,,,,,,0,1,1,0,0,63,63,237,726.217208171,9.94245056063e-06,727.898121489,1.68092614727,,,,,x,1,1.667346387,2018_Nov_09_1341,59.9888216649,spanish_cond1,001,1003,
images/carrot02.jpg,corkscrew,x,sounds/greatgatsby_english.wav,,,,,,,,,0,1,1,0,0,64,64,161,728.998623454,9.621726349e-06,731.999025962,3.00041309209,,,,,None,0,,2018_Nov_09_1341,59.9888216649,spanish_cond1,001,1003,
images/diaper01a.jpg,camera,x,sounds/greatgatsby_english.wav,,,,,,,,,0,1,1,0,0,65,65,143,733.117772292,9.3009439297e-06,734.299774948,1.18201259867,,,,,x,1,1.16720991908,2018_Nov_09_1341,59.9888216649,spanish_cond1,001,1003,
images/candycane01a.jpg,lip,x,sounds/greatgatsby_english.wav,,,,,,,,,0,1,1,0,0,66,66,200,735.392913739,9.94245056063e-06,736.166917098,0.77401426388,,,,,x,1,0.750429208449,2018_Nov_09_1341,59.9888216649,spanish_cond1,001,1003,
images/tulip02.jpg,sport shorts,x,sounds/greatgatsby_english.wav,,,,,,,,,0,1,1,0,0,67,67,225,737.260044664,9.94245056063e-06,740.251157411,2.99112397287,,,,,None,0,,2018_Nov_09_1341,59.9888216649,spanish_cond1,001,1003,
images/croissant02b.jpg,croissant,z,sounds/greatgatsby_english.wav,,,,,,,,,0,1,1,0,0,68,68,39,741.361294877,9.621726349e-06,744.018970804,2.65768651123,,,,,z,1,2.6342621384,2018_Nov_09_1341,59.9888216649,spanish_cond1,001,1003,
images/coin01b.jpg,arrow,x,sounds/greatgatsby_english.wav,,,,,,,,,0,1,1,0,0,69,69,124,745.120644372,9.30100213736e-06,746.01947883,0.898844400595,,,,,x,1,0.883796046721,2018_Nov_09_1341,59.9888216649,spanish_cond1,001,1003,
images/mattress.jpg,cat,x,sounds/greatgatsby_english.wav,,,,,,,,,0,1,1,0,0,70,70,147,747.122635425,9.3009439297e-06,747.853284322,0.730659481604,,,,,x,1,0.717092550243,2018_Nov_09_1341,59.9888216649,spanish_cond1,001,1003,
images/screw03c.jpg,screw,z,sounds/greatgatsby_english.wav,,,,,,,,,0,1,1,0,0,71,71,84,749.022614225,1.05838989839e-05,749.837132038,0.814528717427,,,,,z,1,0.800450552604,2018_Nov_09_1341,59.9888216649,spanish_cond1,001,1003,
images/masquerademask02b.jpg,mirror,x,sounds/greatgatsby_english.wav,,,,,,,,,0,1,1,0,0,72,72,204,750.940909232,9.30100213736e-06,753.65479166,2.71389236965,,,,,x,1,2.70094218984,2018_Nov_09_1341,59.9888216649,spanish_cond1,001,1003,
images/printer03a.jpg,printer,z,sounds/greatgatsby_english.wav,,,,,,,,,0,1,1,0,0,73,73,72,754.763806592,9.30100213736e-06,755.671987579,0.908191250055,,,,,x,0,0.883811762149,2018_Nov_09_1341,59.9888216649,spanish_cond1,001,1003,
images/tent.jpg,tent,z,sounds/greatgatsby_english.wav,,,,,,,,,0,1,1,0,0,74,74,11,756.798882855,9.94239235297e-06,758.139289963,1.34041737049,,,,,z,1,1.31725470809,2018_Nov_09_1341,59.9888216649,spanish_cond1,001,1003,
images/highheelshoe02a.jpg,high heel shoe,z,sounds/greatgatsby_english.wav,,,,,,,,,0,1,1,0,0,75,75,75,759.246043794,9.621726349e-06,760.64012208,1.39408822916,,,,,z,1,1.38412174158,2018_Nov_09_1341,59.9888216649,spanish_cond1,001,1003,
images/bowtie.jpg,bowtie,z,sounds/greatgatsby_english.wav,,,,,,,,,0,1,1,0,0,76,76,89,761.749721692,9.621726349e-06,762.707128308,0.957417199563,,,,,z,1,0.933815787197,2018_Nov_09_1341,59.9888216649,spanish_cond1,001,1003,
images/battery03b.jpg,battery,z,sounds/greatgatsby_english.wav,,,,,,,,,0,1,1,0,0,77,77,34,763.816311941,9.30100213736e-06,764.624303348,0.808001349622,,,,,z,1,0.783755282697,2018_Nov_09_1341,59.9888216649,spanish_cond1,001,1003,
images/diploma01.jpg,glasses,x,sounds/greatgatsby_english.wav,,,,,,,,,0,1,1,0,0,78,78,179,765.75492415,9.3009439297e-06,766.941569923,1.18665571499,,,,,x,1,1.16721248487,2018_Nov_09_1341,59.9888216649,spanish_cond1,001,1003,
images/seagull.jpg,seagull,z,sounds/greatgatsby_english.wav,,,,,,,,,0,1,1,0,0,79,79,50,768.047901682,9.30100213736e-06,768.792051442,0.744160023169,,,,,z,1,0.733770180319,2018_Nov_09_1341,59.9888216649,spanish_cond1,001,1003,
images/cloud.jpg,ceiling fan,x,sounds/greatgatsby_english.wav,,,,,,,,,0,1,1,0,0,80,80,149,769.897973315,8.98027792573e-06,771.209352687,1.31138899323,,,,,x,1,1.3005773988,2018_Nov_09_1341,59.9888216649,spanish_cond1,001,1003,
images/sunglasses03a.jpg,sun glasses,z,sounds/greatgatsby_english.wav,,,,,,,,,0,1,1,0,0,81,81,17,772.317880119,9.621726349e-06,774.126773722,1.80890450743,,,,,z,1,1.80072669563,2018_Nov_09_1341,59.9888216649,spanish_cond1,001,1003,
images/gamecontroller01.jpg,game controller,z,sounds/greatgatsby_english.wav,,,,,,,,,0,1,1,0,0,82,82,112,775.247016869,9.621726349e-06,778.244345883,2.99733991805,,,,,None,0,,2018_Nov_09_1341,59.9888216649,spanish_cond1,001,1003,
images/blueberry02.jpg,blueberry,z,sounds/greatgatsby_english.wav,,,,,,,,,0,1,1,0,0,83,83,46,779.356826876,9.621726349e-06,781.178686694,1.82187040267,,,,,z,1,1.80080014135,2018_Nov_09_1341,59.9888216649,spanish_cond1,001,1003,
images/pipe.jpg,icecube,x,sounds/greatgatsby_english.wav,,,,,,,,,0,1,1,0,0,84,84,188,782.287232088,9.621726349e-06,783.295824274,1.00860309129,,,,,x,1,1.00051636511,2018_Nov_09_1341,59.9888216649,spanish_cond1,001,1003,
images/pepper05a.jpg,lighter,x,sounds/greatgatsby_english.wav,,,,,,,,,0,1,1,0,0,85,85,198,784.417052364,9.621726349e-06,786.279965131,1.86292270978,,,,,x,1,1.85070794931,2018_Nov_09_1341,59.9888216649,spanish_cond1,001,1003,
images/hand01a.jpg,cupcake,x,sounds/greatgatsby_english.wav,,,,,,,,,0,1,1,0,0,86,86,163,787.391493895,9.621726349e-06,790.097573116,2.70608980453,,,,,x,1,2.68426937069,2018_Nov_09_1341,59.9888216649,spanish_cond1,001,1003,
images/cherry01.jpg,highlighter,x,sounds/greatgatsby_english.wav,,,,,,,,,0,1,1,0,0,87,87,187,791.2061942,9.94245056063e-06,792.231472035,1.02528841875,,,,,x,1,1.01719495736,2018_Nov_09_1341,59.9888216649,spanish_cond1,001,1003,
images/leek.jpg,donut,x,sounds/greatgatsby_english.wav,,,,,,,,,0,1,1,0,0,88,88,169,793.332815899,9.30100213736e-06,794.098608091,0.765802455426,,,,,x,1,0.750434019312,2018_Nov_09_1341,59.9888216649,spanish_cond1,001,1003,
images/bicycle.jpg,hand bag,x,sounds/greatgatsby_english.wav,,,,,,,,,0,1,1,0,0,89,89,186,795.207654455,9.62166814134e-06,796.365869358,1.15822580806,,,,,x,1,1.13388320338,2018_Nov_09_1341,59.9888216649,spanish_cond1,001,1003,
images/umbrella01.jpg,umbrella,z,sounds/greatgatsby_english.wav,,,,,,,,,0,1,1,0,0,90,90,53,797.479203476,1.05838989839e-05,798.749818871,1.27062629955,,,,,z,1,1.25056118623,2018_Nov_09_1341,59.9888216649,spanish_cond1,001,1003,
images/fork01.jpg,cooking pot,x,sounds/greatgatsby_english.wav,,,,,,,,,0,1,1,0,0,91,91,160,799.843635031,9.3009439297e-06,802.284056603,2.44043183513,,,,,x,1,2.41751645069,2018_Nov_09_1341,59.9888216649,spanish_cond1,001,1003,
images/lollipop03b.jpg,lollipop,z,sounds/greatgatsby_english.wav,,,,,,,,,0,1,1,0,0,92,92,42,803.377363453,9.94245056063e-06,806.368301406,2.99094853702,,,,,None,0,,2018_Nov_09_1341,59.9888216649,spanish_cond1,001,1003,
images/8ball.jpg,nail clipper,x,sounds/greatgatsby_english.wav,,,,,,,,,0,1,1,0,0,93,93,206,807.484825121,9.94245056063e-06,808.535678101,1.05086356448,,,,,x,1,1.03382736538,2018_Nov_09_1341,59.9888216649,spanish_cond1,001,1003,
images/doorhandle.jpg,doll,x,sounds/greatgatsby_english.wav,,,,,,,,,0,1,1,0,0,94,94,168,809.637439868,4.39391587861e-05,810.419496599,0.78208014305,,,,,x,1,0.767102348385,2018_Nov_09_1341,59.9888216649,spanish_cond1,001,1003,
images/grandpiano.jpg,tulip,x,sounds/greatgatsby_english.wav,,,,,,,,,0,1,1,0,0,95,95,236,811.533813093,9.30100213736e-06,812.319978614,0.786175784131,,,,,x,1,0.767102348385,2018_Nov_09_1341,59.9888216649,spanish_cond1,001,1003,
images/drink.jpg,drink,z,sounds/greatgatsby_english.wav,,,,,,,,,0,1,1,0,0,96,96,117,813.419912256,9.621726349e-06,814.337263374,0.917361380823,,,,,z,1,0.900550971215,2018_Nov_09_1341,59.9888216649,spanish_cond1,001,1003,
images/broom02.jpg,broom,z,sounds/greatgatsby_english.wav,,,,,,,,,0,1,1,0,0,97,97,116,815.430977223,9.30100213736e-06,816.587772282,1.15680532303,,,,,z,1,1.13387454383,2018_Nov_09_1341,59.9888216649,spanish_cond1,001,1003,
images/scissors04a.jpg,leek,x,sounds/greatgatsby_english.wav,,,,,,,,,0,1,1,0,0,98,98,194,817.682089733,9.94239235297e-06,820.67199688,2.98991773115,,,,,None,0,,2018_Nov_09_1341,59.9888216649,spanish_cond1,001,1003,
images/gorilla.jpg,gorilla,z,sounds/greatgatsby_english.wav,,,,,,,,,0,1,1,0,0,99,99,80,821.782895743,9.94245056063e-06,822.856068204,1.07318336511,,,,,z,1,1.05052423885,2018_Nov_09_1341,59.9888216649,spanish_cond1,001,1003,
images/camera01a.jpg,bull,x,sounds/greatgatsby_english.wav,,,,,,,,,0,1,1,0,0,100,100,138,823.967032816,9.62166814134e-06,825.223338483,1.2563152893,,,,,x,1,1.2338915742,2018_Nov_09_1341,59.9888216649,spanish_cond1,001,1003,
images/mushroom01.jpg,shower head,x,sounds/greatgatsby_english.wav,,,,,,,,,0,1,1,0,0,101,101,222,826.340420257,9.94245056063e-06,828.240808301,1.900397986,,,,,x,1,1.8840628888,2018_Nov_09_1341,59.9888216649,spanish_cond1,001,1003,
images/elbow.jpg,elbow,z,sounds/greatgatsby_english.wav,,,,,,,,,0,1,1,0,0,102,102,105,829.352947082,9.94245056063e-06,832.075119574,2.72218275542,,,,,z,1,2.70093802048,2018_Nov_09_1341,59.9888216649,spanish_cond1,001,1003,
images/puma.jpg,puma,z,sounds/greatgatsby_english.wav,,,,,,,,,0,1,1,0,0,103,103,4,833.172532649,1.02631165646e-05,836.176014425,3.00349268055,,,,,None,0,,2018_Nov_09_1341,59.9888216649,spanish_cond1,001,1003,
images/lock02a.jpg,lock,z,sounds/greatgatsby_english.wav,,,,,,,,,0,1,1,0,0,104,104,65,837.286456257,1.02631747723e-05,839.360343931,2.07389857882,,,,,z,1,2.05077857274,2018_Nov_09_1341,59.9888216649,spanish_cond1,001,1003,
images/highlighter03b.jpg,coin,x,sounds/greatgatsby_english.wav,,,,,,,,,0,1,1,0,0,105,105,156,840.462162787,9.30100213736e-06,841.394168731,0.932015886065,,,,,x,1,0.917123083142,2018_Nov_09_1341,59.9888216649,spanish_cond1,001,1003,
images/calculator02b.jpg,dice,x,sounds/greatgatsby_english.wav,,,,,,,,,0,1,1,0,0,106,106,165,842.495972513,1.02631747723e-05,845.495120991,2.99916002474,,,,,None,0,,2018_Nov_09_1341,59.9888216649,spanish_cond1,001,1003,
images/key03b.jpg,cigar,x,sounds/greatgatsby_english.wav,,,,,,,,,0,1,1,0,0,107,107,153,846.596641895,9.62166814134e-06,848.295993937,1.69936198439,,,,,x,1,1.68401984766,2018_Nov_09_1341,59.9888216649,spanish_cond1,001,1003,
images/wallet01.jpg,lamp,x,sounds/greatgatsby_english.wav,,,,,,,,,0,1,1,0,0,108,108,193,849.400996296,9.94245056063e-06,852.396886543,2.99590211385,,,,,None,0,,2018_Nov_09_1341,59.9888216649,spanish_cond1,001,1003,
images/teapot.jpg,light switch,x,sounds/greatgatsby_english.wav,,,,,,,,,0,1,1,0,0,109,109,197,853.514480513,9.94245056063e-06,856.514612651,3.00014496711,,,,,None,0,,2018_Nov_09_1341,59.9888216649,spanish_cond1,001,1003,
images/computermouse02a.jpg,world map,x,sounds/greatgatsby_english.wav,,,,,,,,,0,1,1,0,0,110,110,239,857.616870898,1.02631165646e-05,859.015440278,1.39858028467,,,,,x,1,1.38393989124,2018_Nov_09_1341,59.9888216649,spanish_cond1,001,1003,
images/lightswitch02a.jpg,fork,x,sounds/greatgatsby_english.wav,,,,,,,,,0,1,1,0,0,111,111,177,860.127204775,9.94239235297e-06,862.849754759,2.72256120929,,,,,x,1,2.70094315201,2018_Nov_09_1341,59.9888216649,spanish_cond1,001,1003,
images/bullet (2).jpg,rubber glove,x,sounds/greatgatsby_english.wav,,,,,,,,,0,1,1,0,0,112,112,217,863.954282447,1.02631165646e-05,866.950653138,2.99638191645,,,,,None,0,,2018_Nov_09_1341,59.9888216649,spanish_cond1,001,1003,
images/pictureframe04.jpg,picture frame,z,sounds/greatgatsby_english.wav,,,,,,,,,0,1,1,0,0,113,113,41,868.072405931,9.94245056063e-06,869.86824544,1.79584977176,,,,,z,1,1.78399967414,2018_Nov_09_1341,59.9888216649,spanish_cond1,001,1003,
images/bowl02b (1).jpg,bowl,z,sounds/greatgatsby_english.wav,,,,,,,,,0,1,1,0,0,114,114,24,870.985530873,9.30100213736e-06,873.985811506,3.00029121712,,,,,None,0,,2018_Nov_09_1341,59.9888216649,spanish_cond1,001,1003,
images/lightbulb03b.jpg,treadmill,x,sounds/greatgatsby_english.wav,,,,,,,,,0,1,1,0,0,115,115,234,875.088847508,9.30100213736e-06,878.086885321,2.99804807582,,,,,None,0,,2018_Nov_09_1341,59.9888216649,spanish_cond1,001,1003,
images/saltshaker03c.jpg,salt shaker,z,sounds/greatgatsby_english.wav,,,,,,,,,0,1,1,0,0,116,116,63,879.19836277,9.94239235297e-06,880.821080781,1.62272795354,,,,,z,1,1.60065671377,2018_Nov_09_1341,59.9888216649,spanish_cond1,001,1003,
images/grasshopper.jpg,cauliflower,x,sounds/greatgatsby_english.wav,,,,,,,,,0,1,1,0,0,117,117,148,881.914828305,9.62166814134e-06,884.905311152,2.99049343012,,,,,None,0,,2018_Nov_09_1341,59.9888216649,spanish_cond1,001,1003,
images/parkfountain.jpg,park fountain,z,sounds/greatgatsby_english.wav,,,,,,,,,0,1,1,0,0,118,118,93,886.024300269,9.62166814134e-06,889.023044957,2.99875527149,,,,,None,0,,2018_Nov_09_1341,59.9888216649,spanish_cond1,001,1003,
images/blackolive.jpg,tank,x,sounds/greatgatsby_english.wav,,,,,,,,,0,1,1,0,0,119,119,229,890.138602331,9.30100213736e-06,891.007048223,0.868456155004,,,,,x,1,0.850457143446,2018_Nov_09_1341,59.9888216649,spanish_cond1,001,1003,
images/orange.jpg,bat,x,sounds/greatgatsby_english.wav,,,,,,,,,0,1,1,0,0,120,120,128,892.131813253,9.30100213736e-06,893.457684202,1.32588121231,,,,,x,1,1.31724380353,2018_Nov_09_1341,59.9888216649,spanish_cond1,001,1003,
images/chessknight02b (1).jpg,cockroach,x,sounds/greatgatsby_english.wav,,,,,,,,,0,1,1,0,0,121,121,155,894.566667383,9.94245056063e-06,897.558600542,2.99194438395,,,,,None,0,,2018_Nov_09_1341,59.9888216649,spanish_cond1,001,1003,
images/cauliflower01.jpg,glue stick,x,sounds/greatgatsby_english.wav,,,,,,,,,0,1,1,0,0,122,122,181,898.674743237,9.62166814134e-06,901.676326329,3.00159399654,,,,,None,0,,2018_Nov_09_1341,59.9888216649,spanish_cond1,001,1003,
images/coffeepot03b.jpg,coffee pot,z,sounds/greatgatsby_english.wav,,,,,,,,,0,1,1,0,0,123,123,107,902.797567888,9.3009439297e-06,905.794062379,2.9965047536,,,,,None,0,,2018_Nov_09_1341,59.9888216649,spanish_cond1,001,1003,
images/kiwi03.jpg,backpack,x,sounds/greatgatsby_english.wav,,,,,,,,,0,1,1,0,0,124,124,125,906.922966668,9.621726349e-06,909.061726475,2.13877039042,,,,,z,0,2.11745188903,2018_Nov_09_1341,59.9888216649,spanish_cond1,001,1003,
images/fryingpan01.jpg,frying pan,z,sounds/greatgatsby_english.wav,,,,,,,,,0,1,1,0,0,125,125,45,910.162437551,9.30100213736e-06,911.395660096,1.23323248717,,,,,z,1,1.21721715142,2018_Nov_09_1341,59.9888216649,spanish_cond1,001,1003,
images/lettuce.jpg,mushroom,x,sounds/greatgatsby_english.wav,,,,,,,,,0,1,1,0,0,126,126,205,912.51985552,9.621726349e-06,914.463135542,1.94329028478,,,,,x,1,1.93407878064,2018_Nov_09_1341,59.9888216649,spanish_cond1,001,1003,
images/beachumbrella01.jpg,beach umbrella,z,sounds/greatgatsby_english.wav,,,,,,,,,0,1,1,0,0,127,127,92,915.570314652,1.25082442537e-05,918.56404226,2.99374011572,,,,,None,0,,2018_Nov_09_1341,59.9888216649,spanish_cond1,001,1003,
images/lychee02a.jpg,lychee,z,sounds/greatgatsby_english.wav,,,,,,,,,0,1,1,0,0,128,128,62,919.688083096,8.98027792573e-06,922.681780876,2.99370740191,,,,,None,0,,2018_Nov_09_1341,59.9888216649,spanish_cond1,001,1003,
images/pouch01b.jpg,pouch,z,sounds/greatgatsby_english.wav,,,,,,,,,0,1,1,0,0,129,129,25,923.794333711,9.621726349e-06,926.782836089,2.9885129616,,,,,None,0,,2018_Nov_09_1341,59.9888216649,spanish_cond1,001,1003,
images/puzzle.jpg,puzzle,z,sounds/greatgatsby_english.wav,,,,,,,,,0,1,1,0,0,130,130,57,927.965824649,9.62166814134e-06,930.967257963,3.0014438979,,,,,None,0,,2018_Nov_09_1341,59.9888216649,spanish_cond1,001,1003,
images/arrow02.jpg,hammer,x,sounds/greatgatsby_english.wav,,,,,,,,,0,1,1,0,0,131,131,184,932.064140241,9.30100213736e-06,933.001276159,0.937146823155,,,,,x,1,0.917159004195,2018_Nov_09_1341,59.9888216649,spanish_cond1,001,1003,
images/desktopcomputer.jpg,desktop computer,z,sounds/greatgatsby_english.wav,,,,,,,,,0,1,1,0,0,132,132,16,934.13680692,9.621726349e-06,934.951779519,0.814982862154,,,,,z,1,0.800452156167,2018_Nov_09_1341,59.9888216649,spanish_cond1,001,1003,
images/computerkeyboard01a.jpg,computer keyboard,z,sounds/greatgatsby_english.wav,,,,,,,,,0,1,1,0,0,133,133,61,936.069058538,9.62166814134e-06,937.469159694,1.40011109866,,,,,z,1,1.3840017909,2018_Nov_09_1341,59.9888216649,spanish_cond1,001,1003,
images/binder03b.jpg,dj mixer,x,sounds/greatgatsby_english.wav,,,,,,,,,0,1,1,0,0,134,134,167,938.582073344,9.3009439297e-06,939.619652214,1.03758913308,,,,,x,1,1.01717346883,2018_Nov_09_1341,59.9888216649,spanish_cond1,001,1003,
images/flashlight05.jpg,flash light,z,sounds/greatgatsby_english.wav,,,,,,,,,0,1,1,0,0,135,135,8,940.722739532,9.621726349e-06,941.470311413,0.74758214457,,,,,z,1,0.733944974723,2018_Nov_09_1341,59.9888216649,spanish_cond1,001,1003,
images/razor04a.jpg,razor,z,sounds/greatgatsby_english.wav,,,,,,,,,0,1,1,0,0,136,136,36,942.570250508,9.94245056063e-06,943.704044871,1.13380462606,,,,,z,1,1.11719242361,2018_Nov_09_1341,59.9888216649,spanish_cond1,001,1003,
images/squirrel.jpg,binder,x,sounds/greatgatsby_english.wav,,,,,,,,,0,1,1,0,0,137,137,132,944.807970239,9.3009439297e-06,947.804957041,2.99699674366,,,,,None,0,,2018_Nov_09_1341,59.9888216649,spanish_cond1,001,1003,
images/ladybug03.jpg,giraffe,x,sounds/greatgatsby_english.wav,,,,,,,,,0,1,1,0,0,138,138,178,948.908060074,9.30100213736e-06,951.906016102,2.99796661205,,,,,None,0,,2018_Nov_09_1341,59.9888216649,spanish_cond1,001,1003,
images/ceilingfan02.jpg,paper clip,x,sounds/greatgatsby_english.wav,,,,,,,,,0,1,1,0,0,139,139,208,953.004597253,9.94245056063e-06,954.140088885,1.1355028578,,,,,x,1,1.11720974272,2018_Nov_09_1341,59.9888216649,spanish_cond1,001,1003,
images/hairpin.jpg,hair pin,z,sounds/greatgatsby_english.wav,,,,,,,,,0,1,1,0,0,140,140,28,955.231320333,8.6595537141e-06,956.44066885,1.20935813896,,,,,z,1,1.20054721867,2018_Nov_09_1341,59.9888216649,spanish_cond1,001,1003,
images/straw.jpg,straw,z,sounds/greatgatsby_english.wav,,,,,,,,,0,1,1,0,0,141,141,109,957.53180857,9.621726349e-06,958.591228721,1.05943041405,,,,,z,1,1.0505142964,2018_Nov_09_1341,59.9888216649,spanish_cond1,001,1003,
images/hammer02a.jpg,flower,x,sounds/greatgatsby_english.wav,,,,,,,,,0,1,1,0,0,142,142,176,959.686584354,9.62166814134e-06,960.608415981,0.921842210984,,,,,x,1,0.90047014883,2018_Nov_09_1341,59.9888216649,spanish_cond1,001,1003,
images/flipflop01b.jpg,flip flop,z,sounds/greatgatsby_english.wav,,,,,,,,,0,1,1,0,0,143,143,27,961.725310773,8.98027792573e-06,964.726003536,3.00070302625,,,,,None,0,,2018_Nov_09_1341,59.9888216649,spanish_cond1,001,1003,
images/cockroach02.jpg,belt,x,sounds/greatgatsby_english.wav,,,,,,,,,0,1,1,0,0,144,144,129,965.825221644,9.94245056063e-06,968.827082803,3.0018717433,,,,,None,0,,2018_Nov_09_1341,59.9888216649,spanish_cond1,001,1003,
images/stapler03a.jpg,candy cane,x,sounds/greatgatsby_english.wav,,,,,,,,,0,1,1,0,0,145,145,145,969.938040039,9.30100213736e-06,972.844949356,2.90691926004,,,,,x,1,2.88433422102,2018_Nov_09_1341,59.9888216649,spanish_cond1,001,1003,
images/bull.jpg,button,x,sounds/greatgatsby_english.wav,,,,,,,,,0,1,1,0,0,146,146,141,973.951633269,1.02631165646e-05,976.945832661,2.99421029654,,,,,None,0,,2018_Nov_09_1341,59.9888216649,spanish_cond1,001,1003,
images/ashtray02b.jpg,ashtray,z,sounds/greatgatsby_english.wav,,,,,,,,,0,1,1,0,0,147,147,43,978.059603284,9.30100213736e-06,981.063576409,3.00398435001,,,,,None,0,,2018_Nov_09_1341,59.9888216649,spanish_cond1,001,1003,
images/showerhead01.jpg,skateboard,x,sounds/greatgatsby_english.wav,,,,,,,,,0,1,1,0,0,148,148,223,982.171931933,9.30100213736e-06,983.1809494,1.00902997452,,,,,x,1,1.00051572366,2018_Nov_09_1341,59.9888216649,spanish_cond1,001,1003,
images/gps.jpg,gps,z,sounds/greatgatsby_english.wav,,,,,,,,,0,1,1,0,0,149,149,21,984.299563591,9.30100213736e-06,985.364843684,1.06529003521,,,,,z,1,1.05052231456,2018_Nov_09_1341,59.9888216649,spanish_cond1,001,1003,
images/giraffe.jpg,lettuce,x,sounds/greatgatsby_english.wav,,,,,,,,,0,1,1,0,0,150,150,195,986.465768042,1.02631747723e-05,989.465751685,2.9999951892,,,,,None,0,,2018_Nov_09_1341,59.9888216649,spanish_cond1,001,1003,
images/butterfly.jpg,butterfly,z,sounds/greatgatsby_english.wav,,,,,,,,,0,1,1,0,0,151,151,91,990.573711757,9.30100213736e-06,993.566807218,2.993106045,,,,,None,0,,2018_Nov_09_1341,59.9888216649,spanish_cond1,001,1003,
images/dice05a.jpg,band aid,x,sounds/greatgatsby_english.wav,,,,,,,,,0,1,1,0,0,152,152,126,994.680366805,9.621726349e-06,997.567999028,2.88764280622,,,,,x,1,2.86765178002,2018_Nov_09_1341,59.9888216649,spanish_cond1,001,1003,
images/cheetah.jpg,cheetah,z,sounds/greatgatsby_english.wav,,,,,,,,,0,1,1,0,0,153,153,82,998.670726173,9.94245056063e-06,1001.66890959,2.99819432583,,,,,None,0,,2018_Nov_09_1341,59.9888216649,spanish_cond1,001,1003,
images/donut.jpg,rhinoceros,x,sounds/greatgatsby_english.wav,,,,,,,,,0,1,1,0,0,154,154,216,1002.79477471,9.621726349e-06,1003.68647531,0.891719845298,,,,,x,1,0.86731822748,2018_Nov_09_1341,59.9888216649,spanish_cond1,001,1003,
images/scooter.jpg,pen,x,sounds/greatgatsby_english.wav,,,,,,,,,0,1,1,0,0,155,155,212,1004.77912532,1.02631747723e-05,1006.07019999,1.29108590295,,,,,x,1,1.26722855313,2018_Nov_09_1341,59.9888216649,spanish_cond1,001,1003,
images/egg01b (1).jpg,egg,z,sounds/greatgatsby_english.wav,,,,,,,,,0,1,1,0,0,156,156,19,1007.18349595,1.02631165646e-05,1008.02070239,0.837217029533,,,,,z,1,0.817119202402,2018_Nov_09_1341,59.9888216649,spanish_cond1,001,1003,
images/tissuebox03.jpg,tissue box,z,sounds/greatgatsby_english.wav,,,,,,,,,0,1,1,0,0,157,157,58,1009.14630259,1.02631747723e-05,1012.13829027,2.99199858628,,,,,None,0,,2018_Nov_09_1341,59.9888216649,spanish_cond1,001,1003,
images/toucan.jpg,toucan,z,sounds/greatgatsby_english.wav,,,,,,,,,0,1,1,0,0,158,158,81,1013.23920308,9.94245056063e-06,1016.23935318,3.0001606826,,,,,None,0,,2018_Nov_09_1341,59.9888216649,spanish_cond1,001,1003,
images/charcoalbarbecue.jpg,charcoal barbecue,z,sounds/greatgatsby_english.wav,,,,,,,,,0,1,1,0,0,159,159,77,1017.35687017,9.621726349e-06,1020.35708891,3.00022867596,,,,,None,0,,2018_Nov_09_1341,59.9888216649,spanish_cond1,001,1003,
images/broadsword.jpg,teapot,x,sounds/greatgatsby_english.wav,,,,,,,,,0,1,1,0,0,160,160,231,1021.45059878,9.30100213736e-06,1023.04126912,1.59068028379,,,,,x,1,1.56731877266,2018_Nov_09_1341,59.9888216649,spanish_cond1,001,1003,
images/backpack01b.jpg,swallow,x,sounds/greatgatsby_english.wav,,,,,,,,,0,1,1,0,0,161,161,228,1024.17240211,9.621726349e-06,1027.17553206,3.00314116752,,,,,None,0,,2018_Nov_09_1341,59.9888216649,spanish_cond1,001,1003,
images/medal01.jpg,medal,z,sounds/greatgatsby_english.wav,,,,,,,,,0,1,1,0,0,162,162,115,1028.2765645,8.98021971807e-06,1031.27657636,3.00002212991,,,,,None,0,,2018_Nov_09_1341,59.9888216649,spanish_cond1,001,1003,
images/rhinoceros01.jpg,envelope,x,sounds/greatgatsby_english.wav,,,,,,,,,0,1,1,0,0,163,163,173,1032.3895471,9.621726349e-06,1035.37764473,2.98810852907,,,,,None,0,,2018_Nov_09_1341,59.9888216649,spanish_cond1,001,1003,
images/crocodile.jpg,triangle ruler,x,sounds/greatgatsby_english.wav,,,,,,,,,0,1,1,0,0,164,164,235,1036.47544043,9.621726349e-06,1037.27829224,0.80286207376,,,,,x,1,0.783778374782,2018_Nov_09_1341,59.9888216649,spanish_cond1,001,1003,
images/rubberglove02a.jpg,lady bug,x,sounds/greatgatsby_english.wav,,,,,,,,,0,1,1,0,0,165,165,192,1038.38287316,9.621726349e-06,1039.27880924,0.895946020959,,,,,x,1,0.883793480927,2018_Nov_09_1341,59.9888216649,spanish_cond1,001,1003,
images/parrot01.jpg,chameleon,x,sounds/greatgatsby_english.wav,,,,,,,,,0,1,1,0,0,166,166,150,1040.47215878,9.30100213736e-06,1041.51272551,1.04057667393,,,,,x,1,1.01717378956,2018_Nov_09_1341,59.9888216649,spanish_cond1,001,1003,
images/birthdaycandle.jpg,birthday candle,z,sounds/greatgatsby_english.wav,,,,,,,,,0,1,1,0,0,167,167,55,1042.60928803,9.62166814134e-06,1045.59694626,2.9876691376,,,,,None,0,,2018_Nov_09_1341,59.9888216649,spanish_cond1,001,1003,
images/comb02a.jpg,diploma,x,sounds/greatgatsby_english.wav,,,,,,,,,0,1,1,0,0,168,168,166,1046.70157434,9.621726349e-06,1049.69801944,2.99645600363,,,,,None,0,,2018_Nov_09_1341,59.9888216649,spanish_cond1,001,1003,
images/belt02a.jpg,snowman,x,sounds/greatgatsby_english.wav,,,,,,,,,0,1,1,0,0,169,169,224,1050.80232005,9.30100213736e-06,1053.79908331,2.99677352002,,,,,None,0,,2018_Nov_09_1341,59.9888216649,spanish_cond1,001,1003,
,,,sounds/greatgatsby_english.wav,,,,,,,,,0,1,1,0,,,,,,,,,,,,,,,,2018_Nov_09_1341,59.9888216649,spanish_cond1,001,1003,
