images,name,corrAns,sounds,trials_3.thisRepN,trials_3.thisTrialN,trials_3.thisN,trials_3.thisIndex,trials_4.thisRepN,trials_4.thisTrialN,trials_4.thisN,trials_4.thisIndex,trials_2.thisRepN,trials_2.thisTrialN,trials_2.thisN,trials_2.thisIndex,trials.thisRepN,trials.thisTrialN,trials.thisN,trials.thisIndex,begin_global,begin_routine,end_global,end_routine,key_resp_2.keys,key_resp_2.corr,key_resp_2.rt,begin_book,key_resp_1.keys,key_resp_1.corr,key_resp_1.rt,date,frameRate,expName,session,participant,
images/volleyball.jpg,volley ball,z,,0,0,0,0,,,,,,,,,,,,,,,,,,,,,,,,2018_Nov_13_1540,59.9821282063,chinese_cond1,001,1006,
images/puma.jpg,puma,z,,,,,,0,0,0,0,,,,,,,,,48.1792704115,1.09045067802e-05,49.6687517981,1.48949261196,z,1,1.46729564853,,,,,2018_Nov_13_1540,59.9821282063,chinese_cond1,001,1006,
images/calculator02b.jpg,dice,x,sounds/greatgatsby_english.wav,,,,,,,,,0,0,0,0,0,0,0,165,91.8467749152,1.02631747723e-05,93.5634646366,1.71670062596,,,,81.6655682951,x,1,1.70069683623,2018_Nov_13_1540,59.9821282063,chinese_cond1,001,1006,
images/button07.jpg,radish,x,sounds/greatgatsby_english.wav,,,,,,,,,0,0,0,0,0,1,1,215,94.6822500946,9.94245056063e-06,95.9307349158,1.24849476363,,,,,x,1,1.23386944435,2018_Nov_13_1540,59.9821282063,chinese_cond1,001,1006,
images/bus.jpg,microphone,x,sounds/greatgatsby_english.wav,,,,,,,,,0,0,0,0,0,2,2,203,97.049545711,9.621726349e-06,97.9979313324,0.948395563872,,,,,x,1,0.933766716509,2018_Nov_13_1540,59.9821282063,chinese_cond1,001,1006,
images/sunglasses03a.jpg,sun glasses,z,sounds/greatgatsby_english.wav,,,,,,,,,0,0,0,0,0,3,3,17,99.1087926711,9.621726349e-06,99.9984544327,0.889671704033,,,,,z,1,0.867125793244,2018_Nov_13_1540,59.9821282063,chinese_cond1,001,1006,
images/plate01b.jpg,plate,z,sounds/greatgatsby_english.wav,,,,,,,,,0,0,0,0,0,4,4,3,101.099686685,9.30088572204e-06,101.732238083,0.632561661536,,,,,z,1,0.617062049452,2018_Nov_13_1540,59.9821282063,chinese_cond1,001,1006,
images/butterfly.jpg,butterfly,z,sounds/greatgatsby_english.wav,,,,,,,,,0,0,0,0,0,5,5,91,102.841564439,9.621726349e-06,103.849454882,1.00790102733,,,,,z,1,0.983822698821,2018_Nov_13_1540,59.9821282063,chinese_cond1,001,1006,
images/bottleofredwine02.jpg,pipe,x,sounds/greatgatsby_english.wav,,,,,,,,,0,0,0,0,0,6,6,213,104.948514232,9.62160993367e-06,105.849982472,0.901478183223,,,,,x,1,0.883811441483,2018_Nov_13_1540,59.9821282063,chinese_cond1,001,1006,
images/rubberglove02a.jpg,lady bug,x,sounds/greatgatsby_english.wav,,,,,,,,,0,0,0,0,0,7,7,192,106.956794354,9.94245056063e-06,107.900498693,0.943714602152,,,,,x,1,0.933799751103,2018_Nov_13_1540,59.9821282063,chinese_cond1,001,1006,
images/blackolive.jpg,tank,x,sounds/greatgatsby_english.wav,,,,,,,,,0,0,0,0,0,8,8,229,109.015784415,9.30100213736e-06,110.134425226,1.11865107482,,,,,x,1,1.1005183215,2018_Nov_13_1540,59.9821282063,chinese_cond1,001,1006,
images/coffeepot03b.jpg,coffee pot,z,sounds/greatgatsby_english.wav,,,,,,,,,0,0,0,0,0,9,9,107,111.25597436,9.94245056063e-06,112.184955238,0.928991462104,,,,,z,1,0.917146495893,2018_Nov_13_1540,59.9821282063,chinese_cond1,001,1006,
images/mailbox01.jpg,mail box,z,sounds/greatgatsby_english.wav,,,,,,,,,0,0,0,0,0,10,10,73,113.304910696,9.621726349e-06,114.835632334,1.53073446685,,,,,z,1,1.51728620322,2018_Nov_13_1540,59.9821282063,chinese_cond1,001,1006,
images/bull.jpg,button,x,sounds/greatgatsby_english.wav,,,,,,,,,0,0,0,0,0,11,11,141,115.941693402,9.30100213736e-06,116.652805418,0.71112195868,,,,,x,1,0.70044699253,2018_Nov_13_1540,59.9821282063,chinese_cond1,001,1006,
images/cookingpot.jpg,grasshopper,x,sounds/greatgatsby_english.wav,,,,,,,,,0,0,0,0,0,12,12,183,117.767164889,9.30100213736e-06,118.986700873,1.21954624658,,,,,x,1,1.2005356726,2018_Nov_13_1540,59.9821282063,chinese_cond1,001,1006,
images/parkfountain.jpg,park fountain,z,sounds/greatgatsby_english.wav,,,,,,,,,0,0,0,0,0,13,13,93,120.107722416,9.621726349e-06,121.287302647,1.17959081428,,,,,z,1,1.16720542894,2018_Nov_13_1540,59.9821282063,chinese_cond1,001,1006,
images/cake.jpg,cake,z,sounds/greatgatsby_english.wav,,,,,,,,,0,0,0,0,0,14,14,23,122.403337258,9.94245056063e-06,123.954673088,1.55134673475,,,,,z,1,1.53397730365,2018_Nov_13_1540,59.9821282063,chinese_cond1,001,1006,
images/handbag02a.jpg,candle,x,sounds/greatgatsby_english.wav,,,,,,,,,0,0,0,0,0,15,15,144,125.071218291,9.30100213736e-06,125.788468638,0.717260930222,,,,,x,1,0.700417485903,2018_Nov_13_1540,59.9821282063,chinese_cond1,001,1006,
images/basketball01.jpg,basket ball,z,sounds/greatgatsby_english.wav,,,,,,,,,0,0,0,0,0,16,16,33,126.927749941,9.621726349e-06,127.622285034,0.694546318729,,,,,z,1,0.68375011906,2018_Nov_13_1540,59.9821282063,chinese_cond1,001,1006,
images/tulip02.jpg,sport shorts,x,sounds/greatgatsby_english.wav,,,,,,,,,0,0,0,0,0,17,17,225,128.717156695,9.30100213736e-06,130.156281581,1.43913514947,,,,,x,1,1.41727719095,2018_Nov_13_1540,59.9821282063,chinese_cond1,001,1006,
images/cherry01.jpg,highlighter,x,sounds/greatgatsby_english.wav,,,,,,,,,0,0,0,0,0,18,18,187,131.266728866,9.621726349e-06,132.990335313,1.72361703159,,,,,x,1,1.70067598927,2018_Nov_13_1540,59.9821282063,chinese_cond1,001,1006,
images/bullet (2).jpg,rubber glove,x,sounds/greatgatsby_english.wav,,,,,,,,,0,0,0,0,0,19,19,217,134.096567327,9.94245056063e-06,135.190917812,1.0943610688,,,,,x,1,1.08386667015,2018_Nov_13_1540,59.9821282063,chinese_cond1,001,1006,
images/electricguitar02.jpg,electric guitar,z,sounds/greatgatsby_english.wav,,,,,,,,,0,0,0,0,0,20,20,100,136.294617712,9.62160993367e-06,137.141417323,0.846810515504,,,,,z,1,0.833783362061,2018_Nov_13_1540,59.9821282063,chinese_cond1,001,1006,
images/puzzle.jpg,puzzle,z,sounds/greatgatsby_english.wav,,,,,,,,,0,0,0,0,0,21,21,57,138.263618488,9.62160993367e-06,139.292039094,1.02843792504,,,,,z,1,1.01716673363,2018_Nov_13_1540,59.9821282063,chinese_cond1,001,1006,
images/table02.jpg,table,z,sounds/greatgatsby_english.wav,,,,,,,,,0,0,0,0,0,22,22,49,140.406476501,9.30088572204e-06,141.459208922,1.05274268438,,,,,z,1,1.03385270247,2018_Nov_13_1540,59.9821282063,chinese_cond1,001,1006,
images/tie01.jpg,bench,x,sounds/greatgatsby_english.wav,,,,,,,,,0,0,0,0,0,23,23,130,142.559648025,1.02631747723e-05,143.376362153,0.816725032986,,,,,x,1,0.800440289429,2018_Nov_13_1540,59.9821282063,chinese_cond1,001,1006,
images/parkingmeter.jpg,ear,x,sounds/greatgatsby_english.wav,,,,,,,,,0,0,0,0,0,24,24,171,144.480769249,8.98027792573e-06,145.210166042,0.729406735045,,,,,x,1,0.717072986183,2018_Nov_13_1540,59.9821282063,chinese_cond1,001,1006,
images/cupcake.jpg,scissors,x,sounds/greatgatsby_english.wav,,,,,,,,,0,0,0,0,0,25,25,219,146.330411434,9.30100213736e-06,147.710833949,1.38043277815,,,,,x,1,1.367263544,2018_Nov_13_1540,59.9821282063,chinese_cond1,001,1006,
images/hanger02a.jpg,hanger,z,sounds/greatgatsby_english.wav,,,,,,,,,0,0,0,0,0,26,26,88,148.804848957,9.62160993367e-06,149.711342937,0.906504885061,,,,,z,1,0.883799895411,2018_Nov_13_1540,59.9821282063,chinese_cond1,001,1006,
images/key03b.jpg,cigar,x,sounds/greatgatsby_english.wav,,,,,,,,,0,0,0,0,0,27,27,153,150.813895288,9.621726349e-06,151.778555711,0.96467132715,,,,,x,1,0.950497266022,2018_Nov_13_1540,59.9821282063,chinese_cond1,001,1006,
images/djmixer01.jpg,light bulb,x,sounds/greatgatsby_english.wav,,,,,,,,,0,0,0,0,0,28,28,196,152.901301785,9.30100213736e-06,153.545670567,0.644378724624,,,,,x,1,0.633694778197,2018_Nov_13_1540,59.9821282063,chinese_cond1,001,1006,
images/radio03a.jpg,radio,z,sounds/greatgatsby_english.wav,,,,,,,,,0,0,0,0,0,29,29,37,154.659942481,9.94245056063e-06,155.446176637,0.786244419054,,,,,z,1,0.767107800581,2018_Nov_13_1540,59.9821282063,chinese_cond1,001,1006,
images/saltshaker03c.jpg,salt shaker,z,sounds/greatgatsby_english.wav,,,,,,,,,0,0,0,0,0,30,30,63,156.558408107,9.30100213736e-06,157.24662719,0.688229345717,,,,,z,1,0.667084034998,2018_Nov_13_1540,59.9821282063,chinese_cond1,001,1006,
images/flashlight05.jpg,flash light,z,sounds/greatgatsby_english.wav,,,,,,,,,0,0,0,0,0,31,31,8,158.350477189,9.621726349e-06,159.113771585,0.763304338907,,,,,z,1,0.750426001148,2018_Nov_13_1540,59.9821282063,chinese_cond1,001,1006,
images/charcoalbarbecue.jpg,charcoal barbecue,z,sounds/greatgatsby_english.wav,,,,,,,,,0,0,0,0,0,32,32,77,160.232167685,9.621726349e-06,161.214327431,0.982169689145,,,,,z,1,0.967146030976,2018_Nov_13_1540,59.9821282063,chinese_cond1,001,1006,
images/ceilingfan02.jpg,paper clip,x,sounds/greatgatsby_english.wav,,,,,,,,,0,0,0,0,0,33,33,208,162.313553878,9.30100213736e-06,163.181510025,0.867966410005,,,,,x,1,0.850388508639,2018_Nov_13_1540,59.9821282063,chinese_cond1,001,1006,
images/plant01.jpg,plant,z,sounds/greatgatsby_english.wav,,,,,,,,,0,0,0,0,0,34,34,47,164.293081766,9.94245056063e-06,165.031975507,0.738904324709,,,,,z,1,0.717088060104,2018_Nov_13_1540,59.9821282063,chinese_cond1,001,1006,
images/screwdriver02b.jpg,cola,x,sounds/greatgatsby_english.wav,,,,,,,,,0,0,0,0,0,35,35,158,166.125637719,9.621726349e-06,167.182540831,1.05691401626,,,,,x,1,1.03384276002,2018_Nov_13_1540,59.9821282063,chinese_cond1,001,1006,
images/pingpongpaddle01c (1).jpg,ping pong paddle,z,sounds/greatgatsby_english.wav,,,,,,,,,0,0,0,0,0,36,36,10,168.297263041,9.621726349e-06,169.083016752,0.785763975,,,,,z,1,0.767086633015,2018_Nov_13_1540,59.9821282063,chinese_cond1,001,1006,
images/dreamcatcher.jpg,dream catcher,z,sounds/greatgatsby_english.wav,,,,,,,,,0,0,0,0,0,37,37,48,170.182582204,9.94245056063e-06,170.950192578,0.767621279228,,,,,z,1,0.750447168946,2018_Nov_13_1540,59.9821282063,chinese_cond1,001,1006,
images/masquerademask02b.jpg,mirror,x,sounds/greatgatsby_english.wav,,,,,,,,,0,0,0,0,0,38,38,204,172.056415612,9.30088572204e-06,173.01737777,0.960972100496,,,,,x,1,0.950481229811,2018_Nov_13_1540,59.9821282063,chinese_cond1,001,1006,
images/showerhead01.jpg,skateboard,x,sounds/greatgatsby_english.wav,,,,,,,,,0,0,0,0,0,39,39,223,174.126516822,9.30100213736e-06,175.017895097,0.891388858436,,,,,x,1,0.86711103993,2018_Nov_13_1540,59.9821282063,chinese_cond1,001,1006,
images/magnifyingglass01b.jpg,magnifying glass,z,sounds/greatgatsby_english.wav,,,,,,,,,0,0,0,0,0,40,40,64,176.125986346,9.621726349e-06,176.935063082,0.809087319882,,,,,z,1,0.800455042743,2018_Nov_13_1540,59.9821282063,chinese_cond1,001,1006,
images/volleyball.jpg,volley ball,z,sounds/greatgatsby_english.wav,,,,,,,,,0,0,0,0,0,41,41,2,178.067261844,8.98027792573e-06,178.818879655,0.751628394122,,,,,z,1,0.733757672133,2018_Nov_13_1540,59.9821282063,chinese_cond1,001,1006,
images/weight01.jpg,weight,z,sounds/greatgatsby_english.wav,,,,,,,,,0,0,0,0,0,42,42,67,179.925318855,9.94245056063e-06,180.719362312,0.794054360711,,,,,z,1,0.78376298002,2018_Nov_13_1540,59.9821282063,chinese_cond1,001,1006,
images/battery03b.jpg,battery,z,sounds/greatgatsby_english.wav,,,,,,,,,0,0,0,0,0,43,43,34,181.830051742,2.59786611423e-05,182.736565287,0.906540164724,,,,,z,1,0.883799895411,2018_Nov_13_1540,59.9821282063,chinese_cond1,001,1006,
images/fryingpan01.jpg,frying pan,z,sounds/greatgatsby_english.wav,,,,,,,,,0,0,0,0,0,44,44,45,183.837466232,9.30088572204e-06,184.570384249,0.732928601443,,,,,z,1,0.717098002555,2018_Nov_13_1540,59.9821282063,chinese_cond1,001,1006,
images/backpack01b.jpg,swallow,x,sounds/greatgatsby_english.wav,,,,,,,,,0,0,0,0,0,45,45,228,185.702237914,9.30100213736e-06,186.520902362,0.818674391368,,,,,x,1,0.800463060848,2018_Nov_13_1540,59.9821282063,chinese_cond1,001,1006,
images/boxingglove02a.jpg,bracelet,x,sounds/greatgatsby_english.wav,,,,,,,,,0,0,0,0,0,46,46,135,187.632740305,9.62160993367e-06,188.787969271,1.15523922932,,,,,x,1,1.13369974948,2018_Nov_13_1540,59.9821282063,chinese_cond1,001,1006,
images/honeycomb.jpg,honey comb,z,sounds/greatgatsby_english.wav,,,,,,,,,0,0,0,0,0,47,47,59,189.902103274,1.05838989839e-05,190.705299862,0.80320717243,,,,,z,1,0.783780299244,2018_Nov_13_1540,59.9821282063,chinese_cond1,001,1006,
images/blueberry02.jpg,blueberry,z,sounds/greatgatsby_english.wav,,,,,,,,,0,0,0,0,0,48,48,46,191.819703273,8.98027792573e-06,192.972578769,1.15288575925,,,,,z,1,1.13389410789,2018_Nov_13_1540,59.9821282063,chinese_cond1,001,1006,
images/sock03.jpg,sock,z,sounds/greatgatsby_english.wav,,,,,,,,,0,0,0,0,0,49,49,90,194.080433965,9.62160993367e-06,194.789693481,0.709270100226,,,,,z,1,0.700378357666,2018_Nov_13_1540,59.9821282063,chinese_cond1,001,1006,
images/swan.jpg,swan,z,sounds/greatgatsby_english.wav,,,,,,,,,0,0,0,0,0,50,50,54,195.883712017,9.621726349e-06,196.623490634,0.73978920118,,,,,z,1,0.71708773938,2018_Nov_13_1540,59.9821282063,chinese_cond1,001,1006,
images/panda.jpg,panda,z,sounds/greatgatsby_english.wav,,,,,,,,,0,0,0,0,0,51,51,83,197.73303444,9.94245056063e-06,198.357275889,0.624252032372,,,,,z,1,0.600388588733,2018_Nov_13_1540,59.9821282063,chinese_cond1,001,1006,
images/daisy.jpg,daisy,z,sounds/greatgatsby_english.wav,,,,,,,,,0,0,0,0,0,52,52,6,199.46135296,9.621726349e-06,200.29111124,0.829769184813,,,,,z,1,0.817113750032,2018_Nov_13_1540,59.9821282063,chinese_cond1,001,1006,
images/grasshopper.jpg,cauliflower,x,sounds/greatgatsby_english.wav,,,,,,,,,0,0,0,0,0,53,53,148,201.385080064,9.94245056063e-06,202.475014184,1.08994438336,,,,,x,1,1.06717621104,2018_Nov_13_1540,59.9821282063,chinese_cond1,001,1006,
images/bracelet02a.jpg,chess knight,x,sounds/greatgatsby_english.wav,,,,,,,,,0,0,0,0,0,54,54,152,203.585808491,1.05838989839e-05,204.625585281,1.03978833521,,,,,x,1,1.01717667608,2018_Nov_13_1540,59.9821282063,chinese_cond1,001,1006,
images/mirror02.jpg,8 ball,x,sounds/greatgatsby_english.wav,,,,,,,,,0,0,0,0,0,55,55,121,205.729357023,9.621726349e-06,206.476053649,0.746707210317,,,,,x,1,0.733754785615,2018_Nov_13_1540,59.9821282063,chinese_cond1,001,1006,
images/pen03c.jpg,pepper,x,sounds/greatgatsby_english.wav,,,,,,,,,0,0,0,0,0,56,56,211,207.571615187,9.621726349e-06,208.343204459,0.771600176929,,,,,x,1,0.750436585047,2018_Nov_13_1540,59.9821282063,chinese_cond1,001,1006,
images/cat.jpg,black olive,x,sounds/greatgatsby_english.wav,,,,,,,,,0,0,0,0,0,57,57,133,209.475077046,9.94245056063e-06,210.443745231,0.96867909003,,,,,x,1,0.950476098224,2018_Nov_13_1540,59.9821282063,chinese_cond1,001,1006,
images/belt02a.jpg,snowman,x,sounds/greatgatsby_english.wav,,,,,,,,,0,0,0,0,0,58,58,224,211.54761287,8.98027792573e-06,212.160866647,0.61326371925,,,,,x,1,0.600396286114,2018_Nov_13_1540,59.9821282063,chinese_cond1,001,1006,
images/radish01.jpg,raisin,x,sounds/greatgatsby_english.wav,,,,,,,,,0,0,0,0,0,59,59,214,213.271399564,9.30088572204e-06,213.911331455,0.639942154288,,,,,x,1,0.617083537858,2018_Nov_13_1540,59.9821282063,chinese_cond1,001,1006,
images/gps.jpg,gps,z,sounds/greatgatsby_english.wav,,,,,,,,,0,0,0,0,0,60,60,21,215.029829866,9.94245056063e-06,216.078540412,1.04872080975,,,,,z,1,1.03382864827,2018_Nov_13_1540,59.9821282063,chinese_cond1,001,1006,
images/cigar.jpg,crocodile,x,sounds/greatgatsby_english.wav,,,,,,,,,0,0,0,0,0,61,61,162,217.25392237,9.621726349e-06,217.962386492,0.708475347143,,,,,x,1,0.683751081233,2018_Nov_13_1540,59.9821282063,chinese_cond1,001,1006,
images/scissors04a.jpg,leek,x,sounds/greatgatsby_english.wav,,,,,,,,,0,0,0,0,0,62,62,194,219.058627322,9.94233414531e-06,219.846185746,0.787569328328,,,,,x,1,0.767099141143,2018_Nov_13_1540,59.9821282063,chinese_cond1,001,1006,
images/cheetah.jpg,cheetah,z,sounds/greatgatsby_english.wav,,,,,,,,,0,0,0,0,0,63,63,82,220.950666287,9.94245056063e-06,221.88003492,0.929379216977,,,,,z,1,0.917137195007,2018_Nov_13_1540,59.9821282063,chinese_cond1,001,1006,
images/antelope.jpg,antelope,z,sounds/greatgatsby_english.wav,,,,,,,,,0,0,0,0,0,64,64,12,222.985588603,9.30100213736e-06,223.913747787,0.928169447347,,,,,z,1,0.916981964721,2018_Nov_13_1540,59.9821282063,chinese_cond1,001,1006,
images/feather03b.jpg,feather,z,sounds/greatgatsby_english.wav,,,,,,,,,0,0,0,0,0,65,65,114,225.015921043,1.02631747723e-05,225.847988534,0.832078074454,,,,,z,1,0.817365838913,2018_Nov_13_1540,59.9821282063,chinese_cond1,001,1006,
images/microphone01.jpg,diaper,x,sounds/greatgatsby_english.wav,,,,,,,,,0,0,0,0,0,66,66,164,226.948066501,9.621726349e-06,227.598192594,0.65013635566,,,,,x,1,0.633740320918,2018_Nov_13_1540,59.9821282063,chinese_cond1,001,1006,
images/aquarium.jpg,computer mouse,x,sounds/greatgatsby_english.wav,,,,,,,,,0,0,0,0,0,67,67,159,228.735605682,9.62160993367e-06,229.882112248,1.1465168288,,,,,x,1,1.13383830211,2018_Nov_13_1540,59.9821282063,chinese_cond1,001,1006,
images/pictureframe04.jpg,picture frame,z,sounds/greatgatsby_english.wav,,,,,,,,,0,0,0,0,0,68,68,41,231.005724917,9.621726349e-06,231.882636631,0.876922297291,,,,,z,1,0.867133169901,2018_Nov_13_1540,59.9821282063,chinese_cond1,001,1006,
images/eraser.jpg,eraser,z,sounds/greatgatsby_english.wav,,,,,,,,,0,0,0,0,0,69,69,110,232.990275017,9.621726349e-06,233.699796886,0.709532452282,,,,,z,1,0.700445068302,2018_Nov_13_1540,59.9821282063,chinese_cond1,001,1006,
images/broom02.jpg,broom,z,sounds/greatgatsby_english.wav,,,,,,,,,0,0,0,0,0,70,70,116,234.794888242,9.94245056063e-06,235.400219183,0.605341203511,,,,,z,1,0.583728277707,2018_Nov_13_1540,59.9821282063,chinese_cond1,001,1006,
images/dice05a.jpg,band aid,x,sounds/greatgatsby_english.wav,,,,,,,,,0,0,0,0,0,71,71,126,236.514108794,1.02630583569e-05,237.267444079,0.753345869249,,,,,x,1,0.7338490783,2018_Nov_13_1540,59.9821282063,chinese_cond1,001,1006,
images/redfox.jpg,red fox,z,sounds/greatgatsby_english.wav,,,,,,,,,0,0,0,0,0,72,72,1,238.380151183,9.621726349e-06,239.267878339,0.887737098965,,,,,z,1,0.867125472636,2018_Nov_13_1540,59.9821282063,chinese_cond1,001,1006,
images/comb02a.jpg,diploma,x,sounds/greatgatsby_english.wav,,,,,,,,,0,0,0,0,0,73,73,166,240.372927203,9.62160993367e-06,241.451780962,1.07886402239,,,,,x,1,1.06718070118,2018_Nov_13_1540,59.9821282063,chinese_cond1,001,1006,
images/lettuce.jpg,mushroom,x,sounds/greatgatsby_english.wav,,,,,,,,,0,0,0,0,0,74,74,205,242.576198969,9.94245056063e-06,243.385607654,0.809418948134,,,,,x,1,0.800436120015,2018_Nov_13_1540,59.9821282063,chinese_cond1,001,1006,
images/kiwi03.jpg,backpack,x,sounds/greatgatsby_english.wav,,,,,,,,,0,0,0,0,0,75,75,125,244.515152429,1.02631747723e-05,245.336115825,0.820973659283,,,,,x,1,0.800436440739,2018_Nov_13_1540,59.9821282063,chinese_cond1,001,1006,
images/electrictoothbrush01a.jpg,banjo,x,sounds/greatgatsby_english.wav,,,,,,,,,0,0,0,0,0,76,76,127,246.431771976,1.05837825686e-05,247.603378375,1.17161762423,,,,,x,1,1.15053453413,2018_Nov_13_1540,59.9821282063,chinese_cond1,001,1006,
images/bench02.jpg,electric toothbrush,x,sounds/greatgatsby_english.wav,,,,,,,,,0,0,0,0,0,77,77,172,248.714806111,9.62160993367e-06,249.637244548,0.922448378638,,,,,x,1,0.900467582978,2018_Nov_13_1540,59.9821282063,chinese_cond1,001,1006,
images/lipstick04.jpg,lipstick,z,sounds/greatgatsby_english.wav,,,,,,,,,0,0,0,0,0,78,78,56,250.738210599,9.94245056063e-06,252.07120001,1.33299967379,,,,,z,1,1.31723931339,2018_Nov_13_1540,59.9821282063,chinese_cond1,001,1006,
images/8ball.jpg,nail clipper,x,sounds/greatgatsby_english.wav,,,,,,,,,0,0,0,0,0,79,79,206,253.189438955,9.94245056063e-06,256.022219414,2.83279040165,,,,,x,1,2.81762658723,2018_Nov_13_1540,59.9821282063,chinese_cond1,001,1006,
images/bowtie.jpg,bowtie,z,sounds/greatgatsby_english.wav,,,,,,,,,0,0,0,0,0,80,80,89,257.133248491,9.94245056063e-06,258.322827602,1.18958969507,,,,,z,1,1.16720639111,2018_Nov_13_1540,59.9821282063,chinese_cond1,001,1006,
images/dryingmachine01.jpg,drying machine,z,sounds/greatgatsby_english.wav,,,,,,,,,0,0,0,0,0,81,81,18,259.444907213,9.30100213736e-06,261.490316872,2.04541960114,,,,,z,1,2.03403711866,2018_Nov_13_1540,59.9821282063,chinese_cond1,001,1006,
images/swallow.jpg,mattress,x,sounds/greatgatsby_english.wav,,,,,,,,,0,0,0,0,0,82,82,202,262.593564552,9.94245056063e-06,264.107649291,1.5140950029,,,,,x,1,1.50060921453,2018_Nov_13_1540,59.9821282063,chinese_cond1,001,1006,
images/axe01.jpg,axe,z,sounds/greatgatsby_english.wav,,,,,,,,,0,0,0,0,0,83,83,104,265.212361716,9.621726349e-06,266.041503245,0.829152433318,,,,,z,1,0.817142294487,2018_Nov_13_1540,59.9821282063,chinese_cond1,001,1006,
images/candle08a.jpg,screw driver,x,sounds/greatgatsby_english.wav,,,,,,,,,0,0,0,0,0,84,84,221,267.157717782,9.621726349e-06,268.242057519,1.08435032133,,,,,x,1,1.06708159752,2018_Nov_13_1540,59.9821282063,chinese_cond1,001,1006,
images/dresser02.jpg,dresser,z,sounds/greatgatsby_english.wav,,,,,,,,,0,0,0,0,0,85,85,87,269.367105107,1.34704168886e-05,270.442631037,1.07553940115,,,,,z,1,1.06715472252,2018_Nov_13_1540,59.9821282063,chinese_cond1,001,1006,
images/mitten01.jpg,mitten,z,sounds/greatgatsby_english.wav,,,,,,,,,0,0,0,0,0,86,86,102,271.564941248,9.621726349e-06,274.243620085,2.67868974118,,,,,z,1,2.66757249716,2018_Nov_13_1540,59.9821282063,chinese_cond1,001,1006,
images/razor04a.jpg,razor,z,sounds/greatgatsby_english.wav,,,,,,,,,0,0,0,0,0,87,87,36,275.345817395,9.94233414531e-06,276.577552423,1.23174593295,,,,,z,1,1.21722003794,2018_Nov_13_1540,59.9821282063,chinese_cond1,001,1006,
images/banana04a.jpg,banana,z,sounds/greatgatsby_english.wav,,,,,,,,,0,0,0,0,0,88,88,118,277.685307874,9.94245056063e-06,279.345124632,1.65983343543,,,,,z,1,1.65082462865,2018_Nov_13_1540,59.9821282063,chinese_cond1,001,1006,
images/raisin.jpg,ruler,x,sounds/greatgatsby_english.wav,,,,,,,,,0,0,0,0,0,89,89,218,280.451081464,9.94245056063e-06,281.245428646,0.794358085957,,,,,x,1,0.783779336954,2018_Nov_13_1540,59.9821282063,chinese_cond1,001,1006,
images/flipflop01b.jpg,flip flop,z,sounds/greatgatsby_english.wav,,,,,,,,,0,0,0,0,0,90,90,27,282.365207064,9.62160993367e-06,283.129246181,0.764049059129,,,,,z,1,0.750423114747,2018_Nov_13_1540,59.9821282063,chinese_cond1,001,1006,
images/triangleruler02.jpg,bottle of red wine,x,sounds/greatgatsby_english.wav,,,,,,,,,0,0,0,0,0,91,91,134,284.2417121,9.94245056063e-06,285.029736856,0.78803469846,,,,,x,1,0.767089840141,2018_Nov_13_1540,59.9821282063,chinese_cond1,001,1006,
images/aloe02.jpg,broad sword,x,sounds/greatgatsby_english.wav,,,,,,,,,0,0,0,0,0,92,92,137,286.152278629,9.621726349e-06,286.846889093,0.69462072663,,,,,x,1,0.683751401957,2018_Nov_13_1540,59.9821282063,chinese_cond1,001,1006,
images/nailclipper03a.jpg,aquarium,x,sounds/greatgatsby_english.wav,,,,,,,,,0,0,0,0,0,93,93,123,287.946799002,9.621726349e-06,288.764222891,0.817434153054,,,,,x,1,0.800619574031,2018_Nov_13_1540,59.9821282063,chinese_cond1,001,1006,
images/barrel01.jpg,barrel,z,sounds/greatgatsby_english.wav,,,,,,,,,0,0,0,0,0,94,94,9,289.894867427,9.621726349e-06,290.531163595,0.636306751636,,,,,z,1,0.61703318439,2018_Nov_13_1540,59.9821282063,chinese_cond1,001,1006,
images/envelope02a.jpg,grand piano,x,sounds/greatgatsby_english.wav,,,,,,,,,0,0,0,0,0,95,95,182,291.655019694,9.30088572204e-06,292.331626977,0.676617866382,,,,,x,1,0.667001609108,2018_Nov_13_1540,59.9821282063,chinese_cond1,001,1006,
images/beermug01b.jpg,beer mug,z,sounds/greatgatsby_english.wav,,,,,,,,,0,0,0,0,0,96,96,111,293.449048076,9.621726349e-06,294.61554631,1.16650881723,,,,,x,0,1.15052298794,2018_Nov_13_1540,59.9821282063,chinese_cond1,001,1006,
images/thumbtack02a.jpg,thumb tack,z,sounds/greatgatsby_english.wav,,,,,,,,,0,0,0,0,0,97,97,60,295.7259875,1.02631747723e-05,296.549381661,0.823405386065,,,,,z,1,0.800435478566,2018_Nov_13_1540,59.9821282063,chinese_cond1,001,1006,
images/grandpiano.jpg,tulip,x,sounds/greatgatsby_english.wav,,,,,,,,,0,0,0,0,0,98,98,236,297.665689208,9.94233414531e-06,298.533501991,0.867824008572,,,,,x,1,0.850660803029,2018_Nov_13_1540,59.9821282063,chinese_cond1,001,1006,
images/lantern03.jpg,lantern,z,sounds/greatgatsby_english.wav,,,,,,,,,0,0,0,0,0,99,99,5,299.64008199,8.98027792573e-06,300.417065513,0.776994428132,,,,,z,1,0.767102989834,2018_Nov_13_1540,59.9821282063,chinese_cond1,001,1006,
images/dragonfly02.jpg,dragon fly,z,sounds/greatgatsby_english.wav,,,,,,,,,0,0,0,0,0,100,100,29,301.516071943,9.30100213736e-06,302.617616901,1.10155457968,,,,,z,1,1.08381695778,2018_Nov_13_1540,59.9821282063,chinese_cond1,001,1006,
images/paintbrush03a.jpg,paint brush,z,sounds/greatgatsby_english.wav,,,,,,,,,0,0,0,0,0,101,101,0,303.719151275,9.621726349e-06,304.501459453,0.782318120007,,,,,z,1,0.767093688832,2018_Nov_13_1540,59.9821282063,chinese_cond1,001,1006,
images/bowlingball.jpg,bowling ball,z,sounds/greatgatsby_english.wav,,,,,,,,,0,0,0,0,0,102,102,20,305.633850971,9.94245056063e-06,307.452217788,1.81837772205,,,,,z,1,1.80069750978,2018_Nov_13_1540,59.9821282063,chinese_cond1,001,1006,
images/lemon02.jpg,lemon,z,sounds/greatgatsby_english.wav,,,,,,,,,0,0,0,0,0,103,103,14,308.566742112,9.94245056063e-06,309.36938032,0.802648792509,,,,,z,1,0.783769715345,2018_Nov_13_1540,59.9821282063,chinese_cond1,001,1006,
images/bicycle.jpg,hand bag,x,sounds/greatgatsby_english.wav,,,,,,,,,0,0,0,0,0,104,104,186,310.481660861,9.30100213736e-06,311.853379898,1.37172994169,,,,,x,1,1.35060611961,2018_Nov_13_1540,59.9821282063,chinese_cond1,001,1006,
images/tape01a.jpg,tie,x,sounds/greatgatsby_english.wav,,,,,,,,,0,0,0,0,0,105,105,232,312.980994237,9.30088572204e-06,313.737187812,0.756203837809,,,,,x,1,0.733757672017,2018_Nov_13_1540,59.9821282063,chinese_cond1,001,1006,
images/computerkeyboard01a.jpg,computer keyboard,z,sounds/greatgatsby_english.wav,,,,,,,,,0,0,0,0,0,106,106,61,314.855231115,9.30100213736e-06,315.687698869,0.832478016731,,,,,z,1,0.817133634933,2018_Nov_13_1540,59.9821282063,chinese_cond1,001,1006,
images/tent.jpg,tent,z,sounds/greatgatsby_english.wav,,,,,,,,,0,0,0,0,0,107,107,11,316.816334712,9.621726349e-06,317.488151666,0.671827537939,,,,,z,1,0.65040031122,2018_Nov_13_1540,59.9821282063,chinese_cond1,001,1006,
images/graduationcap.jpg,graduation cap,z,sounds/greatgatsby_english.wav,,,,,,,,,0,0,0,0,0,108,108,35,318.592147274,9.30100213736e-06,319.255281918,0.663144586491,,,,,z,1,0.650410253671,2018_Nov_13_1540,59.9821282063,chinese_cond1,001,1006,
images/baseball01a.jpg,baseball,z,sounds/greatgatsby_english.wav,,,,,,,,,0,0,0,0,0,109,109,74,320.463172746,9.94233414531e-06,321.455937862,0.992775699589,,,,,z,1,0.983911860036,2018_Nov_13_1540,59.9821282063,chinese_cond1,001,1006,
images/highheelshoe02a.jpg,high heel shoe,z,sounds/greatgatsby_english.wav,,,,,,,,,0,0,0,0,0,110,110,75,322.565007317,9.621726349e-06,323.306327012,0.741329957615,,,,,z,1,0.717091588187,2018_Nov_13_1540,59.9821282063,chinese_cond1,001,1006,
images/chessknight02b (1).jpg,cockroach,x,sounds/greatgatsby_english.wav,,,,,,,,,0,0,0,0,0,111,111,155,324.41738752,9.621726349e-06,325.290175689,0.872798432596,,,,,x,1,0.850462274975,2018_Nov_13_1540,59.9821282063,chinese_cond1,001,1006,
images/broadsword.jpg,teapot,x,sounds/greatgatsby_english.wav,,,,,,,,,0,0,0,0,0,112,112,231,326.385536774,9.62160993367e-06,327.357430798,0.971904607723,,,,,x,1,0.950544412364,2018_Nov_13_1540,59.9821282063,chinese_cond1,001,1006,
images/fireextinguisher02.jpg,fire extinguisher,z,sounds/greatgatsby_english.wav,,,,,,,,,0,0,0,0,0,113,113,175,328.470109678,9.621726349e-06,329.174537813,0.704438398476,,,,,z,1,0.68376455165,2018_Nov_13_1540,59.9821282063,chinese_cond1,001,1006,
images/straw.jpg,straw,z,sounds/greatgatsby_english.wav,,,,,,,,,0,0,0,0,0,114,114,109,330.267562427,9.94245056063e-06,332.408677948,2.14112578495,,,,,z,1,2.11744547449,2018_Nov_13_1540,59.9821282063,chinese_cond1,001,1006,
images/parrot01.jpg,chameleon,x,sounds/greatgatsby_english.wav,,,,,,,,,0,0,0,0,0,115,115,150,333.52542649,8.98027792573e-06,334.292362383,0.766945835203,,,,,x,1,0.750281996327,2018_Nov_13_1540,59.9821282063,chinese_cond1,001,1006,
images/peach01.jpg,peach,z,sounds/greatgatsby_english.wav,,,,,,,,,0,0,0,0,0,116,116,106,335.423725019,9.94245056063e-06,338.043514503,2.61980006739,,,,,x,0,2.60093798838,2018_Nov_13_1540,59.9821282063,chinese_cond1,001,1006,
images/licenseplate.jpg,license plate,z,sounds/greatgatsby_english.wav,,,,,,,,,0,0,0,0,0,117,117,40,339.162755709,9.94245056063e-06,342.094556069,2.93181126437,,,,,z,1,2.91767408641,2018_Nov_13_1540,59.9821282063,chinese_cond1,001,1006,
images/lychee02a.jpg,lychee,z,sounds/greatgatsby_english.wav,,,,,,,,,0,0,0,0,0,118,118,62,343.218647579,9.621726349e-06,343.995037764,0.776400127099,,,,,z,1,0.767113894457,2018_Nov_13_1540,59.9821282063,chinese_cond1,001,1006,
images/coin01b.jpg,arrow,x,sounds/greatgatsby_english.wav,,,,,,,,,0,0,0,0,0,119,119,124,345.100228387,9.62160993367e-06,347.662642012,2.56242356752,,,,,x,1,2.55088168534,2018_Nov_13_1540,59.9821282063,chinese_cond1,001,1006,
images/toucan.jpg,toucan,z,sounds/greatgatsby_english.wav,,,,,,,,,0,0,0,0,0,120,120,81,348.764074076,9.621726349e-06,349.629821719,0.86575822765,,,,,z,1,0.850463557988,2018_Nov_13_1540,59.9821282063,chinese_cond1,001,1006,
images/headphones02b.jpg,headphones,z,sounds/greatgatsby_english.wav,,,,,,,,,0,0,0,0,0,121,121,101,350.738466858,9.621726349e-06,351.430288308,0.691832355224,,,,,z,1,0.683753967751,2018_Nov_13_1540,59.9821282063,chinese_cond1,001,1006,
images/puma.jpg,puma,z,sounds/greatgatsby_english.wav,,,,,,,,,0,0,0,0,0,122,122,4,352.529260742,9.621726349e-06,353.280762771,0.75151229219,,,,,z,1,0.733763765893,2018_Nov_13_1540,59.9821282063,chinese_cond1,001,1006,
images/printer03a.jpg,printer,z,sounds/greatgatsby_english.wav,,,,,,,,,0,0,0,0,0,123,123,72,354.392390318,9.30100213736e-06,355.031229825,0.638849769603,,,,,z,1,0.617070067441,2018_Nov_13_1540,59.9821282063,chinese_cond1,001,1006,
images/squirrel.jpg,binder,x,sounds/greatgatsby_english.wav,,,,,,,,,0,0,0,0,0,124,124,132,356.135239864,9.30100213736e-06,357.181769811,1.04653988883,,,,,x,1,1.03384211869,2018_Nov_13_1540,59.9821282063,chinese_cond1,001,1006,
images/leek.jpg,donut,x,sounds/greatgatsby_english.wav,,,,,,,,,0,0,0,0,0,125,125,169,358.284160838,9.94245056063e-06,359.048931204,0.764780309168,,,,,x,1,0.750438830233,2018_Nov_13_1540,59.9821282063,chinese_cond1,001,1006,
images/seagull.jpg,seagull,z,sounds/greatgatsby_english.wav,,,,,,,,,0,0,0,0,0,126,126,50,360.157272617,9.621726349e-06,360.94941771,0.792155997478,,,,,z,1,0.783785751555,2018_Nov_13_1540,59.9821282063,chinese_cond1,001,1006,
images/doorhandle.jpg,doll,x,sounds/greatgatsby_english.wav,,,,,,,,,0,0,0,0,0,127,127,168,362.054512117,9.621726349e-06,362.883251458,0.828750245739,,,,,x,1,0.817121126805,2018_Nov_13_1540,59.9821282063,chinese_cond1,001,1006,
images/spoon02b.jpg,spoon,z,sounds/greatgatsby_english.wav,,,,,,,,,0,0,0,0,0,128,128,38,363.975603834,9.94245056063e-06,365.317227767,1.341634196,,,,,z,1,1.31724797294,2018_Nov_13_1540,59.9821282063,chinese_cond1,001,1006,
images/ruler02b.jpg,watermelon,x,sounds/greatgatsby_english.wav,,,,,,,,,0,0,0,0,0,129,129,238,366.420639978,9.30100213736e-06,367.134352101,0.713722706889,,,,,x,1,0.700416203123,2018_Nov_13_1540,59.9821282063,chinese_cond1,001,1006,
images/beachumbrella01.jpg,beach umbrella,z,sounds/greatgatsby_english.wav,,,,,,,,,0,0,0,0,0,130,130,92,368.240833958,8.98027792573e-06,368.868132866,0.627309811651,,,,,z,1,0.617059162934,2018_Nov_13_1540,59.9821282063,chinese_cond1,001,1006,
images/candycane01a.jpg,lip,x,sounds/greatgatsby_english.wav,,,,,,,,,0,0,0,0,0,131,131,200,369.962888424,9.30100213736e-06,370.785310472,0.822432952002,,,,,x,1,0.800465626526,2018_Nov_13_1540,59.9821282063,chinese_cond1,001,1006,
images/cactus.jpg,cactus,z,sounds/greatgatsby_english.wav,,,,,,,,,0,0,0,0,0,132,132,70,371.897861703,9.30100213736e-06,372.719134919,0.821284440579,,,,,z,1,0.800441893167,2018_Nov_13_1540,59.9821282063,chinese_cond1,001,1006,
images/banjo.jpg,knife,x,sounds/greatgatsby_english.wav,,,,,,,,,0,0,0,0,0,133,133,191,373.817293355,9.94245056063e-06,374.686304362,0.869021590799,,,,,x,1,0.850453936262,2018_Nov_13_1540,59.9821282063,chinese_cond1,001,1006,
images/hairpin.jpg,hair pin,z,sounds/greatgatsby_english.wav,,,,,,,,,0,0,0,0,0,134,134,28,375.778805234,9.30100213736e-06,376.420233942,0.641438971506,,,,,z,1,0.617140626768,2018_Nov_13_1540,59.9821282063,chinese_cond1,001,1006,
images/mattress.jpg,cat,x,sounds/greatgatsby_english.wav,,,,,,,,,0,0,0,0,0,135,135,147,377.524786005,8.98027792573e-06,378.303911963,0.779135899968,,,,,x,1,0.767098178971,2018_Nov_13_1540,59.9821282063,chinese_cond1,001,1006,
images/camera01a.jpg,bull,x,sounds/greatgatsby_english.wav,,,,,,,,,0,0,0,0,0,136,136,138,379.416400653,9.94245056063e-06,380.287768979,0.871378588839,,,,,x,1,0.850463557872,2018_Nov_13_1540,59.9821282063,chinese_cond1,001,1006,
images/computermouse02a.jpg,world map,x,sounds/greatgatsby_english.wav,,,,,,,,,0,0,0,0,0,137,137,239,381.391319743,9.94245056063e-06,382.338303802,0.946994322236,,,,,x,1,0.933832144132,2018_Nov_13_1540,59.9821282063,chinese_cond1,001,1006,
images/cola.jpg,comb,x,sounds/greatgatsby_english.wav,,,,,,,,,0,0,0,0,0,138,138,157,383.461523906,9.94245056063e-06,384.738918436,1.27740543545,,,,,x,1,1.26723015681,2018_Nov_13_1540,59.9821282063,chinese_cond1,001,1006,
images/cockroach02.jpg,belt,x,sounds/greatgatsby_english.wav,,,,,,,,,0,0,0,0,0,139,139,129,385.838795952,9.621726349e-06,386.689440719,0.850654709153,,,,,x,1,0.833808378549,2018_Nov_13_1540,59.9821282063,chinese_cond1,001,1006,
images/corn01.jpg,corn,z,sounds/greatgatsby_english.wav,,,,,,,,,0,0,0,0,0,140,140,22,387.789576096,9.621726349e-06,389.12337341,1.3338078974,,,,,z,1,1.31723321963,2018_Nov_13_1540,59.9821282063,chinese_cond1,001,1006,
images/egg01b (1).jpg,egg,z,sounds/greatgatsby_english.wav,,,,,,,,,0,0,0,0,0,141,141,19,390.237034987,9.94245056063e-06,391.057212931,0.820188848418,,,,,z,1,0.800434837118,2018_Nov_13_1540,59.9821282063,chinese_cond1,001,1006,
images/hairband.jpg,hairband,z,sounds/greatgatsby_english.wav,,,,,,,,,0,0,0,0,0,142,142,66,392.168130075,9.62160993367e-06,393.040912472,0.872793300892,,,,,z,1,0.850306082633,2018_Nov_13_1540,59.9821282063,chinese_cond1,001,1006,
images/ashtray02b.jpg,ashtray,z,sounds/greatgatsby_english.wav,,,,,,,,,0,0,0,0,0,143,143,43,394.156156499,9.30100213736e-06,395.258317888,1.10217229335,,,,,z,1,1.0838596141,2018_Nov_13_1540,59.9821282063,chinese_cond1,001,1006,
images/ladybug03.jpg,giraffe,x,sounds/greatgatsby_english.wav,,,,,,,,,0,0,0,0,0,144,144,178,396.362784318,9.621726349e-06,397.058762988,0.695988612948,,,,,x,1,0.683736327919,2018_Nov_13_1540,59.9821282063,chinese_cond1,001,1006,
images/tissuebox03.jpg,tissue box,z,sounds/greatgatsby_english.wav,,,,,,,,,0,0,0,0,0,145,145,58,398.184962615,9.94245056063e-06,399.025956165,0.841004134389,,,,,z,1,0.81711535377,2018_Nov_13_1540,59.9821282063,chinese_cond1,001,1006,
images/marker01a.jpg,marker,z,sounds/greatgatsby_english.wav,,,,,,,,,0,0,0,0,0,146,146,95,400.125551124,9.30100213736e-06,400.843082103,0.717541242717,,,,,z,1,0.700407543452,2018_Nov_13_1540,59.9821282063,chinese_cond1,001,1006,
images/lamp04b.jpg,parking meter,x,sounds/greatgatsby_english.wav,,,,,,,,,0,0,0,0,0,147,147,209,401.965224255,9.62160993367e-06,402.726903487,0.761689495179,,,,,x,1,0.750423114747,2018_Nov_13_1540,59.9821282063,chinese_cond1,001,1006,
images/gluestick.jpg,squirrel,x,sounds/greatgatsby_english.wav,,,,,,,,,0,0,0,0,0,148,148,226,403.835312252,9.30088572204e-06,404.410670604,0.575368294958,,,,,x,1,0.567043591873,2018_Nov_13_1540,59.9821282063,chinese_cond1,001,1006,
images/diaper01a.jpg,camera,x,sounds/greatgatsby_english.wav,,,,,,,,,0,0,0,0,0,149,149,143,405.532911218,9.621726349e-06,406.144463235,0.611562600941,,,,,x,1,0.600399493356,2018_Nov_13_1540,59.9821282063,chinese_cond1,001,1006,
images/giraffe.jpg,lettuce,x,sounds/greatgatsby_english.wav,,,,,,,,,0,0,0,0,0,150,150,195,407.246237831,9.94233414531e-06,407.778371615,0.532144367928,,,,,x,1,0.517186137498,2018_Nov_13_1540,59.9821282063,chinese_cond1,001,1006,
images/hand01a.jpg,cupcake,x,sounds/greatgatsby_english.wav,,,,,,,,,0,0,0,0,0,151,151,163,408.890222387,9.621726349e-06,410.478929899,1.58871777577,,,,,x,1,1.56732230063,2018_Nov_13_1540,59.9821282063,chinese_cond1,001,1006,
images/medal01.jpg,medal,z,sounds/greatgatsby_english.wav,,,,,,,,,0,0,0,0,0,152,152,115,411.582392785,9.30100213736e-06,412.279377886,0.696995364618,,,,,z,1,0.6837440253,2018_Nov_13_1540,59.9821282063,chinese_cond1,001,1006,
images/candy.jpg,candy,z,sounds/greatgatsby_english.wav,,,,,,,,,0,0,0,0,0,153,153,31,413.385316117,9.30100213736e-06,414.063181919,0.677876386093,,,,,z,1,0.667079544859,2018_Nov_13_1540,59.9821282063,chinese_cond1,001,1006,
images/diploma01.jpg,glasses,x,sounds/greatgatsby_english.wav,,,,,,,,,0,0,0,0,0,154,154,179,415.194824226,9.621726349e-06,415.896983241,0.70216927852,,,,,x,1,0.683741459507,2018_Nov_13_1540,59.9821282063,chinese_cond1,001,1006,
images/skateboard.jpg,key,x,sounds/greatgatsby_english.wav,,,,,,,,,0,0,0,0,0,155,155,189,416.988586087,9.621726349e-06,417.69747196,0.70889613661,,,,,x,1,0.700417485903,2018_Nov_13_1540,59.9821282063,chinese_cond1,001,1006,
images/ladder.jpg,ladder,z,sounds/greatgatsby_english.wav,,,,,,,,,0,0,0,0,0,156,156,113,418.791246425,9.30100213736e-06,419.464567573,0.673331090482,,,,,z,1,0.650383633561,2018_Nov_13_1540,59.9821282063,chinese_cond1,001,1006,
images/doll.jpg,carrot,x,sounds/greatgatsby_english.wav,,,,,,,,,0,0,0,0,0,157,157,146,420.577984117,9.94233414531e-06,421.165015528,0.587041994557,,,,,x,1,0.567029159283,2018_Nov_13_1540,59.9821282063,chinese_cond1,001,1006,
images/pineapple01a.jpg,pineapple,z,sounds/greatgatsby_english.wav,,,,,,,,,0,0,0,0,0,158,158,51,422.279139268,9.621726349e-06,422.948817957,0.669689273345,,,,,z,1,0.650404480635,2018_Nov_13_1540,59.9821282063,chinese_cond1,001,1006,
images/lily.jpg,kiwi,x,sounds/greatgatsby_english.wav,,,,,,,,,0,0,0,0,0,159,159,190,424.049758351,9.621726349e-06,424.815974219,0.766226452077,,,,,x,1,0.750436264323,2018_Nov_13_1540,59.9821282063,chinese_cond1,001,1006,
images/50dollarbill.jpg,cherry,x,sounds/greatgatsby_english.wav,,,,,,,,,0,0,0,0,0,160,160,151,425.992303274,9.94245056063e-06,426.733128412,0.740835401695,,,,,x,1,0.717082607793,2018_Nov_13_1540,59.9821282063,chinese_cond1,001,1006,
images/teapot.jpg,light switch,x,sounds/greatgatsby_english.wav,,,,,,,,,0,0,0,0,0,161,161,197,427.851147662,9.94233414531e-06,428.466973001,0.615849072579,,,,,x,1,0.600395003217,2018_Nov_13_1540,59.9821282063,chinese_cond1,001,1006,
images/hammer02a.jpg,flower,x,sounds/greatgatsby_english.wav,,,,,,,,,0,0,0,0,0,162,162,176,429.563068864,9.30100213736e-06,430.250724755,0.687666154932,,,,,x,1,0.66708948731,2018_Nov_13_1540,59.9821282063,chinese_cond1,001,1006,
images/orange.jpg,bat,x,sounds/greatgatsby_english.wav,,,,,,,,,0,0,0,0,0,163,163,128,431.376646635,9.94245056063e-06,432.017833518,0.641198108089,,,,,x,1,0.617067822488,2018_Nov_13_1540,59.9821282063,chinese_cond1,001,1006,
images/tank.jpg,wallet,x,sounds/greatgatsby_english.wav,,,,,,,,,0,0,0,0,0,164,164,237,433.124463229,9.30100213736e-06,433.751618131,0.627165165381,,,,,x,1,0.617066218751,2018_Nov_13_1540,59.9821282063,chinese_cond1,001,1006,
images/parkbench03.jpg,park bench,z,sounds/greatgatsby_english.wav,,,,,,,,,0,0,0,0,0,165,165,71,434.858535852,9.94233414531e-06,435.51872978,0.660204512533,,,,,z,1,0.650397103978,2018_Nov_13_1540,59.9821282063,chinese_cond1,001,1006,
images/bowl02b (1).jpg,bowl,z,sounds/greatgatsby_english.wav,,,,,,,,,0,0,0,0,0,166,166,24,436.638399474,9.94245056063e-06,437.369213544,0.730824333616,,,,,z,1,0.717032895656,2018_Nov_13_1540,59.9821282063,chinese_cond1,001,1006,
images/umbrella01.jpg,umbrella,z,sounds/greatgatsby_english.wav,,,,,,,,,0,0,0,0,0,167,167,53,438.48327827,1.05838989839e-05,439.686552282,1.20328491577,,,,,z,1,1.18392956397,2018_Nov_13_1540,59.9821282063,chinese_cond1,001,1006,
images/ear.jpg,bullet,x,sounds/greatgatsby_english.wav,,,,,,,,,0,0,0,0,0,168,168,139,440.791235521,9.621726349e-06,441.503615037,0.712389779394,,,,,x,1,0.700414278661,2018_Nov_13_1540,59.9821282063,chinese_cond1,001,1006,
images/ostrich.jpg,ostrich,z,sounds/greatgatsby_english.wav,,,,,,,,,0,0,0,0,0,169,169,76,442.606524994,9.94245056063e-06,444.037631789,1.43111673731,,,,,z,1,1.41729322704,2018_Nov_13_1540,59.9821282063,chinese_cond1,001,1006,
images/cloud.jpg,ceiling fan,x,sounds/greatgatsby_english.wav,,,,,,,,,0,0,0,0,0,170,170,149,445.143907742,9.94233414531e-06,446.404886674,1.26098919509,,,,,x,1,1.25055060233,2018_Nov_13_1540,59.9821282063,chinese_cond1,001,1006,
images/glasses01b.jpg,calculator,x,sounds/greatgatsby_english.wav,,,,,,,,,0,0,0,0,0,171,171,142,447.499075193,9.62160993367e-06,448.688830061,1.18976481003,,,,,x,1,1.16720959835,2018_Nov_13_1540,59.9821282063,chinese_cond1,001,1006,
images/hairdryer03a.jpg,hairdryer,z,sounds/greatgatsby_english.wav,,,,,,,,,0,0,0,0,0,172,172,119,449.789092124,9.94245056063e-06,450.956085876,1.1670040146,,,,,z,1,1.15053934488,2018_Nov_13_1540,59.9821282063,chinese_cond1,001,1006,
images/knife04.jpg,tooth brush,x,sounds/greatgatsby_english.wav,,,,,,,,,0,0,0,0,0,173,173,233,452.05384886,9.94245056063e-06,453.023288707,0.969450751087,,,,,x,1,0.950494700228,2018_Nov_13_1540,59.9821282063,chinese_cond1,001,1006,
images/lightswitch02a.jpg,fork,x,sounds/greatgatsby_english.wav,,,,,,,,,0,0,0,0,0,174,174,177,454.136961509,9.94245056063e-06,454.773720481,0.636769235134,,,,,x,1,0.617046333966,2018_Nov_13_1540,59.9821282063,chinese_cond1,001,1006,
images/safe.jpg,safe,z,sounds/greatgatsby_english.wav,,,,,,,,,0,0,0,0,0,175,175,78,455.886362477,9.621726349e-06,456.457496579,0.571144685149,,,,,x,0,0.55037750781,2018_Nov_13_1540,59.9821282063,chinese_cond1,001,1006,
images/lightbulb03b.jpg,treadmill,x,sounds/greatgatsby_english.wav,,,,,,,,,0,0,0,0,0,176,176,234,457.561059209,9.30100213736e-06,458.274626686,0.713577739662,,,,,x,1,0.700407543569,2018_Nov_13_1540,59.9821282063,chinese_cond1,001,1006,
images/birthdaycandle.jpg,birthday candle,z,sounds/greatgatsby_english.wav,,,,,,,,,0,0,0,0,0,177,177,55,459.372588198,9.62160993367e-06,460.058430398,0.685852462542,,,,,z,1,0.667075696285,2018_Nov_13_1540,59.9821282063,chinese_cond1,001,1006,
images/shotglass.jpg,shot glass,z,sounds/greatgatsby_english.wav,,,,,,,,,0,0,0,0,0,178,178,86,461.168338225,9.30088572204e-06,462.175651366,1.00732340384,,,,,z,1,0.983824302442,2018_Nov_13_1540,59.9821282063,chinese_cond1,001,1006,
images/worldmap.jpg,scooter,x,sounds/greatgatsby_english.wav,,,,,,,,,0,0,0,0,0,179,179,220,463.307503426,1.02630583569e-05,463.976117634,0.668624149985,,,,,x,1,0.650396141806,2018_Nov_13_1540,59.9821282063,chinese_cond1,001,1006,
images/ant.jpg,ant,z,sounds/greatgatsby_english.wav,,,,,,,,,0,0,0,0,0,180,180,98,465.071521696,9.621726349e-06,466.160023464,1.08851171075,,,,,z,1,1.06718904001,2018_Nov_13_1540,59.9821282063,chinese_cond1,001,1006,
images/eyedrops.jpg,bicycle,x,sounds/greatgatsby_english.wav,,,,,,,,,0,0,0,0,0,181,181,131,467.261154047,9.621726349e-06,467.893794286,0.632650181302,,,,,x,1,0.617057559313,2018_Nov_13_1540,59.9821282063,chinese_cond1,001,1006,
images/notebook02b.jpg,notebook,z,sounds/greatgatsby_english.wav,,,,,,,,,0,0,0,0,0,182,182,7,469.001522475,9.62160993367e-06,469.777621764,0.776109551429,,,,,z,1,0.767111649388,2018_Nov_13_1540,59.9821282063,chinese_cond1,001,1006,
images/leaf01a.jpg,leaf,z,sounds/greatgatsby_english.wav,,,,,,,,,0,0,0,0,0,183,183,68,470.881038144,9.621726349e-06,471.844840952,0.963813391398,,,,,z,1,0.950492134434,2018_Nov_13_1540,59.9821282063,chinese_cond1,001,1006,
images/toothbrush03a.jpg,parrot,x,sounds/greatgatsby_english.wav,,,,,,,,,0,0,0,0,0,184,184,210,472.938314257,9.62160993367e-06,473.76198841,0.823684415547,,,,,x,1,0.800452476949,2018_Nov_13_1540,59.9821282063,chinese_cond1,001,1006,
images/screw03c.jpg,screw,z,sounds/greatgatsby_english.wav,,,,,,,,,0,0,0,0,0,185,185,84,474.8570772,9.621726349e-06,475.495761156,0.638694218593,,,,,z,1,0.617053710623,2018_Nov_13_1540,59.9821282063,chinese_cond1,001,1006,
images/carrot02.jpg,corkscrew,x,sounds/greatgatsby_english.wav,,,,,,,,,0,0,0,0,0,186,186,161,476.599038342,9.94245056063e-06,477.362917418,0.763889018097,,,,,x,1,0.75042920839,2018_Nov_13_1540,59.9821282063,chinese_cond1,001,1006,
images/donut.jpg,rhinoceros,x,sounds/greatgatsby_english.wav,,,,,,,,,0,0,0,0,0,187,187,216,478.489262653,9.30100213736e-06,479.163388176,0.67413610674,,,,,x,1,0.650410574395,2018_Nov_13_1540,59.9821282063,chinese_cond1,001,1006,
images/highlighter03b.jpg,coin,x,sounds/greatgatsby_english.wav,,,,,,,,,0,0,0,0,0,188,188,156,480.268359746,9.94245056063e-06,480.897178883,0.628829721012,,,,,x,1,0.617078406387,2018_Nov_13_1540,59.9821282063,chinese_cond1,001,1006,
images/mushroom01.jpg,shower head,x,sounds/greatgatsby_english.wav,,,,,,,,,0,0,0,0,0,189,189,222,482.014281824,9.30100213736e-06,482.780990003,0.766718442203,,,,,x,1,0.750431453576,2018_Nov_13_1540,59.9821282063,chinese_cond1,001,1006,
images/croissant02b.jpg,croissant,z,sounds/greatgatsby_english.wav,,,,,,,,,0,0,0,0,0,190,190,39,483.892813192,9.621726349e-06,484.598122035,0.70531974698,,,,,z,1,0.683739535161,2018_Nov_13_1540,59.9821282063,chinese_cond1,001,1006,
images/globe.jpg,cloud,x,sounds/greatgatsby_english.wav,,,,,,,,,0,0,0,0,0,191,191,154,485.728522179,9.30100213736e-06,486.498612389,0.770100473077,,,,,x,1,0.750426001148,2018_Nov_13_1540,59.9821282063,chinese_cond1,001,1006,
images/clothespin02a.jpg,clothes pin,z,sounds/greatgatsby_english.wav,,,,,,,,,0,0,0,0,0,192,192,79,487.604518227,9.94245056063e-06,488.282409045,0.677901402465,,,,,z,1,0.667070885422,2018_Nov_13_1540,59.9821282063,chinese_cond1,001,1006,
images/lip.jpg,boxing glove,x,sounds/greatgatsby_english.wav,,,,,,,,,0,0,0,0,0,193,193,136,489.385981297,1.02631747723e-05,491.366540312,1.98056959885,,,,,x,1,1.96740934497,2018_Nov_13_1540,59.9821282063,chinese_cond1,001,1006,
images/stapler03a.jpg,candy cane,x,sounds/greatgatsby_english.wav,,,,,,,,,0,0,0,0,0,194,194,145,492.478272095,9.94233414531e-06,493.283843963,0.805582131026,,,,,x,1,0.783912116662,2018_Nov_13_1540,59.9821282063,chinese_cond1,001,1006,
images/chameleon.jpg,50 dollar bill,x,sounds/greatgatsby_english.wav,,,,,,,,,0,0,0,0,0,195,195,120,494.397509388,9.94245056063e-06,495.450948043,1.05344955937,,,,,x,1,1.03385206102,2018_Nov_13_1540,59.9821282063,chinese_cond1,001,1006,
images/nailpolish02b.jpg,nail polish,z,sounds/greatgatsby_english.wav,,,,,,,,,0,0,0,0,0,196,196,94,496.56187962,9.94233414531e-06,497.201391043,0.639522647718,,,,,x,0,0.617065898026,2018_Nov_13_1540,59.9821282063,chinese_cond1,001,1006,
images/hat05.jpg,hat,z,sounds/greatgatsby_english.wav,,,,,,,,,0,0,0,0,0,197,197,15,498.307475202,9.621726349e-06,499.085210181,0.777745562838,,,,,z,1,0.767101386213,2018_Nov_13_1540,59.9821282063,chinese_cond1,001,1006,
images/watermelon01.jpg,orange,x,sounds/greatgatsby_english.wav,,,,,,,,,0,0,0,0,0,198,198,207,500.216259791,9.94245056063e-06,500.969034131,0.752785885939,,,,,x,1,0.733756068512,2018_Nov_13_1540,59.9821282063,chinese_cond1,001,1006,
images/pouch01b.jpg,pouch,z,sounds/greatgatsby_english.wav,,,,,,,,,0,0,0,0,0,199,199,25,502.083489499,9.621726349e-06,502.836181413,0.752701856312,,,,,z,1,0.733748050407,2018_Nov_13_1540,59.9821282063,chinese_cond1,001,1006,
images/sportshorts02.jpg,tape,x,sounds/greatgatsby_english.wav,,,,,,,,,0,0,0,0,0,200,200,230,503.945531822,9.621726349e-06,505.186801003,1.24127944361,,,,,x,1,1.21723190474,2018_Nov_13_1540,59.9821282063,chinese_cond1,001,1006,
images/elbow.jpg,elbow,z,sounds/greatgatsby_english.wav,,,,,,,,,0,0,0,0,0,201,201,105,506.299789381,9.30088572204e-06,507.087288791,0.787509994465,,,,,z,1,0.767109083594,2018_Nov_13_1540,59.9821282063,chinese_cond1,001,1006,
images/apple06.jpg,apple,z,sounds/greatgatsby_english.wav,,,,,,,,,0,0,0,0,0,202,202,13,508.216810474,8.98027792573e-06,508.87107775,0.654276898014,,,,,z,1,0.633720756858,2018_Nov_13_1540,59.9821282063,chinese_cond1,001,1006,
images/wallet01.jpg,lamp,x,sounds/greatgatsby_english.wav,,,,,,,,,0,0,0,0,0,203,203,193,509.976688522,9.30100213736e-06,510.78825247,0.811573569663,,,,,x,1,0.800450873212,2018_Nov_13_1540,59.9821282063,chinese_cond1,001,1006,
images/gamecontroller01.jpg,game controller,z,sounds/greatgatsby_english.wav,,,,,,,,,0,0,0,0,0,204,204,112,511.910088651,9.30100213736e-06,512.80543524,0.89535685163,,,,,z,1,0.883795084432,2018_Nov_13_1540,59.9821282063,chinese_cond1,001,1006,
images/corkscrew02a.jpg,masquerade mask,x,sounds/greatgatsby_english.wav,,,,,,,,,0,0,0,0,0,205,205,201,513.910444334,9.621726349e-06,514.689256303,0.778822552878,,,,,x,1,0.767076369724,2018_Nov_13_1540,59.9821282063,chinese_cond1,001,1006,
images/lighter02b.jpg,stapler,x,sounds/greatgatsby_english.wav,,,,,,,,,0,0,0,0,0,206,206,227,515.792273703,5.99753111601e-05,516.9065113,1.11424753896,,,,,x,1,1.1005407722,2018_Nov_13_1540,59.9821282063,chinese_cond1,001,1006,
images/treadmill.jpg,lily,x,sounds/greatgatsby_english.wav,,,,,,,,,0,0,0,0,0,207,207,199,518.014052828,9.621726349e-06,518.690319181,0.676276937127,,,,,x,1,0.667104882072,2018_Nov_13_1540,59.9821282063,chinese_cond1,001,1006,
images/bandaid01.jpg,door handle,x,sounds/greatgatsby_english.wav,,,,,,,,,0,0,0,0,0,208,208,170,519.79878728,1.02631747723e-05,520.52410575,0.725328733679,,,,,x,1,0.717089343001,2018_Nov_13_1540,59.9821282063,chinese_cond1,001,1006,
images/paperclip04.jpg,eye drops,x,sounds/greatgatsby_english.wav,,,,,,,,,0,0,0,0,0,209,209,174,521.63173644,9.621726349e-06,522.291229908,0.659503731527,,,,,x,1,0.650416026707,2018_Nov_13_1540,59.9821282063,chinese_cond1,001,1006,
images/lock02a.jpg,lock,z,sounds/greatgatsby_english.wav,,,,,,,,,0,0,0,0,0,210,210,65,523.403437644,9.94245056063e-06,524.15837302,0.754946601111,,,,,z,1,0.733748050407,2018_Nov_13_1540,59.9821282063,chinese_cond1,001,1006,
images/pepper05a.jpg,lighter,x,sounds/greatgatsby_english.wav,,,,,,,,,0,0,0,0,0,211,211,198,525.280702154,9.621726349e-06,525.942185713,0.661493501044,,,,,x,1,0.650405763532,2018_Nov_13_1540,59.9821282063,chinese_cond1,001,1006,
images/icecube02 (2).jpg,aloe,x,sounds/greatgatsby_english.wav,,,,,,,,,0,0,0,0,0,212,212,122,527.053996072,9.94233414531e-06,527.809319845,0.755334355985,,,,,x,1,0.733755106223,2018_Nov_13_1540,59.9821282063,chinese_cond1,001,1006,
images/flamingo.jpg,flamingo,z,sounds/greatgatsby_english.wav,,,,,,,,,0,0,0,0,0,213,213,52,528.908520633,9.30088572204e-06,529.69312872,0.784618029254,,,,,z,1,0.767090160865,2018_Nov_13_1540,59.9821282063,chinese_cond1,001,1006,
images/fork01.jpg,cooking pot,x,sounds/greatgatsby_english.wav,,,,,,,,,0,0,0,0,0,214,214,160,530.790141532,8.98027792573e-06,531.476946223,0.686814954272,,,,,x,1,0.667081469321,2018_Nov_13_1540,59.9821282063,chinese_cond1,001,1006,
images/remotecontrol01c.jpg,remote control,z,sounds/greatgatsby_english.wav,,,,,,,,,0,0,0,0,0,215,215,85,532.587714873,9.62160993367e-06,533.27740736,0.689703391516,,,,,z,1,0.667080507148,2018_Nov_13_1540,59.9821282063,chinese_cond1,001,1006,
images/scooter.jpg,pen,x,sounds/greatgatsby_english.wav,,,,,,,,,0,0,0,0,0,216,216,212,534.370983938,9.621726349e-06,535.144560735,0.773587060045,,,,,x,1,0.750370515976,2018_Nov_13_1540,59.9821282063,chinese_cond1,001,1006,
images/snowman.jpg,globe,x,sounds/greatgatsby_english.wav,,,,,,,,,0,0,0,0,0,217,217,180,536.256882329,9.30100213736e-06,536.911686176,0.654814110138,,,,,x,1,0.633742886712,2018_Nov_13_1540,59.9821282063,chinese_cond1,001,1006,
images/drink.jpg,drink,z,sounds/greatgatsby_english.wav,,,,,,,,,0,0,0,0,0,218,218,117,538.014613453,9.94245056063e-06,538.795502428,0.780898917932,,,,,z,1,0.767098178971,2018_Nov_13_1540,59.9821282063,chinese_cond1,001,1006,
images/dolphin01.jpg,dolphin,z,sounds/greatgatsby_english.wav,,,,,,,,,0,0,0,0,0,219,219,99,539.896711909,9.62160993367e-06,540.495933705,0.599232379929,,,,,z,1,0.583710637991,2018_Nov_13_1540,59.9821282063,chinese_cond1,001,1006,
images/cauliflower01.jpg,glue stick,x,sounds/greatgatsby_english.wav,,,,,,,,,0,0,0,0,0,220,220,181,541.612633176,9.94245056063e-06,542.296411519,0.683789247414,,,,,x,1,0.667076979065,2018_Nov_13_1540,59.9821282063,chinese_cond1,001,1006,
images/lollipop03b.jpg,lollipop,z,sounds/greatgatsby_english.wav,,,,,,,,,0,0,0,0,0,221,221,42,543.391115442,1.02631747723e-05,544.313601345,0.922496487387,,,,,z,1,0.900467582978,2018_Nov_13_1540,59.9821282063,chinese_cond1,001,1006,
images/acousticguitar02.jpg,acoustic guitar,z,sounds/greatgatsby_english.wav,,,,,,,,,0,0,0,0,0,222,222,97,545.428802075,9.30100213736e-06,546.147411327,0.718619836261,,,,,z,1,0.700423900504,2018_Nov_13_1540,59.9821282063,chinese_cond1,001,1006,
images/gorilla.jpg,gorilla,z,sounds/greatgatsby_english.wav,,,,,,,,,0,0,0,0,0,223,223,80,547.259560692,9.30100213736e-06,548.764756576,1.50520646747,,,,,z,1,1.48394922435,2018_Nov_13_1540,59.9821282063,chinese_cond1,001,1006,
images/pipe.jpg,icecube,x,sounds/greatgatsby_english.wav,,,,,,,,,0,0,0,0,0,224,224,188,549.874682684,9.94245056063e-06,550.598561105,0.72388868453,,,,,x,1,0.700413957937,2018_Nov_13_1540,59.9821282063,chinese_cond1,001,1006,
images/crocodile.jpg,triangle ruler,x,sounds/greatgatsby_english.wav,,,,,,,,,0,0,0,0,0,225,225,235,551.696961689,9.621726349e-06,552.43238103,0.73543056671,,,,,x,1,0.717099285452,2018_Nov_13_1540,59.9821282063,chinese_cond1,001,1006,
images/flower01.jpg,bus,x,sounds/greatgatsby_english.wav,,,,,,,,,0,0,0,0,0,226,226,140,553.547938725,9.94245056063e-06,554.29952735,0.751598887611,,,,,x,1,0.73376889748,2018_Nov_13_1540,59.9821282063,chinese_cond1,001,1006,
images/rhinoceros01.jpg,envelope,x,sounds/greatgatsby_english.wav,,,,,,,,,0,0,0,0,0,227,227,173,555.414324609,9.62160993367e-06,556.000163569,0.58585916576,,,,,x,1,0.567214216804,2018_Nov_13_1540,59.9821282063,chinese_cond1,001,1006,
images/nametag01a.jpg,name tag,z,sounds/greatgatsby_english.wav,,,,,,,,,0,0,0,0,0,228,228,108,557.123030556,9.621726349e-06,557.867110078,0.744090105407,,,,,z,1,0.733753502718,2018_Nov_13_1540,59.9821282063,chinese_cond1,001,1006,
images/apricot.jpg,apricot,z,sounds/greatgatsby_english.wav,,,,,,,,,0,0,0,0,0,229,229,32,559.016653255,9.621726349e-06,559.734261208,0.717618216295,,,,,z,1,0.700412354432,2018_Nov_13_1540,59.9821282063,chinese_cond1,001,1006,
images/binder03b.jpg,dj mixer,x,sounds/greatgatsby_english.wav,,,,,,,,,0,0,0,0,0,230,230,167,560.847801872,9.621726349e-06,561.901487805,1.05369619583,,,,,x,1,1.03383345914,2018_Nov_13_1540,59.9821282063,chinese_cond1,001,1006,
,,,sounds/greatgatsby_english.wav,,,,,,,,,0,0,0,0,,,,,,,,,,,,,,,,2018_Nov_13_1540,59.9821282063,chinese_cond1,001,1006,
images/hairpin.jpg,hair pin,z,sounds/animalfarm_chinese.wav,,,,,,,,,0,1,1,1,0,0,0,28,583.017210994,9.94245056063e-06,586.007581266,2.99038149754,,,,572.904511588,None,0,,2018_Nov_13_1540,59.9821282063,chinese_cond1,001,1006,
images/pictureframe04.jpg,picture frame,z,sounds/animalfarm_chinese.wav,,,,,,,,,0,1,1,1,0,1,1,41,587.128090934,1.05838989839e-05,587.95849868,0.830418971018,,,,,z,1,0.817369366763,2018_Nov_13_1540,59.9821282063,chinese_cond1,001,1006,
images/bed.jpg,bed,z,sounds/animalfarm_chinese.wav,,,,,,,,,0,1,1,1,0,2,2,103,589.076675083,9.62160993367e-06,589.84205707,0.765391929075,,,,,z,1,0.750422473298,2018_Nov_13_1540,59.9821282063,chinese_cond1,001,1006,
images/saltshaker03c.jpg,salt shaker,z,sounds/animalfarm_chinese.wav,,,,,,,,,0,1,1,1,0,3,3,63,590.951906526,9.94245056063e-06,592.042633154,1.09073689149,,,,,z,1,1.06718134251,2018_Nov_13_1540,59.9821282063,chinese_cond1,001,1006,
images/lollipop03b.jpg,lollipop,z,sounds/animalfarm_chinese.wav,,,,,,,,,0,1,1,1,0,4,4,42,593.133294034,9.94245056063e-06,594.459919004,1.32663523359,,,,,z,1,1.31724284147,2018_Nov_13_1540,59.9821282063,chinese_cond1,001,1006,
images/bracelet02a.jpg,chess knight,x,sounds/animalfarm_chinese.wav,,,,,,,,,0,1,1,1,0,5,5,152,595.566505418,9.94233414531e-06,596.393766223,0.82727138896,,,,,x,1,0.817121768137,2018_Nov_13_1540,59.9821282063,chinese_cond1,001,1006,
images/apricot.jpg,apricot,z,sounds/animalfarm_chinese.wav,,,,,,,,,0,1,1,1,0,6,6,32,597.510102956,9.621726349e-06,598.227610522,0.717538035475,,,,,z,1,0.70041042997,2018_Nov_13_1540,59.9821282063,chinese_cond1,001,1006,
images/clothespin02a.jpg,clothes pin,z,sounds/animalfarm_chinese.wav,,,,,,,,,0,1,1,1,0,7,7,79,599.332666121,9.94233414531e-06,600.011368371,0.678712512599,,,,,z,1,0.667077941238,2018_Nov_13_1540,59.9821282063,chinese_cond1,001,1006,
images/tie01.jpg,bench,x,sounds/animalfarm_chinese.wav,,,,,,,,,0,1,1,1,0,8,8,130,601.109680113,9.621726349e-06,601.828510024,0.718839852721,,,,,x,1,0.700413958053,2018_Nov_13_1540,59.9821282063,chinese_cond1,001,1006,
images/bottleofredwine02.jpg,pipe,x,sounds/animalfarm_chinese.wav,,,,,,,,,0,1,1,1,0,9,9,213,602.926279102,9.30100213736e-06,604.079087888,1.15281904861,,,,,x,1,1.13386460138,2018_Nov_13_1540,59.9821282063,chinese_cond1,001,1006,
images/beachumbrella01.jpg,beach umbrella,z,sounds/animalfarm_chinese.wav,,,,,,,,,0,1,1,1,0,10,10,92,605.185008158,1.02631747723e-05,605.829581561,0.644583987771,,,,,z,1,0.633782015066,2018_Nov_13_1540,59.9821282063,chinese_cond1,001,1006,
images/marker01a.jpg,marker,z,sounds/animalfarm_chinese.wav,,,,,,,,,0,1,1,1,0,11,11,95,606.926066142,9.94245056063e-06,607.680017537,0.75396133808,,,,,z,1,0.733757672017,2018_Nov_13_1540,59.9821282063,chinese_cond1,001,1006,
images/acousticguitar02.jpg,acoustic guitar,z,sounds/animalfarm_chinese.wav,,,,,,,,,0,1,1,1,0,12,12,97,608.79204631,9.94245056063e-06,609.347377074,0.555350648821,,,,,z,1,0.533934968058,2018_Nov_13_1540,59.9821282063,chinese_cond1,001,1006,
images/cheetah.jpg,cheetah,z,sounds/animalfarm_chinese.wav,,,,,,,,,0,1,1,1,0,13,13,82,610.449463413,1.02631747723e-05,611.230941237,0.781488407869,,,,,z,1,0.767101065489,2018_Nov_13_1540,59.9821282063,chinese_cond1,001,1006,
images/daisy.jpg,daisy,z,sounds/animalfarm_chinese.wav,,,,,,,,,0,1,1,1,0,14,14,6,612.332215504,9.621726349e-06,613.164788776,0.832584176329,,,,,z,1,0.817120806081,2018_Nov_13_1540,59.9821282063,chinese_cond1,001,1006,
images/antelope.jpg,antelope,z,sounds/animalfarm_chinese.wav,,,,,,,,,0,1,1,1,0,15,15,12,614.268489959,9.94245056063e-06,614.898559277,0.630080222618,,,,,z,1,0.617068463936,2018_Nov_13_1540,59.9821282063,chinese_cond1,001,1006,
images/flashlight05.jpg,flash light,z,sounds/animalfarm_chinese.wav,,,,,,,,,0,1,1,1,0,16,16,8,615.999968248,9.621726349e-06,616.799049632,0.799091967172,,,,,z,1,0.783770677517,2018_Nov_13_1540,59.9821282063,chinese_cond1,001,1006,
images/fryingpan01.jpg,frying pan,z,sounds/animalfarm_chinese.wav,,,,,,,,,0,1,1,1,0,17,17,45,617.89795792,1.05838989839e-05,618.482802637,0.584854659275,,,,,z,1,0.567039101734,2018_Nov_13_1540,59.9821282063,chinese_cond1,001,1006,
images/apple06.jpg,apple,z,sounds/animalfarm_chinese.wav,,,,,,,,,0,1,1,1,0,18,18,13,619.608477881,9.621726349e-06,620.249972017,0.641505040694,,,,,z,1,0.617083217134,2018_Nov_13_1540,59.9821282063,chinese_cond1,001,1006,
images/bullet (2).jpg,rubber glove,x,sounds/animalfarm_chinese.wav,,,,,,,,,0,1,1,1,0,19,19,217,621.354328118,9.94245056063e-06,622.233788301,0.879470767453,,,,,x,1,0.867111681495,2018_Nov_13_1540,59.9821282063,chinese_cond1,001,1006,
images/seagull.jpg,seagull,z,sounds/animalfarm_chinese.wav,,,,,,,,,0,1,1,1,0,20,20,50,623.339924739,9.621726349e-06,623.984252148,0.644337672042,,,,,z,1,0.63374577323,2018_Nov_13_1540,59.9821282063,chinese_cond1,001,1006,
images/cupcake.jpg,scissors,x,sounds/animalfarm_chinese.wav,,,,,,,,,0,1,1,1,0,21,21,219,625.101790953,9.94245056063e-06,625.868074494,0.766294124769,,,,,x,1,0.750414455193,2018_Nov_13_1540,59.9821282063,chinese_cond1,001,1006,
images/belt02a.jpg,snowman,x,sounds/animalfarm_chinese.wav,,,,,,,,,0,1,1,1,0,22,22,224,626.97023011,9.94245056063e-06,627.601844995,0.631625469192,,,,,z,0,0.617059804266,2018_Nov_13_1540,59.9821282063,chinese_cond1,001,1006,
images/swan.jpg,swan,z,sounds/animalfarm_chinese.wav,,,,,,,,,0,1,1,1,0,23,23,54,628.692802544,1.02631747723e-05,629.45233389,0.759541929699,,,,,z,1,0.750433698646,2018_Nov_13_1540,59.9821282063,chinese_cond1,001,1006,
images/lamp04b.jpg,parking meter,x,sounds/animalfarm_chinese.wav,,,,,,,,,0,1,1,1,0,24,24,209,630.572271387,1.02631747723e-05,631.236156845,0.663895721198,,,,,x,1,0.650396141806,2018_Nov_13_1540,59.9821282063,chinese_cond1,001,1006,
images/tape01a.jpg,tie,x,sounds/animalfarm_chinese.wav,,,,,,,,,0,1,1,1,0,25,25,232,632.360602755,9.621726349e-06,633.019929126,0.659335992998,,,,,x,1,0.650413460913,2018_Nov_13_1540,59.9821282063,chinese_cond1,001,1006,
images/leek.jpg,donut,x,sounds/animalfarm_chinese.wav,,,,,,,,,0,1,1,1,0,26,26,169,634.121041107,9.30100213736e-06,635.853976765,1.73294559983,,,,,x,1,1.71733565885,2018_Nov_13_1540,59.9821282063,chinese_cond1,001,1006,
images/volleyball.jpg,volley ball,z,sounds/animalfarm_chinese.wav,,,,,,,,,0,1,1,1,0,27,27,2,636.986240955,1.09046231955e-05,637.921197557,0.934967826586,,,,,z,1,0.917151306872,2018_Nov_13_1540,59.9821282063,chinese_cond1,001,1006,
images/ashtray02b.jpg,ashtray,z,sounds/animalfarm_chinese.wav,,,,,,,,,0,1,1,1,0,28,28,43,639.034052193,9.94245056063e-06,639.704999344,0.670958055998,,,,,z,1,0.650412819465,2018_Nov_13_1540,59.9821282063,chinese_cond1,001,1006,
images/microphone01.jpg,diaper,x,sounds/animalfarm_chinese.wav,,,,,,,,,0,1,1,1,0,29,29,164,640.803981399,9.62160993367e-06,641.405438319,0.601467182394,,,,,x,1,0.583736295928,2018_Nov_13_1540,59.9821282063,chinese_cond1,001,1006,
images/lightbulb03b.jpg,treadmill,x,sounds/animalfarm_chinese.wav,,,,,,,,,0,1,1,1,0,30,30,234,642.507255892,9.62160993367e-06,643.122538246,0.615293258452,,,,,x,1,0.600393078988,2018_Nov_13_1540,59.9821282063,chinese_cond1,001,1006,
images/lip.jpg,boxing glove,x,sounds/animalfarm_chinese.wav,,,,,,,,,0,1,1,1,0,31,31,136,644.224845884,9.94245056063e-06,644.856329273,0.631493972498,,,,,x,1,0.617049220484,2018_Nov_13_1540,59.9821282063,chinese_cond1,001,1006,
images/dresser02.jpg,dresser,z,sounds/animalfarm_chinese.wav,,,,,,,,,0,1,1,1,0,32,32,87,645.977451523,9.621726349e-06,646.723476555,0.746035294374,,,,,z,1,0.733763445169,2018_Nov_13_1540,59.9821282063,chinese_cond1,001,1006,
images/highheelshoe02a.jpg,high heel shoe,z,sounds/animalfarm_chinese.wav,,,,,,,,,0,1,1,1,0,33,33,75,647.828674876,9.62160993367e-06,648.724007994,0.895343701821,,,,,z,1,0.883821063209,2018_Nov_13_1540,59.9821282063,chinese_cond1,001,1006,
images/birthdaycandle.jpg,birthday candle,z,sounds/animalfarm_chinese.wav,,,,,,,,,0,1,1,1,0,34,34,55,649.819417829,9.30100213736e-06,650.957897323,1.13848943659,,,,,z,1,1.11719242355,2018_Nov_13_1540,59.9821282063,chinese_cond1,001,1006,
images/mushroom01.jpg,shower head,x,sounds/animalfarm_chinese.wav,,,,,,,,,0,1,1,1,0,35,35,222,652.07365098,9.30088572204e-06,652.875081023,0.801440305775,,,,,x,1,0.783784468542,2018_Nov_13_1540,59.9821282063,chinese_cond1,001,1006,
images/sportshorts02.jpg,tape,x,sounds/animalfarm_chinese.wav,,,,,,,,,0,1,1,1,0,36,36,230,653.982473094,9.621726349e-06,654.742228625,0.759765474126,,,,,x,1,0.750446527498,2018_Nov_13_1540,59.9821282063,chinese_cond1,001,1006,
images/bicycle.jpg,hand bag,x,sounds/animalfarm_chinese.wav,,,,,,,,,0,1,1,1,0,37,37,186,655.852339471,9.621726349e-06,656.576024816,0.723695608904,,,,,x,1,0.700418127351,2018_Nov_13_1540,59.9821282063,chinese_cond1,001,1006,
images/grandpiano.jpg,tulip,x,sounds/animalfarm_chinese.wav,,,,,,,,,0,1,1,1,0,38,38,236,657.690087939,9.621726349e-06,658.493183179,0.803105182247,,,,,x,1,0.783770036069,2018_Nov_13_1540,59.9821282063,chinese_cond1,001,1006,
images/medal01.jpg,medal,z,sounds/animalfarm_chinese.wav,,,,,,,,,0,1,1,1,0,39,39,115,659.592485958,9.94245056063e-06,660.22680743,0.634332056157,,,,,z,1,0.616900725523,2018_Nov_13_1540,59.9821282063,chinese_cond1,001,1006,
images/candy.jpg,candy,z,sounds/animalfarm_chinese.wav,,,,,,,,,0,1,1,1,0,40,40,31,661.328457585,9.621726349e-06,661.994377073,0.66593007138,,,,,z,1,0.650625459268,2018_Nov_13_1540,59.9821282063,chinese_cond1,001,1006,
images/50dollarbill.jpg,cherry,x,sounds/animalfarm_chinese.wav,,,,,,,,,0,1,1,1,0,41,41,151,663.114588147,9.30088572204e-06,664.511410546,1.39683298219,,,,,x,1,1.38391744054,2018_Nov_13_1540,59.9821282063,chinese_cond1,001,1006,
images/electrictoothbrush01a.jpg,banjo,x,sounds/animalfarm_chinese.wav,,,,,,,,,0,1,1,1,0,42,42,127,665.605282511,9.621726349e-06,668.562296882,2.95702495449,,,,,x,1,2.93415575428,2018_Nov_13_1540,59.9821282063,chinese_cond1,001,1006,
images/treadmill.jpg,lily,x,sounds/animalfarm_chinese.wav,,,,,,,,,0,1,1,1,0,43,43,199,669.669274898,9.621726349e-06,670.329599682,0.660335047171,,,,,x,1,0.65041249874,2018_Nov_13_1540,59.9821282063,chinese_cond1,001,1006,
images/envelope02a.jpg,grand piano,x,sounds/animalfarm_chinese.wav,,,,,,,,,0,1,1,1,0,44,44,182,671.450917254,9.94245056063e-06,672.130067875,0.679161205073,,,,,x,1,0.667089808034,2018_Nov_13_1540,59.9821282063,chinese_cond1,001,1006,
images/lion.jpg,lion,z,sounds/animalfarm_chinese.wav,,,,,,,,,0,1,1,1,0,45,45,44,673.264942435,9.621726349e-06,673.930536388,0.665604536771,,,,,z,1,0.650417309604,2018_Nov_13_1540,59.9821282063,chinese_cond1,001,1006,
images/tent.jpg,tent,z,sounds/animalfarm_chinese.wav,,,,,,,,,0,1,1,1,0,46,46,11,675.055665439,8.98027792573e-06,675.664329981,0.608674163697,,,,,z,1,0.600395003217,2018_Nov_13_1540,59.9821282063,chinese_cond1,001,1006,
images/hammer02a.jpg,flower,x,sounds/animalfarm_chinese.wav,,,,,,,,,0,1,1,1,0,47,47,176,676.758155121,9.621726349e-06,677.514781351,0.756636173348,,,,,x,1,0.733757030685,2018_Nov_13_1540,59.9821282063,chinese_cond1,001,1006,
images/lychee02a.jpg,lychee,z,sounds/animalfarm_chinese.wav,,,,,,,,,0,1,1,1,0,48,48,62,678.63902745,8.98027792573e-06,679.36527602,0.726258511539,,,,,z,1,0.717101209797,2018_Nov_13_1540,59.9821282063,chinese_cond1,001,1006,
images/gamecontroller01.jpg,game controller,z,sounds/animalfarm_chinese.wav,,,,,,,,,0,1,1,1,0,49,49,112,680.484489644,9.94245056063e-06,681.265758997,0.781279937481,,,,,z,1,0.767094009556,2018_Nov_13_1540,59.9821282063,chinese_cond1,001,1006,
images/drink.jpg,drink,z,sounds/animalfarm_chinese.wav,,,,,,,,,0,1,1,1,0,50,50,117,682.364494737,1.02631747723e-05,682.982860849,0.618376054335,,,,,z,1,0.600380249904,2018_Nov_13_1540,59.9821282063,chinese_cond1,001,1006,
images/cola.jpg,comb,x,sounds/animalfarm_chinese.wav,,,,,,,,,0,1,1,1,0,51,51,157,684.105845221,1.09046231955e-05,684.983762724,0.877928728121,,,,,x,1,0.867445554817,2018_Nov_13_1540,59.9821282063,chinese_cond1,001,1006,
images/cockroach02.jpg,belt,x,sounds/animalfarm_chinese.wav,,,,,,,,,0,1,1,1,0,52,52,129,686.080650774,9.94245056063e-06,687.550730304,1.47009043454,,,,,x,1,1.45062892302,2018_Nov_13_1540,59.9821282063,chinese_cond1,001,1006,
images/lily.jpg,kiwi,x,sounds/animalfarm_chinese.wav,,,,,,,,,0,1,1,1,0,53,53,190,688.648788675,9.621726349e-06,689.467895081,0.819116990082,,,,,x,1,0.800452156225,2018_Nov_13_1540,59.9821282063,chinese_cond1,001,1006,
images/cat.jpg,black olive,x,sounds/animalfarm_chinese.wav,,,,,,,,,0,1,1,1,0,54,54,133,690.597178466,9.62160993367e-06,691.335031137,0.7378626141,,,,,x,1,0.717083249241,2018_Nov_13_1540,59.9821282063,chinese_cond1,001,1006,
images/watermelon01.jpg,orange,x,sounds/animalfarm_chinese.wav,,,,,,,,,0,1,1,1,0,55,55,207,692.463936389,1.02631747723e-05,693.819014038,1.35508823267,,,,,x,1,1.33392688585,2018_Nov_13_1540,59.9821282063,chinese_cond1,001,1006,
images/chameleon.jpg,50 dollar bill,x,sounds/animalfarm_chinese.wav,,,,,,,,,0,1,1,1,0,56,56,120,694.928058798,9.94245056063e-06,695.869536673,0.941488459241,,,,,x,1,0.917139119352,2018_Nov_13_1540,59.9821282063,chinese_cond1,001,1006,
images/lighter02b.jpg,stapler,x,sounds/animalfarm_chinese.wav,,,,,,,,,0,1,1,1,0,57,57,227,696.969772437,9.30100213736e-06,697.603311985,0.633549811086,,,,,x,1,0.617053710623,2018_Nov_13_1540,59.9821282063,chinese_cond1,001,1006,
images/scissors04a.jpg,leek,x,sounds/animalfarm_chinese.wav,,,,,,,,,0,1,1,1,0,58,58,194,698.697097996,9.30100213736e-06,699.387122753,0.690035019885,,,,,x,1,0.667074413388,2018_Nov_13_1540,59.9821282063,chinese_cond1,001,1006,
images/radio03a.jpg,radio,z,sounds/animalfarm_chinese.wav,,,,,,,,,0,1,1,1,0,59,59,37,700.499961994,9.30100213736e-06,701.237600423,0.737649012241,,,,,z,1,0.717087097932,2018_Nov_13_1540,59.9821282063,chinese_cond1,001,1006,
images/coin01b.jpg,arrow,x,sounds/animalfarm_chinese.wav,,,,,,,,,0,1,1,1,0,60,60,124,702.339307346,9.62160993367e-06,703.071407839,0.732111076824,,,,,x,1,0.717088060221,2018_Nov_13_1540,59.9821282063,chinese_cond1,001,1006,
images/eyedrops.jpg,bicycle,x,sounds/animalfarm_chinese.wav,,,,,,,,,0,1,1,1,0,61,61,131,704.170678225,9.30100213736e-06,704.805185075,0.634516792838,,,,,x,1,0.617059483659,2018_Nov_13_1540,59.9821282063,chinese_cond1,001,1006,
images/crocodile.jpg,triangle ruler,x,sounds/animalfarm_chinese.wav,,,,,,,,,0,1,1,1,0,62,62,235,705.903199828,9.94245056063e-06,706.588988466,0.685799543164,,,,,x,1,0.667059660074,2018_Nov_13_1540,59.9821282063,chinese_cond1,001,1006,
images/umbrella01.jpg,umbrella,z,sounds/animalfarm_chinese.wav,,,,,,,,,0,1,1,1,0,63,63,53,707.700914287,9.62160993367e-06,708.439465174,0.738561470993,,,,,z,1,0.717063685064,2018_Nov_13_1540,59.9821282063,chinese_cond1,001,1006,
images/bowlingball.jpg,bowling ball,z,sounds/animalfarm_chinese.wav,,,,,,,,,0,1,1,1,0,64,64,20,709.570968929,9.621726349e-06,710.239973136,0.669014791492,,,,,z,1,0.650449381908,2018_Nov_13_1540,59.9821282063,chinese_cond1,001,1006,
images/giraffe.jpg,lettuce,x,sounds/animalfarm_chinese.wav,,,,,,,,,0,1,1,1,0,65,65,195,711.339807996,9.30100213736e-06,712.240480521,0.900683430023,,,,,x,1,0.883829401922,2018_Nov_13_1540,59.9821282063,chinese_cond1,001,1006,
images/grasshopper.jpg,cauliflower,x,sounds/animalfarm_chinese.wav,,,,,,,,,0,1,1,1,0,66,66,148,713.332713909,9.621726349e-06,714.891141901,1.55843857606,,,,,x,1,1.533979228,2018_Nov_13_1540,59.9821282063,chinese_cond1,001,1006,
images/candle08a.jpg,screw driver,x,sounds/animalfarm_chinese.wav,,,,,,,,,0,1,1,1,0,67,67,221,716.003516735,1.02631747723e-05,716.64173532,0.638229169184,,,,,x,1,0.617205092218,2018_Nov_13_1540,59.9821282063,chinese_cond1,001,1006,
images/lock02a.jpg,lock,z,sounds/animalfarm_chinese.wav,,,,,,,,,0,1,1,1,0,68,68,65,717.753168189,9.30100213736e-06,718.425389896,0.67223261192,,,,,z,1,0.65040865005,2018_Nov_13_1540,59.9821282063,chinese_cond1,001,1006,
images/ruler02b.jpg,watermelon,x,sounds/animalfarm_chinese.wav,,,,,,,,,0,1,1,1,0,69,69,238,719.526368776,9.621726349e-06,720.175842196,0.649484003778,,,,,x,1,0.63373358571,2018_Nov_13_1540,59.9821282063,chinese_cond1,001,1006,
images/feather03b.jpg,feather,z,sounds/animalfarm_chinese.wav,,,,,,,,,0,1,1,1,0,70,70,114,721.275055814,9.30100213736e-06,722.026331412,0.751286182087,,,,,z,1,0.733775632572,2018_Nov_13_1540,59.9821282063,chinese_cond1,001,1006,
images/dice05a.jpg,band aid,x,sounds/animalfarm_chinese.wav,,,,,,,,,0,1,1,1,0,71,71,126,723.137527266,9.30100213736e-06,723.893470355,0.755953352666,,,,,x,1,0.733761841431,2018_Nov_13_1540,59.9821282063,chinese_cond1,001,1006,
images/raisin.jpg,ruler,x,sounds/animalfarm_chinese.wav,,,,,,,,,0,1,1,1,0,72,72,218,724.998001571,9.621726349e-06,725.627260741,0.629269753932,,,,,x,1,0.617074236972,2018_Nov_13_1540,59.9821282063,chinese_cond1,001,1006,
images/aloe02.jpg,broad sword,x,sounds/animalfarm_chinese.wav,,,,,,,,,0,1,1,1,0,73,73,137,726.747561297,9.621726349e-06,727.411057397,0.663506362704,,,,,x,1,0.650372087606,2018_Nov_13_1540,59.9821282063,chinese_cond1,001,1006,
images/orange.jpg,bat,x,sounds/animalfarm_chinese.wav,,,,,,,,,0,1,1,1,0,74,74,128,728.535475083,9.94245056063e-06,729.378226841,0.84276234149,,,,,x,1,0.833797473926,2018_Nov_13_1540,59.9821282063,chinese_cond1,001,1006,
images/headphones02b.jpg,headphones,z,sounds/animalfarm_chinese.wav,,,,,,,,,0,1,1,1,0,75,75,101,730.484242687,9.30088572204e-06,731.112008888,0.627776464564,,,,,z,1,0.617069426109,2018_Nov_13_1540,59.9821282063,chinese_cond1,001,1006,
images/triangleruler02.jpg,bottle of red wine,x,sounds/animalfarm_chinese.wav,,,,,,,,,0,1,1,1,0,76,76,134,732.221996255,8.98027792573e-06,732.979152321,0.757166008814,,,,,x,1,0.733742918819,2018_Nov_13_1540,59.9821282063,chinese_cond1,001,1006,
images/pingpongpaddle01c (1).jpg,ping pong paddle,z,sounds/animalfarm_chinese.wav,,,,,,,,,0,1,1,1,0,77,77,10,734.088452377,9.94245056063e-06,734.696281113,0.607838999247,,,,,z,1,0.583735333639,2018_Nov_13_1540,59.9821282063,chinese_cond1,001,1006,
images/hairdryer03a.jpg,hairdryer,z,sounds/animalfarm_chinese.wav,,,,,,,,,0,1,1,1,0,78,78,119,735.79398765,9.621726349e-06,736.480072638,0.68609621271,,,,,z,1,0.667076658341,2018_Nov_13_1540,59.9821282063,chinese_cond1,001,1006,
images/graduationcap.jpg,graduation cap,z,sounds/animalfarm_chinese.wav,,,,,,,,,0,1,1,1,0,79,79,35,737.582375145,9.94245056063e-06,738.197195336,0.614830454229,,,,,z,1,0.600411360152,2018_Nov_13_1540,59.9821282063,chinese_cond1,001,1006,
images/icecube02 (2).jpg,aloe,x,sounds/animalfarm_chinese.wav,,,,,,,,,0,1,1,1,0,80,80,122,739.306687826,9.30100213736e-06,740.131031649,0.824354086537,,,,,x,1,0.800455363467,2018_Nov_13_1540,59.9821282063,chinese_cond1,001,1006,
images/aquarium.jpg,computer mouse,x,sounds/animalfarm_chinese.wav,,,,,,,,,0,1,1,1,0,81,81,159,741.267023611,9.30100213736e-06,742.498291986,1.23127767642,,,,,x,1,1.21722196229,2018_Nov_13_1540,59.9821282063,chinese_cond1,001,1006,
images/ladybug03.jpg,giraffe,x,sounds/animalfarm_chinese.wav,,,,,,,,,0,1,1,1,0,82,82,178,743.600376081,9.621726349e-06,744.265408767,0.665043591172,,,,,x,1,0.650392934564,2018_Nov_13_1540,59.9821282063,chinese_cond1,001,1006,
images/lemon02.jpg,lemon,z,sounds/animalfarm_chinese.wav,,,,,,,,,0,1,1,1,0,83,83,14,745.375546232,9.94245056063e-06,747.11616258,1.74062693142,,,,,z,1,1.71735714737,2018_Nov_13_1540,59.9821282063,chinese_cond1,001,1006,
images/stapler03a.jpg,candy cane,x,sounds/animalfarm_chinese.wav,,,,,,,,,0,1,1,1,0,84,84,145,748.225258014,9.621726349e-06,748.983301202,0.758053451194,,,,,x,1,0.733748371131,2018_Nov_13_1540,59.9821282063,chinese_cond1,001,1006,
images/key03b.jpg,cigar,x,sounds/animalfarm_chinese.wav,,,,,,,,,0,1,1,1,0,85,85,153,750.085127114,9.62160993367e-06,750.800457288,0.715340436902,,,,,x,1,0.700429352815,2018_Nov_13_1540,59.9821282063,chinese_cond1,001,1006,
images/elbow.jpg,elbow,z,sounds/animalfarm_chinese.wav,,,,,,,,,0,1,1,1,0,86,86,105,751.911128758,9.94245056063e-06,752.567563164,0.65644498996,,,,,z,1,0.633732944261,2018_Nov_13_1540,59.9821282063,chinese_cond1,001,1006,
images/highlighter03b.jpg,coin,x,sounds/animalfarm_chinese.wav,,,,,,,,,0,1,1,1,0,87,87,156,753.668725178,9.621726349e-06,754.301347777,0.63263254147,,,,,x,1,0.617059162934,2018_Nov_13_1540,59.9821282063,chinese_cond1,001,1006,
images/gorilla.jpg,gorilla,z,sounds/animalfarm_chinese.wav,,,,,,,,,0,1,1,1,0,88,88,80,755.411969535,9.621726349e-06,756.101817252,0.689857980353,,,,,z,1,0.667068319512,2018_Nov_13_1540,59.9821282063,chinese_cond1,001,1006,
images/snowman.jpg,globe,x,sounds/animalfarm_chinese.wav,,,,,,,,,0,1,1,1,0,89,89,180,757.212226691,8.98027792573e-06,757.802249492,0.590032742708,,,,,x,1,0.567044233205,2018_Nov_13_1540,59.9821282063,chinese_cond1,001,1006,
images/honeycomb.jpg,honey comb,z,sounds/animalfarm_chinese.wav,,,,,,,,,0,1,1,1,0,90,90,59,758.913740732,9.94245056063e-06,759.752765039,0.839034249773,,,,,z,1,0.817115674377,2018_Nov_13_1540,59.9821282063,chinese_cond1,001,1006,
images/flamingo.jpg,flamingo,z,sounds/animalfarm_chinese.wav,,,,,,,,,0,1,1,1,0,91,91,52,760.850537966,9.30100213736e-06,761.619934771,0.769406747771,,,,,z,1,0.750449093292,2018_Nov_13_1540,59.9821282063,chinese_cond1,001,1006,
images/teapot.jpg,light switch,x,sounds/animalfarm_chinese.wav,,,,,,,,,0,1,1,1,0,92,92,197,762.735638075,9.30100213736e-06,763.453735773,0.718107640627,,,,,x,1,0.700429994264,2018_Nov_13_1540,59.9821282063,chinese_cond1,001,1006,
images/hat05.jpg,hat,z,sounds/animalfarm_chinese.wav,,,,,,,,,0,1,1,1,0,93,93,15,764.558830821,9.94245056063e-06,765.087489244,0.528669327148,,,,,z,1,0.517043415457,2018_Nov_13_1540,59.9821282063,chinese_cond1,001,1006,
images/safe.jpg,safe,z,sounds/animalfarm_chinese.wav,,,,,,,,,0,1,1,1,0,94,94,78,766.197880722,9.621726349e-06,766.854606345,0.656736207078,,,,,z,1,0.633733265102,2018_Nov_13_1540,59.9821282063,chinese_cond1,001,1006,
images/charcoalbarbecue.jpg,charcoal barbecue,z,sounds/animalfarm_chinese.wav,,,,,,,,,0,1,1,1,0,95,95,77,767.971136795,9.621726349e-06,768.638394983,0.667268451187,,,,,z,1,0.650395179633,2018_Nov_13_1540,59.9821282063,chinese_cond1,001,1006,
images/toothbrush03a.jpg,parrot,x,sounds/animalfarm_chinese.wav,,,,,,,,,0,1,1,1,0,96,96,210,769.73044588,9.94245056063e-06,770.605583671,0.875148054096,,,,,x,1,0.867133490625,2018_Nov_13_1540,59.9821282063,chinese_cond1,001,1006,
images/doorhandle.jpg,doll,x,sounds/animalfarm_chinese.wav,,,,,,,,,0,1,1,1,0,97,97,168,771.707492329,9.62160993367e-06,772.556070994,0.848589248839,,,,,x,1,0.833771495381,2018_Nov_13_1540,59.9821282063,chinese_cond1,001,1006,
images/hairband.jpg,hairband,z,sounds/animalfarm_chinese.wav,,,,,,,,,0,1,1,1,0,98,98,66,773.664730244,9.621726349e-06,774.256512214,0.591792553314,,,,,z,1,0.5837173732,2018_Nov_13_1540,59.9821282063,chinese_cond1,001,1006,
images/candycane01a.jpg,lip,x,sounds/animalfarm_chinese.wav,,,,,,,,,0,1,1,1,0,99,99,200,775.350091358,9.94245056063e-06,776.07367311,0.723592335824,,,,,x,1,0.700430956436,2018_Nov_13_1540,59.9821282063,chinese_cond1,001,1006,
images/panda.jpg,panda,z,sounds/animalfarm_chinese.wav,,,,,,,,,0,1,1,1,0,100,100,83,777.182052048,9.621726349e-06,777.957496098,0.775454954593,,,,,z,1,0.767116780858,2018_Nov_13_1540,59.9821282063,chinese_cond1,001,1006,
images/parkingmeter.jpg,ear,x,sounds/animalfarm_chinese.wav,,,,,,,,,0,1,1,1,0,101,101,171,779.058820718,9.30100213736e-06,780.858477159,1.79966702464,,,,,x,1,1.78427260998,2018_Nov_13_1540,59.9821282063,chinese_cond1,001,1006,
images/barrel01.jpg,barrel,z,sounds/animalfarm_chinese.wav,,,,,,,,,0,1,1,1,0,102,102,9,781.988118151,9.94245056063e-06,782.675390457,0.687282890198,,,,,z,1,0.66708724224,2018_Nov_13_1540,59.9821282063,chinese_cond1,001,1006,
images/broom02.jpg,broom,z,sounds/animalfarm_chinese.wav,,,,,,,,,0,1,1,1,0,103,103,116,783.767901592,9.621726349e-06,784.475835878,0.707944870228,,,,,z,1,0.683748194715,2018_Nov_13_1540,59.9821282063,chinese_cond1,001,1006,
images/razor04a.jpg,razor,z,sounds/animalfarm_chinese.wav,,,,,,,,,0,1,1,1,0,104,104,36,785.574354167,9.94245056063e-06,786.27630407,0.701960166683,,,,,z,1,0.683751401957,2018_Nov_13_1540,59.9821282063,chinese_cond1,001,1006,
images/hanger02a.jpg,hanger,z,sounds/animalfarm_chinese.wav,,,,,,,,,0,1,1,1,0,105,105,88,787.368955682,9.621726349e-06,788.043427266,0.674481526134,,,,,z,1,0.650404159911,2018_Nov_13_1540,59.9821282063,chinese_cond1,001,1006,
images/dragonfly02.jpg,dragon fly,z,sounds/animalfarm_chinese.wav,,,,,,,,,0,1,1,1,0,106,106,29,789.140355086,1.02630583569e-05,789.977282502,0.836937999935,,,,,z,1,0.817135238554,2018_Nov_13_1540,59.9821282063,chinese_cond1,001,1006,
images/paperclip04.jpg,eye drops,x,sounds/animalfarm_chinese.wav,,,,,,,,,0,1,1,1,0,107,107,174,791.083059729,1.02631747723e-05,792.077832896,0.994783429778,,,,,x,1,0.98386375152,2018_Nov_13_1540,59.9821282063,chinese_cond1,001,1006,
images/comb02a.jpg,diploma,x,sounds/animalfarm_chinese.wav,,,,,,,,,0,1,1,1,0,108,108,166,793.18127301,9.621726349e-06,794.111671166,0.930409060558,,,,,x,1,0.917151306872,2018_Nov_13_1540,59.9821282063,chinese_cond1,001,1006,
images/cigar.jpg,crocodile,x,sounds/animalfarm_chinese.wav,,,,,,,,,0,1,1,1,0,109,109,162,795.209631396,8.98027792573e-06,796.195546816,0.985925683868,,,,,x,1,0.967146672425,2018_Nov_13_1540,59.9821282063,chinese_cond1,001,1006,
images/cookingpot.jpg,grasshopper,x,sounds/animalfarm_chinese.wav,,,,,,,,,0,1,1,1,0,110,110,183,797.308570153,9.621726349e-06,797.979339303,0.67078005441,,,,,x,1,0.65041249874,2018_Nov_13_1540,59.9821282063,chinese_cond1,001,1006,
images/tank.jpg,wallet,x,sounds/animalfarm_chinese.wav,,,,,,,,,0,1,1,1,0,111,111,237,799.083362172,9.94245056063e-06,799.77983155,0.696479640901,,,,,x,1,0.683775776997,2018_Nov_13_1540,59.9821282063,chinese_cond1,001,1006,
images/sunglasses03a.jpg,sun glasses,z,sounds/animalfarm_chinese.wav,,,,,,,,,0,1,1,1,0,112,112,17,800.88780862,9.94245056063e-06,801.546933256,0.65913521999,,,,,z,1,0.650415385258,2018_Nov_13_1540,59.9821282063,chinese_cond1,001,1006,
images/cherry01.jpg,highlighter,x,sounds/animalfarm_chinese.wav,,,,,,,,,0,1,1,1,0,113,113,187,802.654773699,1.02631747723e-05,803.314054207,0.659291733173,,,,,x,1,0.6504121779,2018_Nov_13_1540,59.9821282063,chinese_cond1,001,1006,
images/nametag01a.jpg,name tag,z,sounds/animalfarm_chinese.wav,,,,,,,,,0,1,1,1,0,114,114,108,804.434114221,9.94245056063e-06,805.447942542,1.01383858419,,,,,z,1,1.00049648015,2018_Nov_13_1540,59.9821282063,chinese_cond1,001,1006,
images/redfox.jpg,red fox,z,sounds/animalfarm_chinese.wav,,,,,,,,,0,1,1,1,0,115,115,1,806.560064324,9.30088572204e-06,807.148408136,0.58835343353,,,,,z,1,0.567087210249,2018_Nov_13_1540,59.9821282063,chinese_cond1,001,1006,
images/mitten01.jpg,mitten,z,sounds/animalfarm_chinese.wav,,,,,,,,,0,1,1,1,0,116,116,102,808.268280527,9.621726349e-06,808.915513692,0.647243428277,,,,,z,1,0.633741603815,2018_Nov_13_1540,59.9821282063,chinese_cond1,001,1006,
images/button07.jpg,radish,x,sounds/animalfarm_chinese.wav,,,,,,,,,0,1,1,1,0,117,117,215,810.027439833,9.621726349e-06,810.849334931,0.821906323661,,,,,x,1,0.800444458844,2018_Nov_13_1540,59.9821282063,chinese_cond1,001,1006,
images/eraser.jpg,eraser,z,sounds/animalfarm_chinese.wav,,,,,,,,,0,1,1,1,0,118,118,110,811.95560928,1.05838989839e-05,812.833189061,0.87759036466,,,,,z,1,0.867115530185,2018_Nov_13_1540,59.9821282063,chinese_cond1,001,1006,
images/parrot01.jpg,chameleon,x,sounds/animalfarm_chinese.wav,,,,,,,,,0,1,1,1,0,119,119,150,813.946318557,9.94245056063e-06,814.950401049,1.00409307529,,,,,x,1,0.983818850131,2018_Nov_13_1540,59.9821282063,chinese_cond1,001,1006,
images/cake.jpg,cake,z,sounds/animalfarm_chinese.wav,,,,,,,,,0,1,1,1,0,120,120,23,816.063586993,9.62160993367e-06,816.750867638,0.687291549635,,,,,z,1,0.667080827872,2018_Nov_13_1540,59.9821282063,chinese_cond1,001,1006,
images/notebook02b.jpg,notebook,z,sounds/animalfarm_chinese.wav,,,,,,,,,0,1,1,1,0,121,121,7,817.856327669,9.94245056063e-06,818.768061312,0.911744226818,,,,,z,1,0.900486826431,2018_Nov_13_1540,59.9821282063,chinese_cond1,001,1006,
images/calculator02b.jpg,dice,x,sounds/animalfarm_chinese.wav,,,,,,,,,0,1,1,1,0,122,122,165,819.86892826,9.94233414531e-06,820.91862407,1.04970575206,,,,,x,1,1.03385494766,2018_Nov_13_1540,59.9821282063,chinese_cond1,001,1006,
images/lipstick04.jpg,lipstick,z,sounds/animalfarm_chinese.wav,,,,,,,,,0,1,1,1,0,123,123,56,822.018328715,9.621726349e-06,822.902463767,0.884146276978,,,,,z,1,0.867131245555,2018_Nov_13_1540,59.9821282063,chinese_cond1,001,1006,
images/lettuce.jpg,mushroom,x,sounds/animalfarm_chinese.wav,,,,,,,,,0,1,1,1,0,124,124,205,824.025055573,9.621726349e-06,824.936347259,0.911301628104,,,,,x,1,0.900459885597,2018_Nov_13_1540,59.9821282063,chinese_cond1,001,1006,
images/swallow.jpg,mattress,x,sounds/animalfarm_chinese.wav,,,,,,,,,0,1,1,1,0,125,125,202,826.037725441,9.621726349e-06,827.086882435,1.04916789848,,,,,x,1,1.03384308086,2018_Nov_13_1540,59.9821282063,chinese_cond1,001,1006,
images/spoon02b.jpg,spoon,z,sounds/animalfarm_chinese.wav,,,,,,,,,0,1,1,1,0,126,126,38,828.177105206,9.94245056063e-06,828.787310184,0.610216203029,,,,,z,1,0.600380891352,2018_Nov_13_1540,59.9821282063,chinese_cond1,001,1006,
images/binder03b.jpg,dj mixer,x,sounds/animalfarm_chinese.wav,,,,,,,,,0,1,1,1,0,127,127,167,829.899790856,9.94245056063e-06,830.604452478,0.704672847409,,,,,x,1,0.683745629038,2018_Nov_13_1540,59.9821282063,chinese_cond1,001,1006,
images/plate01b.jpg,plate,z,sounds/animalfarm_chinese.wav,,,,,,,,,0,1,1,1,0,128,128,3,831.702538432,9.621726349e-06,832.321401986,0.618874779553,,,,,z,1,0.600225019734,2018_Nov_13_1540,59.9821282063,chinese_cond1,001,1006,
images/knife04.jpg,tooth brush,x,sounds/animalfarm_chinese.wav,,,,,,,,,0,1,1,1,0,129,129,233,833.417487586,9.30100213736e-06,834.172043545,0.754566222895,,,,,x,1,0.733753502718,2018_Nov_13_1540,59.9821282063,chinese_cond1,001,1006,
images/nailpolish02b.jpg,nail polish,z,sounds/animalfarm_chinese.wav,,,,,,,,,0,1,1,1,0,130,130,94,835.281452647,9.94245056063e-06,836.022536931,0.741094225668,,,,,z,1,0.717085494311,2018_Nov_13_1540,59.9821282063,chinese_cond1,001,1006,
images/coffeepot03b.jpg,coffee pot,z,sounds/animalfarm_chinese.wav,,,,,,,,,0,1,1,1,0,131,131,107,837.14295391,9.94245056063e-06,837.73964231,0.596698983805,,,,,z,1,0.583725070581,2018_Nov_13_1540,59.9821282063,chinese_cond1,001,1006,
images/magnifyingglass01b.jpg,magnifying glass,z,sounds/animalfarm_chinese.wav,,,,,,,,,0,1,1,1,0,132,132,64,838.846080228,9.621726349e-06,839.373391932,0.527322287788,,,,,z,1,0.517033473006,2018_Nov_13_1540,59.9821282063,chinese_cond1,001,1006,
images/blueberry02.jpg,blueberry,z,sounds/animalfarm_chinese.wav,,,,,,,,,0,1,1,1,0,133,133,46,840.487336066,9.30100213736e-06,841.090509178,0.603183695464,,,,,z,1,0.583724749857,2018_Nov_13_1540,59.9821282063,chinese_cond1,001,1006,
images/bat.jpg,hand,x,sounds/animalfarm_chinese.wav,,,,,,,,,0,1,1,1,0,134,134,185,842.191255854,8.98027792573e-06,842.857640712,0.666395120672,,,,,x,1,0.650407367153,2018_Nov_13_1540,59.9821282063,chinese_cond1,001,1006,
images/butterfly.jpg,butterfly,z,sounds/animalfarm_chinese.wav,,,,,,,,,0,1,1,1,0,135,135,91,843.964226163,9.621726349e-06,844.691433054,0.727218116866,,,,,z,1,0.717074268963,2018_Nov_13_1540,59.9821282063,chinese_cond1,001,1006,
images/cocktailshrimp01.jpg,cocktail shrimp,z,sounds/animalfarm_chinese.wav,,,,,,,,,0,1,1,1,0,136,136,30,845.806083101,9.30100213736e-06,846.575262777,0.76918993867,,,,,z,1,0.750418624608,2018_Nov_13_1540,59.9821282063,chinese_cond1,001,1006,
images/bowl02b (1).jpg,bowl,z,sounds/animalfarm_chinese.wav,,,,,,,,,0,1,1,1,0,137,137,24,847.691629979,9.621726349e-06,848.309054446,0.617434730288,,,,,z,1,0.60039372032,2018_Nov_13_1540,59.9821282063,chinese_cond1,001,1006,
images/boxingglove02a.jpg,bracelet,x,sounds/animalfarm_chinese.wav,,,,,,,,,0,1,1,1,0,138,138,135,849.418836549,9.94245056063e-06,850.192701356,0.773876031977,,,,,x,1,0.750265960116,2018_Nov_13_1540,59.9821282063,chinese_cond1,001,1006,
images/axe01.jpg,axe,z,sounds/animalfarm_chinese.wav,,,,,,,,,0,1,1,1,0,139,139,104,851.295602654,9.94245056063e-06,851.876640381,0.581048310967,,,,,z,1,0.567062193761,2018_Nov_13_1540,59.9821282063,chinese_cond1,001,1006,
images/scooter.jpg,pen,x,sounds/animalfarm_chinese.wav,,,,,,,,,0,1,1,1,0,140,140,212,852.968387231,8.98027792573e-06,853.560405254,0.592027964536,,,,,x,1,0.583725712029,2018_Nov_13_1540,59.9821282063,chinese_cond1,001,1006,
images/atm.jpg,atm,z,sounds/animalfarm_chinese.wav,,,,,,,,,0,1,1,1,0,141,141,96,854.699115348,9.621726349e-06,855.477557523,0.778452117112,,,,,z,1,0.767096254625,2018_Nov_13_1540,59.9821282063,chinese_cond1,001,1006,
images/basketball01.jpg,basket ball,z,sounds/animalfarm_chinese.wav,,,,,,,,,0,1,1,1,0,142,142,33,856.615409681,1.02631747723e-05,857.211348229,0.595949131879,,,,,z,1,0.583720259718,2018_Nov_13_1540,59.9821282063,chinese_cond1,001,1006,
images/corn01.jpg,corn,z,sounds/animalfarm_chinese.wav,,,,,,,,,0,1,1,1,0,143,143,22,858.309569849,9.94245056063e-06,859.011829571,0.702269985806,,,,,z,1,0.683757816325,2018_Nov_13_1540,59.9821282063,chinese_cond1,001,1006,
images/nailclipper03a.jpg,aquarium,x,sounds/animalfarm_chinese.wav,,,,,,,,,0,1,1,1,0,144,144,123,860.109984159,9.621726349e-06,860.762273854,0.652299957466,,,,,x,1,0.633740641759,2018_Nov_13_1540,59.9821282063,chinese_cond1,001,1006,
images/carrot02.jpg,corkscrew,x,sounds/animalfarm_chinese.wav,,,,,,,,,0,1,1,1,0,145,145,161,861.863707841,9.621726349e-06,862.562740763,0.699043505942,,,,,x,1,0.683757495717,2018_Nov_13_1540,59.9821282063,chinese_cond1,001,1006,
images/ladder.jpg,ladder,z,sounds/animalfarm_chinese.wav,,,,,,,,,0,1,1,1,0,146,146,113,863.65550976,9.621726349e-06,864.279844539,0.624345363001,,,,,z,1,0.600386664388,2018_Nov_13_1540,59.9821282063,chinese_cond1,001,1006,
images/licenseplate.jpg,license plate,z,sounds/animalfarm_chinese.wav,,,,,,,,,0,1,1,1,0,147,147,40,865.398499462,9.94245056063e-06,866.1638064,0.765317521291,,,,,z,1,0.750566798961,2018_Nov_13_1540,59.9821282063,chinese_cond1,001,1006,
images/parkbench03.jpg,park bench,z,sounds/animalfarm_chinese.wav,,,,,,,,,0,1,1,1,0,148,148,71,867.268274754,1.02631747723e-05,867.780756196,0.512491384638,,,,,z,1,0.500370596186,2018_Nov_13_1540,59.9821282063,chinese_cond1,001,1006,
images/donut.jpg,rhinoceros,x,sounds/animalfarm_chinese.wav,,,,,,,,,0,1,1,1,0,149,149,216,868.905816291,9.30100213736e-06,869.481202868,0.575397160137,,,,,x,1,0.567028838443,2018_Nov_13_1540,59.9821282063,chinese_cond1,001,1006,
images/handbag02a.jpg,candle,x,sounds/animalfarm_chinese.wav,,,,,,,,,0,1,1,1,0,150,150,144,870.59597479,9.621726349e-06,871.231656451,0.635692245211,,,,,x,1,0.617071350338,2018_Nov_13_1540,59.9821282063,chinese_cond1,001,1006,
images/blackolive.jpg,tank,x,sounds/animalfarm_chinese.wav,,,,,,,,,0,1,1,1,0,151,151,229,872.346673406,9.621726349e-06,873.632324326,1.28566182451,,,,,x,1,1.26728115173,2018_Nov_13_1540,59.9821282063,chinese_cond1,001,1006,
images/printer03a.jpg,printer,z,sounds/animalfarm_chinese.wav,,,,,,,,,0,1,1,1,0,152,152,72,874.741538107,9.94245056063e-06,875.749493016,1.00796517194,,,,,z,1,0.983824623167,2018_Nov_13_1540,59.9821282063,chinese_cond1,001,1006,
images/desktopcomputer.jpg,desktop computer,z,sounds/animalfarm_chinese.wav,,,,,,,,,0,1,1,1,0,153,153,16,876.885439435,1.02630583569e-05,878.183472533,1.29804400261,,,,,z,1,1.28391933278,2018_Nov_13_1540,59.9821282063,chinese_cond1,001,1006,
images/fork01.jpg,cooking pot,x,sounds/animalfarm_chinese.wav,,,,,,,,,0,1,1,1,0,154,154,160,879.276495863,9.621726349e-06,879.967249625,0.690764024621,,,,,x,1,0.667078903527,2018_Nov_13_1540,59.9821282063,chinese_cond1,001,1006,
images/tissuebox03.jpg,tissue box,z,sounds/animalfarm_chinese.wav,,,,,,,,,0,1,1,1,0,155,155,58,881.09251787,1.09046231955e-05,881.801059286,0.708552641561,,,,,z,1,0.683741138899,2018_Nov_13_1540,59.9821282063,chinese_cond1,001,1006,
images/arrow02.jpg,hammer,x,sounds/animalfarm_chinese.wav,,,,,,,,,0,1,1,1,0,156,156,184,882.899705864,1.02631747723e-05,883.834925459,0.93523049925,,,,,x,1,0.917148741079,2018_Nov_13_1540,59.9821282063,chinese_cond1,001,1006,
images/mattress.jpg,cat,x,sounds/animalfarm_chinese.wav,,,,,,,,,0,1,1,1,0,157,157,147,884.938374233,9.30100213736e-06,885.885454829,0.947090539266,,,,,x,1,0.933818673715,2018_Nov_13_1540,59.9821282063,chinese_cond1,001,1006,
images/toucan.jpg,toucan,z,sounds/animalfarm_chinese.wav,,,,,,,,,0,1,1,1,0,158,158,81,886.984966399,9.621726349e-06,887.769272044,0.784316549194,,,,,z,1,0.767114535789,2018_Nov_13_1540,59.9821282063,chinese_cond1,001,1006,
images/ceilingfan02.jpg,paper clip,x,sounds/animalfarm_chinese.wav,,,,,,,,,0,1,1,1,0,159,159,208,888.865917948,9.621726349e-06,889.769799955,0.903892591014,,,,,x,1,0.883809196297,2018_Nov_13_1540,59.9821282063,chinese_cond1,001,1006,
images/kiwi03.jpg,backpack,x,sounds/animalfarm_chinese.wav,,,,,,,,,0,1,1,1,0,160,160,125,890.896489327,9.30100213736e-06,891.570263978,0.673785235034,,,,,x,1,0.650414102362,2018_Nov_13_1540,59.9821282063,chinese_cond1,001,1006,
images/globe.jpg,cloud,x,sounds/animalfarm_chinese.wav,,,,,,,,,0,1,1,1,0,161,161,154,892.696357445,9.621726349e-06,893.404063056,0.707716194214,,,,,x,1,0.683744987473,2018_Nov_13_1540,59.9821282063,chinese_cond1,001,1006,
images/thumbtack02a.jpg,thumb tack,z,sounds/animalfarm_chinese.wav,,,,,,,,,0,1,1,1,0,162,162,60,894.514987897,9.621726349e-06,895.387919751,0.87294211681,,,,,z,1,0.850469331024,2018_Nov_13_1540,59.9821282063,chinese_cond1,001,1006,
images/dolphin01.jpg,dolphin,z,sounds/animalfarm_chinese.wav,,,,,,,,,0,1,1,1,0,163,163,99,896.486837982,9.621726349e-06,897.07190015,0.585071789217,,,,,z,1,0.567261683871,2018_Nov_13_1540,59.9821282063,chinese_cond1,001,1006,
images/bandaid01.jpg,door handle,x,sounds/animalfarm_chinese.wav,,,,,,,,,0,1,1,1,0,164,164,170,898.179355403,9.621726349e-06,898.838811026,0.65946588607,,,,,x,1,0.65041474381,2018_Nov_13_1540,59.9821282063,chinese_cond1,001,1006,
images/banjo.jpg,knife,x,sounds/animalfarm_chinese.wav,,,,,,,,,0,1,1,1,0,165,165,191,899.934274101,9.30100213736e-06,900.772643812,0.838379973429,,,,,x,1,0.817122088862,2018_Nov_13_1540,59.9821282063,chinese_cond1,001,1006,
images/floorlamp.jpg,floor lamp,z,sounds/animalfarm_chinese.wav,,,,,,,,,0,1,1,1,0,166,166,26,901.866731624,9.621726349e-06,902.789837486,0.923116766848,,,,,x,0,0.900477525429,2018_Nov_13_1540,59.9821282063,chinese_cond1,001,1006,
images/puzzle.jpg,puzzle,z,sounds/animalfarm_chinese.wav,,,,,,,,,0,1,1,1,0,167,167,57,903.909406472,9.621726349e-06,904.656997918,0.747601708747,,,,,z,1,0.733780764276,2018_Nov_13_1540,59.9821282063,chinese_cond1,001,1006,
images/radish01.jpg,raisin,x,sounds/animalfarm_chinese.wav,,,,,,,,,0,1,1,1,0,168,168,214,905.766733196,8.98016151041e-06,906.54080519,0.774102142081,,,,,x,1,0.750436264323,2018_Nov_13_1540,59.9821282063,chinese_cond1,001,1006,
images/parkfountain.jpg,park fountain,z,sounds/animalfarm_chinese.wav,,,,,,,,,0,1,1,1,0,169,169,93,907.659970384,8.98027792573e-06,908.457981513,0.798021391616,,,,,z,1,0.783786072279,2018_Nov_13_1540,59.9821282063,chinese_cond1,001,1006,
images/puma.jpg,puma,z,sounds/animalfarm_chinese.wav,,,,,,,,,0,1,1,1,0,170,170,4,909.556671389,9.94245056063e-06,910.475165886,0.918505081441,,,,,z,1,0.900472714566,2018_Nov_13_1540,59.9821282063,chinese_cond1,001,1006,
images/bowtie.jpg,bowtie,z,sounds/animalfarm_chinese.wav,,,,,,,,,0,1,1,1,0,171,171,89,911.58487711,9.94245056063e-06,912.292295993,0.707429146511,,,,,z,1,0.683752684854,2018_Nov_13_1540,59.9821282063,chinese_cond1,001,1006,
images/diploma01.jpg,glasses,x,sounds/animalfarm_chinese.wav,,,,,,,,,0,1,1,1,0,172,172,179,913.423820274,9.621726349e-06,914.209461733,0.785652042367,,,,,x,1,0.767107479973,2018_Nov_13_1540,59.9821282063,chinese_cond1,001,1006,
images/8ball.jpg,nail clipper,x,sounds/animalfarm_chinese.wav,,,,,,,,,0,1,1,1,0,173,173,206,915.325987372,9.30100213736e-06,915.926565188,0.60058807896,,,,,x,1,0.583727957099,2018_Nov_13_1540,59.9821282063,chinese_cond1,001,1006,
images/battery03b.jpg,battery,z,sounds/animalfarm_chinese.wav,,,,,,,,,0,1,1,1,0,174,174,34,917.03421512,9.621726349e-06,917.743713576,0.709508077358,,,,,z,1,0.700426466181,2018_Nov_13_1540,59.9821282063,chinese_cond1,001,1006,
images/shotglass.jpg,shot glass,z,sounds/animalfarm_chinese.wav,,,,,,,,,0,1,1,1,0,175,175,86,918.851566206,1.02631747723e-05,919.577520671,0.725965370191,,,,,z,1,0.717099606176,2018_Nov_13_1540,59.9821282063,chinese_cond1,001,1006,
images/bench02.jpg,electric toothbrush,x,sounds/animalfarm_chinese.wav,,,,,,,,,0,1,1,1,0,176,176,172,920.685678951,9.62160993367e-06,921.427991285,0.742322276579,,,,,x,1,0.733763445052,2018_Nov_13_1540,59.9821282063,chinese_cond1,001,1006,
images/gps.jpg,gps,z,sounds/animalfarm_chinese.wav,,,,,,,,,0,1,1,1,0,177,177,21,922.547055773,9.621726349e-06,923.261936613,0.714890782372,,,,,z,1,0.700544813299,2018_Nov_13_1540,59.9821282063,chinese_cond1,001,1006,
images/table02.jpg,table,z,sounds/animalfarm_chinese.wav,,,,,,,,,0,1,1,1,0,178,178,49,924.376310838,9.30100213736e-06,924.978912099,0.602611524402,,,,,z,1,0.583725070581,2018_Nov_13_1540,59.9821282063,chinese_cond1,001,1006,
images/tulip02.jpg,sport shorts,x,sounds/animalfarm_chinese.wav,,,,,,,,,0,1,1,1,0,179,179,225,926.072110545,9.94233414531e-06,926.712714031,0.640613749623,,,,,x,1,0.617079689167,2018_Nov_13_1540,59.9821282063,chinese_cond1,001,1006,
images/peach01.jpg,peach,z,sounds/animalfarm_chinese.wav,,,,,,,,,0,1,1,1,0,180,180,106,927.84125045,9.94245056063e-06,928.713225585,0.871985077392,,,,,z,1,0.850455860607,2018_Nov_13_1540,59.9821282063,chinese_cond1,001,1006,
images/pipe.jpg,icecube,x,sounds/animalfarm_chinese.wav,,,,,,,,,0,1,1,1,0,181,181,188,929.821434539,9.94245056063e-06,930.447034252,0.62561029708,,,,,x,1,0.617088990286,2018_Nov_13_1540,59.9821282063,chinese_cond1,001,1006,
images/cloud.jpg,ceiling fan,x,sounds/animalfarm_chinese.wav,,,,,,,,,0,1,1,1,0,182,182,149,931.551615501,9.62160993367e-06,932.280819218,0.729213980027,,,,,x,1,0.717110831523,2018_Nov_13_1540,59.9821282063,chinese_cond1,001,1006,
images/squirrel.jpg,binder,x,sounds/animalfarm_chinese.wav,,,,,,,,,0,1,1,1,0,183,183,132,933.38349601,9.621726349e-06,933.981247609,0.597762182821,,,,,x,1,0.583728277707,2018_Nov_13_1540,59.9821282063,chinese_cond1,001,1006,
images/lantern03.jpg,lantern,z,sounds/animalfarm_chinese.wav,,,,,,,,,0,1,1,1,0,184,184,5,935.087864811,9.94245056063e-06,935.698374797,0.610521211172,,,,,z,1,0.600410077255,2018_Nov_13_1540,59.9821282063,chinese_cond1,001,1006,
images/cactus.jpg,cactus,z,sounds/animalfarm_chinese.wav,,,,,,,,,0,1,1,1,0,185,185,70,936.808837797,9.621726349e-06,937.632192509,0.823365295655,,,,,z,1,0.800446062465,2018_Nov_13_1540,59.9821282063,chinese_cond1,001,1006,
images/pen03c.jpg,pepper,x,sounds/animalfarm_chinese.wav,,,,,,,,,0,1,1,1,0,186,186,211,938.72648847,9.30100213736e-06,939.515858983,0.789380775648,,,,,x,1,0.766941345064,2018_Nov_13_1540,59.9821282063,chinese_cond1,001,1006,
images/paintbrush03a.jpg,paint brush,z,sounds/animalfarm_chinese.wav,,,,,,,,,0,1,1,1,0,187,187,0,940.61491737,9.94245056063e-06,941.416520925,0.801614138065,,,,,z,1,0.783789920853,2018_Nov_13_1540,59.9821282063,chinese_cond1,001,1006,
images/diaper01a.jpg,camera,x,sounds/animalfarm_chinese.wav,,,,,,,,,0,1,1,1,0,188,188,143,942.535706004,9.30088572204e-06,943.383688123,0.847992061405,,,,,x,1,0.833771495381,2018_Nov_13_1540,59.9821282063,chinese_cond1,001,1006,
images/masquerademask02b.jpg,mirror,x,sounds/animalfarm_chinese.wav,,,,,,,,,0,1,1,1,0,189,189,204,944.487556724,9.621726349e-06,945.167477403,0.679930941784,,,,,x,1,0.667069602525,2018_Nov_13_1540,59.9821282063,chinese_cond1,001,1006,
images/computermouse02a.jpg,world map,x,sounds/animalfarm_chinese.wav,,,,,,,,,0,1,1,1,0,190,190,239,946.267999894,9.621726349e-06,947.03463142,0.766641789232,,,,,x,1,0.750429849955,2018_Nov_13_1540,59.9821282063,chinese_cond1,001,1006,
images/computerkeyboard01a.jpg,computer keyboard,z,sounds/animalfarm_chinese.wav,,,,,,,,,0,1,1,1,0,191,191,61,948.152071442,1.02631747723e-05,948.835101536,0.683040357661,,,,,z,1,0.667079224135,2018_Nov_13_1540,59.9821282063,chinese_cond1,001,1006,
images/worldmap.jpg,scooter,x,sounds/animalfarm_chinese.wav,,,,,,,,,0,1,1,1,0,192,192,220,949.964364074,9.30100213736e-06,950.652239982,0.687885529944,,,,,x,1,0.667080186307,2018_Nov_13_1540,59.9821282063,chinese_cond1,001,1006,
images/beermug01b.jpg,beer mug,z,sounds/animalfarm_chinese.wav,,,,,,,,,0,1,1,1,0,193,193,111,951.769833952,9.621726349e-06,953.036182118,1.26635842992,,,,,z,1,1.25055701681,2018_Nov_13_1540,59.9821282063,chinese_cond1,001,1006,
images/ant.jpg,ant,z,sounds/animalfarm_chinese.wav,,,,,,,,,0,1,1,1,0,194,194,98,954.1302385,9.621726349e-06,954.653276882,0.523048645118,,,,,z,1,0.500371558359,2018_Nov_13_1540,59.9821282063,chinese_cond1,001,1006,
images/weight01.jpg,weight,z,sounds/animalfarm_chinese.wav,,,,,,,,,0,1,1,1,0,195,195,67,955.758760326,9.94245056063e-06,956.337061318,0.578311255318,,,,,z,1,0.567070853314,2018_Nov_13_1540,59.9821282063,chinese_cond1,001,1006,
images/remotecontrol01c.jpg,remote control,z,sounds/animalfarm_chinese.wav,,,,,,,,,0,1,1,1,0,196,196,85,957.4454951,9.94245056063e-06,958.037486502,0.592001985875,,,,,z,1,0.583728919271,2018_Nov_13_1540,59.9821282063,chinese_cond1,001,1006,
images/gluestick.jpg,squirrel,x,sounds/animalfarm_chinese.wav,,,,,,,,,0,1,1,1,0,197,197,226,959.143806393,8.98027792573e-06,959.804610338,0.660813566879,,,,,x,1,0.650403197738,2018_Nov_13_1540,59.9821282063,chinese_cond1,001,1006,
images/broadsword.jpg,teapot,x,sounds/animalfarm_chinese.wav,,,,,,,,,0,1,1,1,0,198,198,231,960.896151926,1.02631747723e-05,961.555068733,0.65892739105,,,,,x,1,0.650418592501,2018_Nov_13_1540,59.9821282063,chinese_cond1,001,1006,
images/ear.jpg,bullet,x,sounds/animalfarm_chinese.wav,,,,,,,,,0,1,1,1,0,199,199,139,962.657948543,9.621726349e-06,963.222163352,0.564226034447,,,,,x,1,0.550382639398,2018_Nov_13_1540,59.9821282063,chinese_cond1,001,1006,
images/leaf01a.jpg,leaf,z,sounds/animalfarm_chinese.wav,,,,,,,,,0,1,1,1,0,200,200,68,964.323920308,9.30100213736e-06,964.939293106,0.61538274039,,,,,z,1,0.600416170899,2018_Nov_13_1540,59.9821282063,chinese_cond1,001,1006,
images/handfan01b.jpg,handfan,z,sounds/animalfarm_chinese.wav,,,,,,,,,0,1,1,1,0,201,201,69,966.053991582,9.30088572204e-06,966.706408283,0.652426964021,,,,,z,1,0.633747376851,2018_Nov_13_1540,59.9821282063,chinese_cond1,001,1006,
