images,name,corrAns,sounds,trials_3.thisRepN,trials_3.thisTrialN,trials_3.thisN,trials_3.thisIndex,trials_4.thisRepN,trials_4.thisTrialN,trials_4.thisN,trials_4.thisIndex,trials_2.thisRepN,trials_2.thisTrialN,trials_2.thisN,trials_2.thisIndex,trials.thisRepN,trials.thisTrialN,trials.thisN,trials.thisIndex,begin_global,begin_routine,end_global,end_routine,key_resp_2.keys,key_resp_2.corr,key_resp_2.rt,begin_book,key_resp_1.keys,key_resp_1.corr,key_resp_1.rt,date,frameRate,expName,session,participant,
images/volleyball.jpg,volley ball,z,,0,0,0,0,,,,,,,,,,,,,,,,,,,,,,,,2018_Nov_13_1539,59.9830123184,chinese_cond2,001,1007,
images/puma.jpg,puma,z,,,,,,0,0,0,0,,,,,,,,,48.2386124289,9.94268339127e-06,50.3448288582,2.10622765485,x,0,2.08418971917,,,,,2018_Nov_13_1539,59.9830123184,chinese_cond2,001,1007,
images/binder03b.jpg,dj mixer,x,sounds/greatgatsby_chinese.wav,,,,,,,,,0,0,0,0,0,0,0,167,92.610966977,9.62207559496e-06,94.7744157756,2.16345970356,,,,82.3427543523,x,1,2.15088790318,2018_Nov_13_1539,59.9830123184,chinese_cond2,001,1007,
images/weight01.jpg,weight,z,sounds/greatgatsby_chinese.wav,,,,,,,,,0,0,0,0,0,1,1,67,95.9655009172,9.62195917964e-06,96.9583665159,0.992876182892,,,,,z,1,0.983837906271,2018_Nov_13_1539,59.9830123184,chinese_cond2,001,1007,
images/bus.jpg,microphone,x,sounds/greatgatsby_chinese.wav,,,,,,,,,0,0,0,0,0,2,2,203,98.1488939016,9.30123496801e-06,99.3090506891,1.1601670509,,,,,x,1,1.15058705502,2018_Nov_13_1539,59.9830123184,chinese_cond2,001,1007,
images/8ball.jpg,nail clipper,x,sounds/greatgatsby_chinese.wav,,,,,,,,,0,0,0,0,0,3,3,206,100.500987058,9.30135138333e-06,103.260209676,2.75923320267,,,,,x,1,2.75106090703,2018_Nov_13_1539,59.9830123184,chinese_cond2,001,1007,
images/medal01.jpg,medal,z,sounds/greatgatsby_chinese.wav,,,,,,,,,0,0,0,0,0,4,4,115,104.389623173,8.98051075637e-06,105.594397231,1.20478400018,,,,,z,1,1.18410757917,2018_Nov_13_1539,59.9830123184,chinese_cond2,001,1007,
images/toothbrush03a.jpg,parrot,x,sounds/greatgatsby_chinese.wav,,,,,,,,,0,0,0,0,0,5,5,210,106.707864808,9.30123496801e-06,108.178297167,1.4704426222,,,,,x,1,1.45065912383,2018_Nov_13_1539,59.9830123184,chinese_cond2,001,1007,
images/cockroach02.jpg,belt,x,sounds/greatgatsby_chinese.wav,,,,,,,,,0,0,0,0,0,6,6,129,109.309195981,9.30123496801e-06,111.095805091,1.78661937336,,,,,x,1,1.76741672389,2018_Nov_13_1539,59.9830123184,chinese_cond2,001,1007,
images/coffeepot03b.jpg,coffee pot,z,sounds/greatgatsby_chinese.wav,,,,,,,,,0,0,0,0,0,7,7,107,112.300246548,9.30123496801e-06,115.296870505,2.99663486157,,,,,None,0,,2018_Nov_13_1539,59.9830123184,chinese_cond2,001,1007,
images/highlighter03b.jpg,coin,x,sounds/greatgatsby_chinese.wav,,,,,,,,,0,0,0,0,0,8,8,156,116.478088273,9.62195917964e-06,117.61437349,1.13629548042,,,,,x,1,1.1172416514,2018_Nov_13_1539,59.9830123184,chinese_cond2,001,1007,
images/donut.jpg,rhinoceros,x,sounds/greatgatsby_chinese.wav,,,,,,,,,0,0,0,0,0,9,9,216,118.757860783,9.62207559496e-06,120.398516478,1.64066595875,,,,,x,1,1.61738389684,2018_Nov_13_1539,59.9830123184,chinese_cond2,001,1007,
images/computerkeyboard01a.jpg,computer keyboard,z,sounds/greatgatsby_chinese.wav,,,,,,,,,0,0,0,0,0,10,10,61,121.606070656,9.62195917964e-06,123.016009424,1.40994935285,,,,,z,1,1.40072344709,2018_Nov_13_1539,59.9830123184,chinese_cond2,001,1007,
images/tie01.jpg,bench,x,sounds/greatgatsby_chinese.wav,,,,,,,,,0,0,0,0,0,11,11,130,124.185234958,9.62195917964e-06,125.183240957,0.998016582569,,,,,x,1,0.983869338175,2018_Nov_13_1539,59.9830123184,chinese_cond2,001,1007,
images/stapler03a.jpg,candy cane,x,sounds/greatgatsby_chinese.wav,,,,,,,,,0,0,0,0,0,12,12,145,126.384510677,9.94279980659e-06,127.600621069,1.21612065495,,,,,x,1,1.20060323598,2018_Nov_13_1539,59.9830123184,chinese_cond2,001,1007,
images/dryingmachine01.jpg,drying machine,z,sounds/greatgatsby_chinese.wav,,,,,,,,,0,0,0,0,0,13,13,18,128.749999278,9.62195917964e-06,130.401419439,1.65143074503,,,,,z,1,1.63405499491,2018_Nov_13_1539,59.9830123184,chinese_cond2,001,1007,
images/bat.jpg,hand,x,sounds/greatgatsby_chinese.wav,,,,,,,,,0,0,0,0,0,14,14,185,131.586062002,9.30123496801e-06,132.785445488,1.199393749,,,,,x,1,1.18392187438,2018_Nov_13_1539,59.9830123184,chinese_cond2,001,1007,
images/broadsword.jpg,teapot,x,sounds/greatgatsby_chinese.wav,,,,,,,,,0,0,0,0,0,15,15,231,133.899831647,9.30135138333e-06,135.302854113,1.40303305071,,,,,x,1,1.38398852281,2018_Nov_13_1539,59.9830123184,chinese_cond2,001,1007,
images/scooter.jpg,pen,x,sounds/greatgatsby_chinese.wav,,,,,,,,,0,0,0,0,0,16,16,212,136.466379567,9.30135138333e-06,137.670217082,1.20384809922,,,,,z,0,1.18394240132,2018_Nov_13_1539,59.9830123184,chinese_cond2,001,1007,
images/lily.jpg,kiwi,x,sounds/greatgatsby_chinese.wav,,,,,,,,,0,0,0,0,0,17,17,190,138.800141187,9.30135138333e-06,141.287920751,2.48778982705,,,,,x,1,2.46763139102,2018_Nov_13_1539,59.9830123184,chinese_cond2,001,1007,
images/corkscrew02a.jpg,masquerade mask,x,sounds/greatgatsby_chinese.wav,,,,,,,,,0,0,0,0,0,18,18,201,142.437874998,9.62207559496e-06,143.821977381,1.38411296753,,,,,x,1,1.36730459542,2018_Nov_13_1539,59.9830123184,chinese_cond2,001,1007,
images/ear.jpg,bullet,x,sounds/greatgatsby_chinese.wav,,,,,,,,,0,0,0,0,0,19,19,139,145.010619815,9.62195917964e-06,146.08930863,1.07869875757,,,,,x,1,1.06722098007,2018_Nov_13_1539,59.9830123184,chinese_cond2,001,1007,
images/diploma01.jpg,glasses,x,sounds/greatgatsby_chinese.wav,,,,,,,,,0,0,0,0,0,20,20,179,147.322885218,9.30123496801e-06,148.240140404,0.917265129043,,,,,x,1,0.900713023264,2018_Nov_13_1539,59.9830123184,chinese_cond2,001,1007,
images/paintbrush03a.jpg,paint brush,z,sounds/greatgatsby_chinese.wav,,,,,,,,,0,0,0,0,0,21,21,0,149.411111692,8.98051075637e-06,150.557273263,1.14617183444,,,,,z,1,1.13390280679,2018_Nov_13_1539,59.9830123184,chinese_cond2,001,1007,
images/bull.jpg,button,x,sounds/greatgatsby_chinese.wav,,,,,,,,,0,0,0,0,0,22,22,141,151.759116776,9.94268339127e-06,152.674572005,0.915465492057,,,,,x,1,0.90049716935,2018_Nov_13_1539,59.9830123184,chinese_cond2,001,1007,
images/bowl02b (1).jpg,bowl,z,sounds/greatgatsby_chinese.wav,,,,,,,,,0,0,0,0,0,23,23,24,153.857963706,9.30135138333e-06,154.891914655,1.03396185383,,,,,z,1,1.0172513054,2018_Nov_13_1539,59.9830123184,chinese_cond2,001,1007,
images/calculator02b.jpg,dice,x,sounds/greatgatsby_chinese.wav,,,,,,,,,0,0,0,0,0,24,24,165,156.067373649,8.65978654474e-06,157.15926611,1.09190240328,,,,,x,1,1.08397162019,2018_Nov_13_1539,59.9830123184,chinese_cond2,001,1007,
images/lychee02a.jpg,lychee,z,sounds/greatgatsby_chinese.wav,,,,,,,,,0,0,0,0,0,25,25,62,158.302703368,9.62207559496e-06,159.709939314,1.40724685055,,,,,z,1,1.38397986302,2018_Nov_13_1539,59.9830123184,chinese_cond2,001,1007,
images/lettuce.jpg,mushroom,x,sounds/greatgatsby_chinese.wav,,,,,,,,,0,0,0,0,0,26,26,205,160.860390378,9.30135138333e-06,161.86059244,1.00021264644,,,,,x,1,0.983895317651,2018_Nov_13_1539,59.9830123184,chinese_cond2,001,1007,
images/gluestick.jpg,squirrel,x,sounds/greatgatsby_chinese.wav,,,,,,,,,0,0,0,0,0,27,27,226,163.064474537,9.94279980659e-06,164.928129343,1.86366539006,,,,,z,0,1.8507911379,2018_Nov_13_1539,59.9830123184,chinese_cond2,001,1007,
images/cocktailshrimp01.jpg,cocktail shrimp,z,sounds/greatgatsby_chinese.wav,,,,,,,,,0,0,0,0,0,28,28,30,166.073310431,9.62207559496e-06,167.862314139,1.78901397157,,,,,x,0,1.76743500563,2018_Nov_13_1539,59.9830123184,chinese_cond2,001,1007,
images/cigar.jpg,crocodile,x,sounds/greatgatsby_chinese.wav,,,,,,,,,0,0,0,0,0,29,29,162,169.052744021,9.62207559496e-06,170.813195692,1.76046161284,,,,,x,1,1.75078667968,2018_Nov_13_1539,59.9830123184,chinese_cond2,001,1007,
images/tape01a.jpg,tie,x,sounds/greatgatsby_chinese.wav,,,,,,,,,0,0,0,0,0,30,30,232,172.014496844,9.62195917964e-06,173.980747316,1.96626041457,,,,,x,1,1.95080746326,2018_Nov_13_1539,59.9830123184,chinese_cond2,001,1007,
images/knife04.jpg,tooth brush,x,sounds/greatgatsby_chinese.wav,,,,,,,,,0,0,0,0,0,31,31,233,175.080349574,1.02634076029e-05,176.514819021,1.43448003125,,,,,x,1,1.41732270084,2018_Nov_13_1539,59.9830123184,chinese_cond2,001,1007,
images/bullet (2).jpg,rubber glove,x,sounds/greatgatsby_chinese.wav,,,,,,,,,0,0,0,0,0,32,32,217,177.695817728,9.62195917964e-06,179.348973059,1.65317040484,,,,,x,1,1.63404825958,2018_Nov_13_1539,59.9830123184,chinese_cond2,001,1007,
images/fork01.jpg,cooking pot,x,sounds/greatgatsby_chinese.wav,,,,,,,,,0,0,0,0,0,33,33,160,180.510440685,9.62195917964e-06,181.866378797,1.35594869661,,,,,x,1,1.33396143699,2018_Nov_13_1539,59.9830123184,chinese_cond2,001,1007,
images/skateboard.jpg,key,x,sounds/greatgatsby_chinese.wav,,,,,,,,,0,0,0,0,0,34,34,189,183.062443972,9.30123496801e-06,184.000328111,0.937894402188,,,,,x,1,0.917172757676,2018_Nov_13_1539,59.9830123184,chinese_cond2,001,1007,
images/cheetah.jpg,cheetah,z,sounds/greatgatsby_chinese.wav,,,,,,,,,0,0,0,0,0,35,35,82,185.207591383,9.62195917964e-06,186.484388766,1.27680764731,,,,,z,1,1.2672901944,2018_Nov_13_1539,59.9830123184,chinese_cond2,001,1007,
images/aloe02.jpg,broad sword,x,sounds/greatgatsby_chinese.wav,,,,,,,,,0,0,0,0,0,36,36,137,187.630872675,9.30135138333e-06,189.218517498,1.58765540761,,,,,x,1,1.56737092312,2018_Nov_13_1539,59.9830123184,chinese_cond2,001,1007,
images/envelope02a.jpg,grand piano,x,sounds/greatgatsby_chinese.wav,,,,,,,,,0,0,0,0,0,37,37,182,190.414188491,9.62195917964e-06,191.819342233,1.40516464703,,,,,x,1,1.38405908423,2018_Nov_13_1539,59.9830123184,chinese_cond2,001,1007,
images/atm.jpg,atm,z,sounds/greatgatsby_chinese.wav,,,,,,,,,0,0,0,0,0,38,38,96,193.035496565,9.94268339127e-06,194.186617962,1.15113134007,,,,,z,1,1.13390601415,2018_Nov_13_1539,59.9830123184,chinese_cond2,001,1007,
images/battery03b.jpg,battery,z,sounds/greatgatsby_chinese.wav,,,,,,,,,0,0,0,0,0,39,39,34,195.38400456,9.62207559496e-06,196.787376305,1.40338425408,,,,,z,1,1.38397505204,2018_Nov_13_1539,59.9830123184,chinese_cond2,001,1007,
images/flashlight05.jpg,flash light,z,sounds/greatgatsby_chinese.wav,,,,,,,,,0,0,0,0,0,40,40,8,197.961544346,8.9806271717e-06,198.954674229,0.993139826111,,,,,z,1,0.983869017451,2018_Nov_13_1539,59.9830123184,chinese_cond2,001,1007,
images/table02.jpg,table,z,sounds/greatgatsby_chinese.wav,,,,,,,,,0,0,0,0,0,41,41,49,200.125627876,9.30123496801e-06,201.305351025,1.1797337333,,,,,z,1,1.16725270066,2018_Nov_13_1539,59.9830123184,chinese_cond2,001,1007,
images/daisy.jpg,daisy,z,sounds/greatgatsby_chinese.wav,,,,,,,,,0,0,0,0,0,42,42,6,202.481962416,9.62207559496e-06,203.672736125,1.19078397274,,,,,z,1,1.16727996303,2018_Nov_13_1539,59.9830123184,chinese_cond2,001,1007,
images/key03b.jpg,cigar,x,sounds/greatgatsby_chinese.wav,,,,,,,,,0,0,0,0,0,43,43,153,204.85103233,9.30135138333e-06,205.99005116,1.13902941486,,,,,x,1,1.11721984146,2018_Nov_13_1539,59.9830123184,chinese_cond2,001,1007,
images/highheelshoe02a.jpg,high heel shoe,z,sounds/greatgatsby_chinese.wav,,,,,,,,,0,0,0,0,0,44,44,75,207.173855646,9.62207559496e-06,208.090661164,0.916815139703,,,,,z,1,0.900507432758,2018_Nov_13_1539,59.9830123184,chinese_cond2,001,1007,
images/wallet01.jpg,lamp,x,sounds/greatgatsby_chinese.wav,,,,,,,,,0,0,0,0,0,45,45,193,209.274759442,9.30135138333e-06,210.307970458,1.03322160046,,,,,x,1,1.01721025154,2018_Nov_13_1539,59.9830123184,chinese_cond2,001,1007,
images/pouch01b.jpg,pouch,z,sounds/greatgatsby_chinese.wav,,,,,,,,,0,0,0,0,0,46,46,25,211.472779809,9.30123496801e-06,212.825363367,1.35259382182,,,,,z,1,1.3338927998,2018_Nov_13_1539,59.9830123184,chinese_cond2,001,1007,
images/nametag01a.jpg,name tag,z,sounds/greatgatsby_chinese.wav,,,,,,,,,0,0,0,0,0,47,47,108,213.983085786,9.94279980659e-06,215.342778728,1.35970320588,,,,,z,1,1.35063478013,2018_Nov_13_1539,59.9830123184,chinese_cond2,001,1007,
images/button07.jpg,radish,x,sounds/greatgatsby_chinese.wav,,,,,,,,,0,0,0,0,0,48,48,215,216.534478075,9.62207559496e-06,217.526742939,0.992275448749,,,,,x,1,0.983873828431,2018_Nov_13_1539,59.9830123184,chinese_cond2,001,1007,
images/lemon02.jpg,lemon,z,sounds/greatgatsby_chinese.wav,,,,,,,,,0,0,0,0,0,49,49,14,218.723309421,9.94268339127e-06,219.710697849,0.987399012898,,,,,z,1,0.967189901043,2018_Nov_13_1539,59.9830123184,chinese_cond2,001,1007,
images/electricguitar02.jpg,electric guitar,z,sounds/greatgatsby_chinese.wav,,,,,,,,,0,0,0,0,0,50,50,100,220.909019706,9.62195917964e-06,222.161420158,1.25241071498,,,,,z,1,1.23393997981,2018_Nov_13_1539,59.9830123184,chinese_cond2,001,1007,
images/grasshopper.jpg,cauliflower,x,sounds/greatgatsby_chinese.wav,,,,,,,,,0,0,0,0,0,51,51,148,223.342528235,9.94279980659e-06,225.012246897,1.66972892545,,,,,x,1,1.65072352719,2018_Nov_13_1539,59.9830123184,chinese_cond2,001,1007,
images/aquarium.jpg,computer mouse,x,sounds/greatgatsby_chinese.wav,,,,,,,,,0,0,0,0,0,52,52,159,226.228766224,9.62207559496e-06,227.462954131,1.23419849121,,,,,x,1,1.21726439137,2018_Nov_13_1539,59.9830123184,chinese_cond2,001,1007,
images/scissors04a.jpg,leek,x,sounds/greatgatsby_chinese.wav,,,,,,,,,0,0,0,0,0,53,53,194,228.626239035,9.30135138333e-06,229.663607401,1.03737830964,,,,,x,1,1.01722243952,2018_Nov_13_1539,59.9830123184,chinese_cond2,001,1007,
images/blackolive.jpg,tank,x,sounds/greatgatsby_chinese.wav,,,,,,,,,0,0,0,0,0,54,54,229,230.836998946,9.30135138333e-06,233.031253899,2.19426489598,,,,,x,1,2.18423394836,2018_Nov_13_1539,59.9830123184,chinese_cond2,001,1007,
images/mirror02.jpg,8 ball,x,sounds/greatgatsby_chinese.wav,,,,,,,,,0,0,0,0,0,55,55,121,234.213971418,9.62207559496e-06,235.63199845,1.41803665413,,,,,x,1,1.40062273666,2018_Nov_13_1539,59.9830123184,chinese_cond2,001,1007,
images/bracelet02a.jpg,chess knight,x,sounds/greatgatsby_chinese.wav,,,,,,,,,0,0,0,0,0,56,56,152,236.77864914,9.30135138333e-06,239.099669292,2.32102977345,,,,,x,1,2.30091239128,2018_Nov_13_1539,59.9830123184,chinese_cond2,001,1007,
images/snowman.jpg,globe,x,sounds/greatgatsby_chinese.wav,,,,,,,,,0,0,0,0,0,57,57,180,240.297477333,9.30135138333e-06,241.517036895,1.21956982557,,,,,x,1,1.20059393474,2018_Nov_13_1539,59.9830123184,chinese_cond2,001,1007,
images/hairband.jpg,hairband,z,sounds/greatgatsby_chinese.wav,,,,,,,,,0,0,0,0,0,58,58,66,242.666331072,9.30135138333e-06,244.284511992,1.61819086294,,,,,z,1,1.60071183648,2018_Nov_13_1539,59.9830123184,chinese_cond2,001,1007,
images/comb02a.jpg,diploma,x,sounds/greatgatsby_chinese.wav,,,,,,,,,0,0,0,0,0,59,59,166,245.473622697,9.62195917964e-06,246.601857818,1.12824602588,,,,,x,1,1.11724389647,2018_Nov_13_1539,59.9830123184,chinese_cond2,001,1007,
images/lollipop03b.jpg,lollipop,z,sounds/greatgatsby_chinese.wav,,,,,,,,,0,0,0,0,0,60,60,42,247.784460194,9.30123496801e-06,249.152661561,1.36821163038,,,,,z,1,1.3507095112,2018_Nov_13_1539,59.9830123184,chinese_cond2,001,1007,
images/licenseplate.jpg,license plate,z,sounds/greatgatsby_chinese.wav,,,,,,,,,0,0,0,0,0,61,61,40,250.35356789,9.30135138333e-06,251.65332564,1.29976769257,,,,,z,1,1.28395968897,2018_Nov_13_1539,59.9830123184,chinese_cond2,001,1007,
images/charcoalbarbecue.jpg,charcoal barbecue,z,sounds/greatgatsby_chinese.wav,,,,,,,,,0,0,0,0,0,62,62,77,252.803048318,9.62207559496e-06,254.237237764,1.4341993893,,,,,z,1,1.41715720226,2018_Nov_13_1539,59.9830123184,chinese_cond2,001,1007,
images/gps.jpg,gps,z,sounds/greatgatsby_chinese.wav,,,,,,,,,0,0,0,0,0,63,63,21,255.434211898,9.94268339127e-06,256.638098164,1.20389717142,,,,,z,1,1.1839231574,2018_Nov_13_1539,59.9830123184,chinese_cond2,001,1007,
images/cloud.jpg,ceiling fan,x,sounds/greatgatsby_chinese.wav,,,,,,,,,0,0,0,0,0,64,64,149,257.774236165,9.62207559496e-06,259.255529851,1.48130394949,,,,,x,1,1.46734305134,2018_Nov_13_1539,59.9830123184,chinese_cond2,001,1007,
images/marker01a.jpg,marker,z,sounds/greatgatsby_chinese.wav,,,,,,,,,0,0,0,0,0,65,65,95,260.376351853,9.62207559496e-06,261.456164839,1.07982292934,,,,,z,1,1.06722322525,2018_Nov_13_1539,59.9830123184,chinese_cond2,001,1007,
images/candy.jpg,candy,z,sounds/greatgatsby_chinese.wav,,,,,,,,,0,0,0,0,0,66,66,31,262.609585256,9.30135138333e-06,264.090267623,1.48069198942,,,,,z,1,1.46734176844,2018_Nov_13_1539,59.9830123184,chinese_cond2,001,1007,
images/ashtray02b.jpg,ashtray,z,sounds/greatgatsby_chinese.wav,,,,,,,,,0,0,0,0,0,67,67,43,265.236821772,9.30123496801e-06,266.791266485,1.5544546548,,,,,z,1,1.53424329765,2018_Nov_13_1539,59.9830123184,chinese_cond2,001,1007,
images/boxingglove02a.jpg,bracelet,x,sounds/greatgatsby_chinese.wav,,,,,,,,,0,0,0,0,0,68,68,135,267.987684145,9.62207559496e-06,269.258432491,1.27075828833,,,,,x,1,1.25060626701,2018_Nov_13_1539,59.9830123184,chinese_cond2,001,1007,
images/honeycomb.jpg,honey comb,z,sounds/greatgatsby_chinese.wav,,,,,,,,,0,0,0,0,0,69,69,59,270.451526709,9.62207559496e-06,271.492422505,1.04090638075,,,,,z,1,1.01721410034,2018_Nov_13_1539,59.9830123184,chinese_cond2,001,1007,
images/drink.jpg,drink,z,sounds/greatgatsby_chinese.wav,,,,,,,,,0,0,0,0,0,70,70,117,272.642880304,8.9806271717e-06,274.076506543,1.43363650155,,,,,z,1,1.41733168135,2018_Nov_13_1539,59.9830123184,chinese_cond2,001,1007,
images/lipstick04.jpg,lipstick,z,sounds/greatgatsby_chinese.wav,,,,,,,,,0,0,0,0,0,71,71,56,275.252188446,9.62195917964e-06,276.577230599,1.32505273668,,,,,z,1,1.30062629678,2018_Nov_13_1539,59.9830123184,chinese_cond2,001,1007,
images/plant01.jpg,plant,z,sounds/greatgatsby_chinese.wav,,,,,,,,,0,0,0,0,0,72,72,47,277.7165862,8.98051075637e-06,279.161320089,1.44474415225,,,,,z,1,1.43399251602,2018_Nov_13_1539,59.9830123184,chinese_cond2,001,1007,
images/cola.jpg,comb,x,sounds/greatgatsby_chinese.wav,,,,,,,,,0,0,0,0,0,73,73,157,280.361806898,9.30123496801e-06,281.57867807,1.21688143536,,,,,x,1,1.20059297245,2018_Nov_13_1539,59.9830123184,chinese_cond2,001,1007,
images/ostrich.jpg,ostrich,z,sounds/greatgatsby_chinese.wav,,,,,,,,,0,0,0,0,0,74,74,76,282.706578345,9.30123496801e-06,283.829335334,1.12276725215,,,,,z,1,1.10056478006,2018_Nov_13_1539,59.9830123184,chinese_cond2,001,1007,
images/corn01.jpg,corn,z,sounds/greatgatsby_chinese.wav,,,,,,,,,0,0,0,0,0,75,75,22,284.964084557,9.62207559496e-06,287.51375611,2.54968213686,,,,,z,1,2.53433855553,2018_Nov_13_1539,59.9830123184,chinese_cond2,001,1007,
images/camera01a.jpg,bull,x,sounds/greatgatsby_chinese.wav,,,,,,,,,0,0,0,0,0,76,76,138,288.705935595,8.98051075637e-06,290.014463488,1.30853783584,,,,,x,1,1.28394333145,2018_Nov_13_1539,59.9830123184,chinese_cond2,001,1007,
images/eraser.jpg,eraser,z,sounds/greatgatsby_chinese.wav,,,,,,,,,0,0,0,0,0,77,77,110,291.156761821,9.62195917964e-06,292.015050431,0.858299514628,,,,,z,1,0.833820795175,2018_Nov_13_1539,59.9830123184,chinese_cond2,001,1007,
images/pen03c.jpg,pepper,x,sounds/greatgatsby_chinese.wav,,,,,,,,,0,0,0,0,0,78,78,211,293.187278353,9.30135138333e-06,295.616101283,2.42883287242,,,,,x,1,2.41762868082,2018_Nov_13_1539,59.9830123184,chinese_cond2,001,1007,
images/ruler02b.jpg,watermelon,x,sounds/greatgatsby_chinese.wav,,,,,,,,,0,0,0,0,0,79,79,238,296.75542898,9.62195917964e-06,297.900107799,1.14468908228,,,,,x,1,1.13392974832,2018_Nov_13_1539,59.9830123184,chinese_cond2,001,1007,
images/dolphin01.jpg,dolphin,z,sounds/greatgatsby_chinese.wav,,,,,,,,,0,0,0,0,0,80,80,99,299.082691251,9.30135138333e-06,300.134070871,1.05138988362,,,,,z,1,1.03385248373,2018_Nov_13_1539,59.9830123184,chinese_cond2,001,1007,
images/candle08a.jpg,screw driver,x,sounds/greatgatsby_chinese.wav,,,,,,,,,0,0,0,0,0,81,81,221,301.288514108,9.62207559496e-06,302.468139433,1.1796359095,,,,,x,1,1.16726777516,2018_Nov_13_1539,59.9830123184,chinese_cond2,001,1007,
images/peach01.jpg,peach,z,sounds/greatgatsby_chinese.wav,,,,,,,,,0,0,0,0,0,82,82,106,303.718156833,9.62207559496e-06,304.835442104,1.11729585542,,,,,z,1,1.10057440202,2018_Nov_13_1539,59.9830123184,chinese_cond2,001,1007,
images/gamecontroller01.jpg,game controller,z,sounds/greatgatsby_chinese.wav,,,,,,,,,0,0,0,0,0,83,83,112,305.990048915,9.30135138333e-06,307.186122108,1.19608345628,,,,,z,1,1.18392540247,2018_Nov_13_1539,59.9830123184,chinese_cond2,001,1007,
images/swan.jpg,swan,z,sounds/greatgatsby_chinese.wav,,,,,,,,,0,0,0,0,0,84,84,54,308.368220932,9.30135138333e-06,309.853561636,1.48535064701,,,,,x,0,1.46733471227,2018_Nov_13_1539,59.9830123184,chinese_cond2,001,1007,
images/50dollarbill.jpg,cherry,x,sounds/greatgatsby_chinese.wav,,,,,,,,,0,0,0,0,0,85,85,151,311.051501178,8.98051075637e-06,312.470989473,1.41949855851,,,,,x,1,1.40064807457,2018_Nov_13_1539,59.9830123184,chinese_cond2,001,1007,
images/hand01a.jpg,cupcake,x,sounds/greatgatsby_chinese.wav,,,,,,,,,0,0,0,0,0,86,86,163,313.663865271,9.94279980659e-06,314.938365239,1.27451119374,,,,,x,1,1.25060402183,2018_Nov_13_1539,59.9830123184,chinese_cond2,001,1007,
images/puma.jpg,puma,z,sounds/greatgatsby_chinese.wav,,,,,,,,,0,0,0,0,0,87,87,4,316.037665366,9.62195917964e-06,317.139030056,1.10137463268,,,,,x,0,1.08390426612,2018_Nov_13_1539,59.9830123184,chinese_cond2,001,1007,
images/pipe.jpg,icecube,x,sounds/greatgatsby_chinese.wav,,,,,,,,,0,0,0,0,0,88,88,188,318.321157425,9.30123496801e-06,320.740074173,2.41892636952,,,,,x,1,2.40096014854,2018_Nov_13_1539,59.9830123184,chinese_cond2,001,1007,
images/lightswitch02a.jpg,fork,x,sounds/greatgatsby_chinese.wav,,,,,,,,,0,0,0,0,0,89,89,177,321.9393361,9.30135138333e-06,323.674246781,1.73492094397,,,,,x,1,1.71741176851,2018_Nov_13_1539,59.9830123184,chinese_cond2,001,1007,
images/acousticguitar02.jpg,acoustic guitar,z,sounds/greatgatsby_chinese.wav,,,,,,,,,0,0,0,0,0,90,90,97,324.878065693,1.02635240182e-05,326.525082821,1.64702931605,,,,,z,1,1.63405916444,2018_Nov_13_1539,59.9830123184,chinese_cond2,001,1007,
images/screw03c.jpg,screw,z,sounds/greatgatsby_chinese.wav,,,,,,,,,0,0,0,0,0,91,91,84,327.696511155,9.30123496801e-06,328.909354232,1.21285301959,,,,,z,1,1.20085116313,2018_Nov_13_1539,59.9830123184,chinese_cond2,001,1007,
images/apricot.jpg,apricot,z,sounds/greatgatsby_chinese.wav,,,,,,,,,0,0,0,0,0,92,92,32,330.107413408,9.94268339127e-06,331.093067308,0.985664164182,,,,,x,0,0.967189259594,2018_Nov_13_1539,59.9830123184,chinese_cond2,001,1007,
images/spoon02b.jpg,spoon,z,sounds/greatgatsby_chinese.wav,,,,,,,,,0,0,0,0,0,93,93,38,332.271929608,9.30123496801e-06,333.310388149,1.03846880421,,,,,z,1,1.01721891132,2018_Nov_13_1539,59.9830123184,chinese_cond2,001,1007,
images/triangleruler02.jpg,bottle of red wine,x,sounds/greatgatsby_chinese.wav,,,,,,,,,0,0,0,0,0,94,94,134,334.501472649,9.30123496801e-06,336.227897036,1.72643465002,,,,,x,1,1.71722542227,2018_Nov_13_1539,59.9830123184,chinese_cond2,001,1007,
images/dresser02.jpg,dresser,z,sounds/greatgatsby_chinese.wav,,,,,,,,,0,0,0,0,0,95,95,87,337.425141869,9.62195917964e-06,339.078737887,1.65360628197,,,,,z,1,1.63406974869,2018_Nov_13_1539,59.9830123184,chinese_cond2,001,1007,
images/orange.jpg,bat,x,sounds/greatgatsby_chinese.wav,,,,,,,,,0,0,0,0,0,96,96,128,340.278229781,1.02635240182e-05,341.312703526,1.03448464989,,,,,x,1,1.017206082,2018_Nov_13_1539,59.9830123184,chinese_cond2,001,1007,
images/beachumbrella01.jpg,beach umbrella,z,sounds/greatgatsby_chinese.wav,,,,,,,,,0,0,0,0,0,97,97,92,342.486462952,9.62207559496e-06,343.91345385,1.42700148281,,,,,z,1,1.41732462519,2018_Nov_13_1539,59.9830123184,chinese_cond2,001,1007,
images/doorhandle.jpg,doll,x,sounds/greatgatsby_chinese.wav,,,,,,,,,0,0,0,0,0,98,98,168,345.097261864,9.62207559496e-06,346.730952185,1.63370058418,,,,,x,1,1.61739095289,2018_Nov_13_1539,59.9830123184,chinese_cond2,001,1007,
images/umbrella01.jpg,umbrella,z,sounds/greatgatsby_chinese.wav,,,,,,,,,0,0,0,0,0,99,99,53,347.923308073,9.30123496801e-06,348.898256844,0.974958713516,,,,,z,1,0.950537084602,2018_Nov_13_1539,59.9830123184,chinese_cond2,001,1007,
images/masquerademask02b.jpg,mirror,x,sounds/greatgatsby_chinese.wav,,,,,,,,,0,0,0,0,0,100,100,204,350.080358875,9.62207559496e-06,351.949237792,1.86888918048,,,,,x,1,1.85089024459,2018_Nov_13_1539,59.9830123184,chinese_cond2,001,1007,
images/ant.jpg,ant,z,sounds/greatgatsby_chinese.wav,,,,,,,,,0,0,0,0,0,101,101,98,353.112871975,9.62195917964e-06,354.216457425,1.10359571385,,,,,z,1,1.08389624779,2018_Nov_13_1539,59.9830123184,chinese_cond2,001,1007,
images/ceilingfan02.jpg,paper clip,x,sounds/greatgatsby_chinese.wav,,,,,,,,,0,0,0,0,0,102,102,208,355.386002731,9.62207559496e-06,357.167316527,1.78132438019,,,,,x,1,1.76743115694,2018_Nov_13_1539,59.9830123184,chinese_cond2,001,1007,
images/safe.jpg,safe,z,sounds/greatgatsby_chinese.wav,,,,,,,,,0,0,0,0,0,103,103,78,358.353595794,9.62195917964e-06,360.084822848,1.73123731697,,,,,z,1,1.71740984416,2018_Nov_13_1539,59.9830123184,chinese_cond2,001,1007,
images/glasses01b.jpg,calculator,x,sounds/greatgatsby_chinese.wav,,,,,,,,,0,0,0,0,0,104,104,142,361.255432027,9.30135138333e-06,362.152094504,0.89667306107,,,,,x,1,0.883802336873,2018_Nov_13_1539,59.9830123184,chinese_cond2,001,1007,
images/graduationcap.jpg,graduation cap,z,sounds/greatgatsby_chinese.wav,,,,,,,,,0,0,0,0,0,105,105,35,363.324827582,8.98051075637e-06,364.369412137,1.044594498,,,,,z,1,1.03389097168,2018_Nov_13_1539,59.9830123184,chinese_cond2,001,1007,
images/thumbtack02a.jpg,thumb tack,z,sounds/greatgatsby_chinese.wav,,,,,,,,,0,0,0,0,0,106,106,60,365.552855476,9.62195917964e-06,367.086863356,1.53401814261,,,,,x,0,1.51735538349,2018_Nov_13_1539,59.9830123184,chinese_cond2,001,1007,
images/basketball01.jpg,basket ball,z,sounds/greatgatsby_chinese.wav,,,,,,,,,0,0,0,0,0,107,107,33,368.301815257,9.30123496801e-06,370.554381528,2.25257685501,,,,,z,1,2.23399739119,2018_Nov_13_1539,59.9830123184,chinese_cond2,001,1007,
images/cupcake.jpg,scissors,x,sounds/greatgatsby_chinese.wav,,,,,,,,,0,0,0,0,0,108,108,219,371.752214586,8.98051075637e-06,373.071935445,1.31973112246,,,,,x,1,1.30062565533,2018_Nov_13_1539,59.9830123184,chinese_cond2,001,1007,
images/diaper01a.jpg,camera,x,sounds/greatgatsby_chinese.wav,,,,,,,,,0,0,0,0,0,109,109,143,374.213453112,9.30123496801e-06,376.039467569,1.82602439949,,,,,x,1,1.81745246972,2018_Nov_13_1539,59.9830123184,chinese_cond2,001,1007,
images/tank.jpg,wallet,x,sounds/greatgatsby_chinese.wav,,,,,,,,,0,0,0,0,0,110,110,237,377.26159236,9.30123496801e-06,378.740240313,1.4786585375,,,,,x,1,1.46734112699,2018_Nov_13_1539,59.9830123184,chinese_cond2,001,1007,
images/fryingpan01.jpg,frying pan,z,sounds/greatgatsby_chinese.wav,,,,,,,,,0,0,0,0,0,111,111,45,379.92066619,9.62195917964e-06,381.691099414,1.77044412959,,,,,z,1,1.75074626727,2018_Nov_13_1539,59.9830123184,chinese_cond2,001,1007,
images/croissant02b.jpg,croissant,z,sounds/greatgatsby_chinese.wav,,,,,,,,,0,0,0,0,0,112,112,39,382.881865747,9.30135138333e-06,384.208604901,1.32674941816,,,,,z,1,1.31740259554,2018_Nov_13_1539,59.9830123184,chinese_cond2,001,1007,
images/parkfountain.jpg,park fountain,z,sounds/greatgatsby_chinese.wav,,,,,,,,,0,0,0,0,0,113,113,93,385.358786549,9.62195917964e-06,387.259395975,1.90062033106,,,,,z,1,1.88412435364,2018_Nov_13_1539,59.9830123184,chinese_cond2,001,1007,
images/kiwi03.jpg,backpack,x,sounds/greatgatsby_chinese.wav,,,,,,,,,0,0,0,0,0,114,114,125,388.471092108,9.30135138333e-06,389.47669244,1.00561091607,,,,,x,1,0.983860999113,2018_Nov_13_1539,59.9830123184,chinese_cond2,001,1007,
images/backpack01b.jpg,swallow,x,sounds/greatgatsby_chinese.wav,,,,,,,,,0,0,0,0,0,115,115,228,390.680770184,9.30135138333e-06,392.094129258,1.4133686953,,,,,x,1,1.40065320628,2018_Nov_13_1539,59.9830123184,chinese_cond2,001,1007,
images/egg01b (1).jpg,egg,z,sounds/greatgatsby_chinese.wav,,,,,,,,,0,0,0,0,0,116,116,19,393.289032414,9.30135138333e-06,394.228160999,0.939139169874,,,,,z,1,0.917261601076,2018_Nov_13_1539,59.9830123184,chinese_cond2,001,1007,
images/coin01b.jpg,arrow,x,sounds/greatgatsby_chinese.wav,,,,,,,,,0,0,0,0,0,117,117,124,395.354121797,9.62195917964e-06,396.34536288,0.991251987289,,,,,x,1,0.967186693568,2018_Nov_13_1539,59.9830123184,chinese_cond2,001,1007,
images/bowlingball.jpg,bowling ball,z,sounds/greatgatsby_chinese.wav,,,,,,,,,0,0,0,0,0,118,118,20,397.533289756,9.30135138333e-06,399.579637064,2.04635692982,,,,,z,1,2.03417161375,2018_Nov_13_1539,59.9830123184,chinese_cond2,001,1007,
images/dice05a.jpg,band aid,x,sounds/greatgatsby_chinese.wav,,,,,,,,,0,0,0,0,0,119,119,126,400.696464007,9.30123496801e-06,401.896985776,1.20053235383,,,,,x,1,1.18392668548,2018_Nov_13_1539,59.9830123184,chinese_cond2,001,1007,
images/redfox.jpg,red fox,z,sounds/greatgatsby_chinese.wav,,,,,,,,,0,0,0,0,0,120,120,1,403.098721203,8.9806271717e-06,404.681119784,1.58240852435,,,,,z,1,1.56737509265,2018_Nov_13_1539,59.9830123184,chinese_cond2,001,1007,
images/screwdriver02b.jpg,cola,x,sounds/greatgatsby_chinese.wav,,,,,,,,,0,0,0,0,0,121,121,158,405.804323876,9.94279980659e-06,407.298562375,1.4942490838,,,,,x,1,1.48403178982,2018_Nov_13_1539,59.9830123184,chinese_cond2,001,1007,
images/handbag02a.jpg,candle,x,sounds/greatgatsby_chinese.wav,,,,,,,,,0,0,0,0,0,122,122,144,408.494410734,9.94279980659e-06,409.965980093,1.47157994402,,,,,x,1,1.45059241122,2018_Nov_13_1539,59.9830123184,chinese_cond2,001,1007,
images/bicycle.jpg,hand bag,x,sounds/greatgatsby_chinese.wav,,,,,,,,,0,0,0,0,0,123,123,186,411.162375303,9.94268339127e-06,412.500055327,1.33769028727,,,,,x,1,1.31729258387,2018_Nov_13_1539,59.9830123184,chinese_cond2,001,1007,
images/lip.jpg,boxing glove,x,sounds/greatgatsby_chinese.wav,,,,,,,,,0,0,0,0,0,124,124,136,413.631368529,9.62195917964e-06,414.934132516,1.30277425051,,,,,x,1,1.28398823412,2018_Nov_13_1539,59.9830123184,chinese_cond2,001,1007,
images/elbow.jpg,elbow,z,sounds/greatgatsby_chinese.wav,,,,,,,,,0,0,0,0,0,125,125,105,416.140692419,9.30123496801e-06,417.201420786,1.06073830975,,,,,z,1,1.05055757961,2018_Nov_13_1539,59.9830123184,chinese_cond2,001,1007,
images/cookingpot.jpg,grasshopper,x,sounds/greatgatsby_chinese.wav,,,,,,,,,0,0,0,0,0,126,126,183,418.349394503,9.62195917964e-06,419.63546045,1.28607621079,,,,,x,1,1.2672786481,2018_Nov_13_1539,59.9830123184,chinese_cond2,001,1007,
images/hairpin.jpg,hair pin,z,sounds/greatgatsby_chinese.wav,,,,,,,,,0,0,0,0,0,127,127,28,420.752170004,9.62195917964e-06,422.419611136,1.66745203664,,,,,z,1,1.6507325077,2018_Nov_13_1539,59.9830123184,chinese_cond2,001,1007,
images/plate01b.jpg,plate,z,sounds/greatgatsby_chinese.wav,,,,,,,,,0,0,0,0,0,128,128,3,423.59498257,9.30135138333e-06,424.62024388,1.02527157334,,,,,z,1,1.01721474179,2018_Nov_13_1539,59.9830123184,chinese_cond2,001,1007,
images/toucan.jpg,toucan,z,sounds/greatgatsby_chinese.wav,,,,,,,,,0,0,0,0,0,129,129,81,425.792544608,8.98051075637e-06,427.304359958,1.51182529249,,,,,z,1,1.50069198303,2018_Nov_13_1539,59.9830123184,chinese_cond2,001,1007,
images/cat.jpg,black olive,x,sounds/greatgatsby_chinese.wav,,,,,,,,,0,0,0,0,0,130,130,133,428.511860894,9.62195917964e-06,429.871776105,1.359925795,,,,,x,1,1.35065274127,2018_Nov_13_1539,59.9830123184,chinese_cond2,001,1007,
images/flipflop01b.jpg,flip flop,z,sounds/greatgatsby_chinese.wav,,,,,,,,,0,0,0,0,0,131,131,27,431.096039548,9.62207559496e-06,431.955720142,0.859690536861,,,,,z,1,0.8505063263,2018_Nov_13_1539,59.9830123184,chinese_cond2,001,1007,
images/sock03.jpg,sock,z,sounds/greatgatsby_chinese.wav,,,,,,,,,0,0,0,0,0,132,132,90,433.127778075,9.30135138333e-06,435.440050214,2.3122824023,,,,,z,1,2.30091014609,2018_Nov_13_1539,59.9830123184,chinese_cond2,001,1007,
images/treadmill.jpg,lily,x,sounds/greatgatsby_chinese.wav,,,,,,,,,0,0,0,0,0,133,133,199,436.638534683,9.62195917964e-06,438.14083707,1.50231265055,,,,,x,1,1.48400324455,2018_Nov_13_1539,59.9830123184,chinese_cond2,001,1007,
images/globe.jpg,cloud,x,sounds/greatgatsby_chinese.wav,,,,,,,,,0,0,0,0,0,134,134,154,439.340242045,9.30123496801e-06,440.358155666,1.01792452554,,,,,z,0,1.00053273875,2018_Nov_13_1539,59.9830123184,chinese_cond2,001,1007,
images/parkbench03.jpg,park bench,z,sounds/greatgatsby_chinese.wav,,,,,,,,,0,0,0,0,0,135,135,71,441.540186815,9.30135138333e-06,443.125618575,1.58544170333,,,,,z,1,1.56736579142,2018_Nov_13_1539,59.9830123184,chinese_cond2,001,1007,
images/hairdryer03a.jpg,hairdryer,z,sounds/greatgatsby_chinese.wav,,,,,,,,,0,0,0,0,0,136,136,119,444.303058741,9.62207559496e-06,445.242912827,0.939864348853,,,,,z,1,0.91718558711,2018_Nov_13_1539,59.9830123184,chinese_cond2,001,1007,
images/tent.jpg,tent,z,sounds/greatgatsby_chinese.wav,,,,,,,,,0,0,0,0,0,137,137,11,446.4735191,9.30135138333e-06,447.426886019,0.953376540449,,,,,z,1,0.933868231717,2018_Nov_13_1539,59.9830123184,chinese_cond2,001,1007,
images/tissuebox03.jpg,tissue box,z,sounds/greatgatsby_chinese.wav,,,,,,,,,0,0,0,0,0,138,138,58,448.626466114,3.36769735441e-05,449.4607988,0.834359627799,,,,,z,1,0.817154508084,2018_Nov_13_1539,59.9830123184,chinese_cond2,001,1007,
images/bench02.jpg,electric toothbrush,x,sounds/greatgatsby_chinese.wav,,,,,,,,,0,0,0,0,0,139,139,172,450.642199707,9.62195917964e-06,451.861503965,1.21931452141,,,,,x,1,1.20060676406,2018_Nov_13_1539,59.9830123184,chinese_cond2,001,1007,
images/lightbulb03b.jpg,treadmill,x,sounds/greatgatsby_chinese.wav,,,,,,,,,0,0,0,0,0,140,140,234,453.035645385,9.30135138333e-06,454.412231373,1.3765981762,,,,,x,1,1.36731261376,2018_Nov_13_1539,59.9830123184,chinese_cond2,001,1007,
images/nailpolish02b.jpg,nail polish,z,sounds/greatgatsby_chinese.wav,,,,,,,,,0,0,0,0,0,141,141,94,455.609069516,9.30123496801e-06,456.72958201,1.12052211596,,,,,z,1,1.10057343985,2018_Nov_13_1539,59.9830123184,chinese_cond2,001,1007,
images/chameleon.jpg,50 dollar bill,x,sounds/greatgatsby_chinese.wav,,,,,,,,,0,0,0,0,0,142,142,120,457.912872039,9.62195917964e-06,459.047020207,1.13415843155,,,,,x,1,1.1173458898,2018_Nov_13_1539,59.9830123184,chinese_cond2,001,1007,
images/nailclipper03a.jpg,aquarium,x,sounds/greatgatsby_chinese.wav,,,,,,,,,0,0,0,0,0,143,143,123,460.181347986,9.30135138333e-06,461.447609588,1.2662721856,,,,,x,1,1.25060370099,2018_Nov_13_1539,59.9830123184,chinese_cond2,001,1007,
images/panda.jpg,panda,z,sounds/greatgatsby_chinese.wav,,,,,,,,,0,0,0,0,0,144,144,83,462.646964207,9.30123496801e-06,463.514877395,0.867923451122,,,,,z,1,0.850494779879,2018_Nov_13_1539,59.9830123184,chinese_cond2,001,1007,
images/pictureframe04.jpg,picture frame,z,sounds/greatgatsby_chinese.wav,,,,,,,,,0,0,0,0,0,145,145,41,464.705217793,9.30123496801e-06,466.632512586,1.92730473645,,,,,z,1,1.91752267827,2018_Nov_13_1539,59.9830123184,chinese_cond2,001,1007,
images/radio03a.jpg,radio,z,sounds/greatgatsby_chinese.wav,,,,,,,,,0,0,0,0,0,146,146,37,467.819729679,9.62207559496e-06,469.149853216,1.33013476268,,,,,z,1,1.31730380957,2018_Nov_13_1539,59.9830123184,chinese_cond2,001,1007,
images/bowtie.jpg,bowtie,z,sounds/greatgatsby_chinese.wav,,,,,,,,,0,0,0,0,0,147,147,89,470.347622128,9.62195917964e-06,472.167408257,1.81979639176,,,,,z,1,1.80077078741,2018_Nov_13_1539,59.9830123184,chinese_cond2,001,1007,
images/headphones02b.jpg,headphones,z,sounds/greatgatsby_chinese.wav,,,,,,,,,0,0,0,0,0,148,148,101,473.360396312,9.30135138333e-06,474.301343457,0.940957409446,,,,,z,1,0.917168588261,2018_Nov_13_1539,59.9830123184,chinese_cond2,001,1007,
images/sportshorts02.jpg,tape,x,sounds/greatgatsby_chinese.wav,,,,,,,,,0,0,0,0,0,149,149,230,475.544244738,9.30123496801e-06,477.102165883,1.55793172924,,,,,z,0,1.53401461453,2018_Nov_13_1539,59.9830123184,chinese_cond2,001,1007,
images/gorilla.jpg,gorilla,z,sounds/greatgatsby_chinese.wav,,,,,,,,,0,0,0,0,0,150,150,80,478.292094459,9.62207559496e-06,479.369488792,1.07740523841,,,,,z,1,1.06723605457,2018_Nov_13_1539,59.9830123184,chinese_cond2,001,1007,
images/computermouse02a.jpg,world map,x,sounds/greatgatsby_chinese.wav,,,,,,,,,0,0,0,0,0,151,151,239,480.569248178,9.62195917964e-06,482.070271799,1.5010342059,,,,,x,1,1.48400709336,2018_Nov_13_1539,59.9830123184,chinese_cond2,001,1007,
images/sunglasses03a.jpg,sun glasses,z,sounds/greatgatsby_chinese.wav,,,,,,,,,0,0,0,0,0,152,152,17,483.292316086,9.30123496801e-06,484.487638761,1.19533261855,,,,,z,1,1.18392187438,2018_Nov_13_1539,59.9830123184,chinese_cond2,001,1007,
images/lantern03.jpg,lantern,z,sounds/greatgatsby_chinese.wav,,,,,,,,,0,0,0,0,0,153,153,5,485.639173585,9.94268339127e-06,486.888173617,1.24901061656,,,,,x,0,1.2337465774,2018_Nov_13_1539,59.9830123184,chinese_cond2,001,1007,
images/rhinoceros01.jpg,envelope,x,sounds/greatgatsby_chinese.wav,,,,,,,,,0,0,0,0,0,154,154,173,488.037642273,9.62195917964e-06,489.289033376,1.25140136585,,,,,x,1,1.23393420654,2018_Nov_13_1539,59.9830123184,chinese_cond2,001,1007,
images/broom02.jpg,broom,z,sounds/greatgatsby_chinese.wav,,,,,,,,,0,0,0,0,0,155,155,116,490.407169874,9.30123496801e-06,491.456346054,1.04918612202,,,,,z,1,1.03383612621,2018_Nov_13_1539,59.9830123184,chinese_cond2,001,1007,
images/ladder.jpg,ladder,z,sounds/greatgatsby_chinese.wav,,,,,,,,,0,0,0,0,0,156,156,113,492.591172253,9.30135138333e-06,494.073776136,1.48261414678,,,,,z,1,1.46729911084,2018_Nov_13_1539,59.9830123184,chinese_cond2,001,1007,
images/watermelon01.jpg,orange,x,sounds/greatgatsby_chinese.wav,,,,,,,,,0,0,0,0,0,157,157,207,495.267670585,1.02635240182e-05,496.374421998,1.10676199733,,,,,x,1,1.08388181473,2018_Nov_13_1539,59.9830123184,chinese_cond2,001,1007,
images/blueberry02.jpg,blueberry,z,sounds/greatgatsby_chinese.wav,,,,,,,,,0,0,0,0,0,158,158,46,497.51600766,9.62195917964e-06,499.041867299,1.52586958127,,,,,z,1,1.51734736527,2018_Nov_13_1539,59.9830123184,chinese_cond2,001,1007,
images/doll.jpg,carrot,x,sounds/greatgatsby_chinese.wav,,,,,,,,,0,0,0,0,0,159,159,146,500.182798665,8.9806271717e-06,501.109149539,0.92636081716,,,,,x,1,0.917186228675,2018_Nov_13_1539,59.9830123184,chinese_cond2,001,1007,
images/notebook02b.jpg,notebook,z,sounds/greatgatsby_chinese.wav,,,,,,,,,0,0,0,0,0,160,160,7,502.283081841,9.62207559496e-06,503.376612609,1.09354071121,,,,,z,1,1.08403640846,2018_Nov_13_1539,59.9830123184,chinese_cond2,001,1007,
images/showerhead01.jpg,skateboard,x,sounds/greatgatsby_chinese.wav,,,,,,,,,0,0,0,0,0,161,161,223,504.570999705,9.30135138333e-06,505.660475436,1.08948599536,,,,,x,1,1.06722739479,2018_Nov_13_1539,59.9830123184,chinese_cond2,001,1007,
images/bed.jpg,bed,z,sounds/greatgatsby_chinese.wav,,,,,,,,,0,0,0,0,0,162,162,103,506.807624867,9.30135138333e-06,507.727727848,0.920113244676,,,,,z,1,0.900500376709,2018_Nov_13_1539,59.9830123184,chinese_cond2,001,1007,
images/dreamcatcher.jpg,dream catcher,z,sounds/greatgatsby_chinese.wav,,,,,,,,,0,0,0,0,0,163,163,48,508.895281718,9.62195917964e-06,510.661909437,1.76663830306,,,,,z,1,1.75073985255,2018_Nov_13_1539,59.9830123184,chinese_cond2,001,1007,
images/leaf01a.jpg,leaf,z,sounds/greatgatsby_chinese.wav,,,,,,,,,0,0,0,0,0,164,164,68,511.845746638,8.98051075637e-06,512.712554577,0.866817881935,,,,,z,1,0.850536796032,2018_Nov_13_1539,59.9830123184,chinese_cond2,001,1007,
images/apple06.jpg,apple,z,sounds/greatgatsby_chinese.wav,,,,,,,,,0,0,0,0,0,165,165,13,513.915659215,9.30123496801e-06,515.013178308,1.0975293559,,,,,z,1,1.08389560622,2018_Nov_13_1539,59.9830123184,chinese_cond2,001,1007,
images/pineapple01a.jpg,pineapple,z,sounds/greatgatsby_chinese.wav,,,,,,,,,0,0,0,0,0,166,166,51,516.163366691,9.62207559496e-06,517.047102957,0.883747170796,,,,,z,1,0.867165236501,2018_Nov_13_1539,59.9830123184,chinese_cond2,001,1007,
images/cake.jpg,cake,z,sounds/greatgatsby_chinese.wav,,,,,,,,,0,0,0,0,0,167,167,23,518.235857968,9.30135138333e-06,519.797896692,1.5620489883,,,,,z,1,1.55069405178,2018_Nov_13_1539,59.9830123184,chinese_cond2,001,1007,
images/butterfly.jpg,butterfly,z,sounds/greatgatsby_chinese.wav,,,,,,,,,0,0,0,0,0,168,168,91,520.984661871,4.26576007158e-05,522.748760284,1.76412086398,,,,,z,1,1.75075749296,2018_Nov_13_1539,59.9830123184,chinese_cond2,001,1007,
images/fireextinguisher02.jpg,fire extinguisher,z,sounds/greatgatsby_chinese.wav,,,,,,,,,0,0,0,0,0,169,169,175,523.937166657,9.94268339127e-06,524.916049227,0.978893475025,,,,,z,1,0.967188618029,2018_Nov_13_1539,59.9830123184,chinese_cond2,001,1007,
images/lighter02b.jpg,stapler,x,sounds/greatgatsby_chinese.wav,,,,,,,,,0,0,0,0,0,170,170,227,526.09071184,8.9806271717e-06,527.116688706,1.02598680952,,,,,x,1,1.01720928936,2018_Nov_13_1539,59.9830123184,chinese_cond2,001,1007,
images/arrow02.jpg,hammer,x,sounds/greatgatsby_chinese.wav,,,,,,,,,0,0,0,0,0,171,171,184,528.236049766,9.62195917964e-06,530.084218906,1.84817908227,,,,,x,1,1.83410400304,2018_Nov_13_1539,59.9830123184,chinese_cond2,001,1007,
images/electrictoothbrush01a.jpg,banjo,x,sounds/greatgatsby_chinese.wav,,,,,,,,,0,0,0,0,0,172,172,127,531.248986562,9.62195917964e-06,532.385026417,1.13605011918,,,,,z,0,1.11736128514,2018_Nov_13_1539,59.9830123184,chinese_cond2,001,1007,
images/seagull.jpg,seagull,z,sounds/greatgatsby_chinese.wav,,,,,,,,,0,0,0,0,0,173,173,50,533.530191468,9.94268339127e-06,535.369092365,1.83891116024,,,,,z,1,1.81738896447,2018_Nov_13_1539,59.9830123184,chinese_cond2,001,1007,
images/hanger02a.jpg,hanger,z,sounds/greatgatsby_chinese.wav,,,,,,,,,0,0,0,0,0,174,174,88,536.573040533,9.30123496801e-06,537.636440612,1.06341066328,,,,,z,1,1.05045237881,2018_Nov_13_1539,59.9830123184,chinese_cond2,001,1007,
images/hat05.jpg,hat,z,sounds/greatgatsby_chinese.wav,,,,,,,,,0,0,0,0,0,175,175,15,538.776285974,9.62207559496e-06,539.753699583,0.977424193756,,,,,z,1,0.967194070574,2018_Nov_13_1539,59.9830123184,chinese_cond2,001,1007,
images/bottleofredwine02.jpg,pipe,x,sounds/greatgatsby_chinese.wav,,,,,,,,,0,0,0,0,0,176,176,213,540.958486791,9.30135138333e-06,542.237762164,1.27928563626,,,,,x,1,1.26723566966,2018_Nov_13_1539,59.9830123184,chinese_cond2,001,1007,
images/floorlamp.jpg,floor lamp,z,sounds/greatgatsby_chinese.wav,,,,,,,,,0,0,0,0,0,177,177,26,543.352301313,9.62207559496e-06,545.622080401,2.26978967246,,,,,z,1,2.25090807746,2018_Nov_13_1539,59.9830123184,chinese_cond2,001,1007,
images/carrot02.jpg,corkscrew,x,sounds/greatgatsby_chinese.wav,,,,,,,,,0,0,0,0,0,178,178,161,546.799198871,9.30123496801e-06,548.406211201,1.6070225935,,,,,x,1,1.58403753093,2018_Nov_13_1539,59.9830123184,chinese_cond2,001,1007,
images/dragonfly02.jpg,dragon fly,z,sounds/greatgatsby_chinese.wav,,,,,,,,,0,0,0,0,0,179,179,29,549.578614244,9.94268339127e-06,552.040619645,2.4620159847,,,,,x,0,2.45097793324,2018_Nov_13_1539,59.9830123184,chinese_cond2,001,1007,
images/tulip02.jpg,sport shorts,x,sounds/greatgatsby_chinese.wav,,,,,,,,,0,0,0,0,0,180,180,225,553.207163203,9.30123496801e-06,554.94144268,1.73428941914,,,,,z,0,1.71740791982,2018_Nov_13_1539,59.9830123184,chinese_cond2,001,1007,
images/cherry01.jpg,highlighter,x,sounds/greatgatsby_chinese.wav,,,,,,,,,0,0,0,0,0,181,181,187,556.126416881,9.62207559496e-06,557.208777777,1.08237115887,,,,,x,1,1.06722867768,2018_Nov_13_1539,59.9830123184,chinese_cond2,001,1007,
images/chessknight02b (1).jpg,cockroach,x,sounds/greatgatsby_chinese.wav,,,,,,,,,0,0,0,0,0,182,182,155,558.347677615,8.98051075637e-06,559.626143135,1.27847578342,,,,,x,1,1.26728794933,2018_Nov_13_1539,59.9830123184,chinese_cond2,001,1007,
images/parrot01.jpg,chameleon,x,sounds/greatgatsby_chinese.wav,,,,,,,,,0,0,0,0,0,183,183,150,560.855370253,9.94268339127e-06,562.493642897,1.63828354841,,,,,x,1,1.61738453829,2018_Nov_13_1539,59.9830123184,chinese_cond2,001,1007,
,,,sounds/greatgatsby_chinese.wav,,,,,,,,,0,0,0,0,,,,,,,,,,,,,,,,2018_Nov_13_1539,59.9830123184,chinese_cond2,001,1007,
images/paperclip04.jpg,eye drops,x,sounds/animalfarm_english.wav,,,,,,,,,0,1,1,1,0,0,0,174,583.694376992,1.02635240182e-05,586.434076227,2.73971078161,,,,573.496991357,x,1,2.71783962741,2018_Nov_13_1539,59.9830123184,chinese_cond2,001,1007,
images/bus.jpg,microphone,x,sounds/animalfarm_english.wav,,,,,,,,,0,1,1,1,0,1,1,203,587.551727456,9.62207559496e-06,589.434811991,1.88309447758,,,,,x,1,1.86745967017,2018_Nov_13_1539,59.9830123184,chinese_cond2,001,1007,
images/camera01a.jpg,bull,x,sounds/animalfarm_english.wav,,,,,,,,,0,1,1,1,0,2,2,138,590.545010971,9.30123496801e-06,591.701954327,1.1569539404,,,,,x,1,1.13373313867,2018_Nov_13_1539,59.9830123184,chinese_cond2,001,1007,
images/pictureframe04.jpg,picture frame,z,sounds/animalfarm_english.wav,,,,,,,,,0,1,1,1,0,3,3,41,592.824135919,9.62207559496e-06,593.786064183,0.961938527529,,,,,z,1,0.950526179746,2018_Nov_13_1539,59.9830123184,chinese_cond2,001,1007,
images/fireextinguisher02.jpg,fire extinguisher,z,sounds/animalfarm_english.wav,,,,,,,,,0,1,1,1,0,4,4,175,594.895638374,9.62195917964e-06,595.936692934,1.04106450244,,,,,z,1,1.01720993081,2018_Nov_13_1539,59.9830123184,chinese_cond2,001,1007,
images/drink.jpg,drink,z,sounds/animalfarm_english.wav,,,,,,,,,0,1,1,1,0,5,5,117,597.036232007,9.62207559496e-06,598.770850179,1.73462875548,,,,,z,1,1.71741208935,2018_Nov_13_1539,59.9830123184,chinese_cond2,001,1007,
images/grasshopper.jpg,cauliflower,x,sounds/animalfarm_english.wav,,,,,,,,,0,1,1,1,0,6,6,148,599.864277029,9.62195917964e-06,601.988450699,2.12418393302,,,,,x,1,2.10085761,2018_Nov_13_1539,59.9830123184,chinese_cond2,001,1007,
images/beermug01b.jpg,beer mug,z,sounds/animalfarm_english.wav,,,,,,,,,0,1,1,1,0,7,7,111,603.189681611,9.30135138333e-06,605.389274536,2.1996031882,,,,,z,1,2.18404856417,2018_Nov_13_1539,59.9830123184,chinese_cond2,001,1007,
images/bed.jpg,bed,z,sounds/animalfarm_english.wav,,,,,,,,,0,1,1,1,0,8,8,103,606.508805584,9.94279980659e-06,607.3400124,0.831217720173,,,,,z,1,0.81715418736,2018_Nov_13_1539,59.9830123184,chinese_cond2,001,1007,
images/ladybug03.jpg,giraffe,x,sounds/animalfarm_english.wav,,,,,,,,,0,1,1,1,0,9,9,178,608.525065181,9.94279980659e-06,609.824065999,1.29901076097,,,,,x,1,1.28395648149,2018_Nov_13_1539,59.9830123184,chinese_cond2,001,1007,
images/computermouse02a.jpg,world map,x,sounds/animalfarm_english.wav,,,,,,,,,0,1,1,1,0,10,10,239,610.92576778,9.30123496801e-06,612.691561592,1.76580439543,,,,,z,0,1.75076134165,2018_Nov_13_1539,59.9830123184,chinese_cond2,001,1007,
images/cookingpot.jpg,grasshopper,x,sounds/animalfarm_english.wav,,,,,,,,,0,1,1,1,0,11,11,183,613.805445161,9.30135138333e-06,615.959182463,2.15374692378,,,,,z,0,2.13420718303,2018_Nov_13_1539,59.9830123184,chinese_cond2,001,1007,
images/paintbrush03a.jpg,paint brush,z,sounds/animalfarm_english.wav,,,,,,,,,0,1,1,1,0,12,12,0,617.058566301,9.62207559496e-06,619.293482915,2.23492719827,,,,,z,1,2.21756620193,2018_Nov_13_1539,59.9830123184,chinese_cond2,001,1007,
images/apple06.jpg,apple,z,sounds/animalfarm_english.wav,,,,,,,,,0,1,1,1,0,13,13,13,620.420191664,8.9806271717e-06,621.360754892,0.940573491156,,,,,z,1,0.917178531061,2018_Nov_13_1539,59.9830123184,chinese_cond2,001,1007,
images/lipstick04.jpg,lipstick,z,sounds/animalfarm_english.wav,,,,,,,,,0,1,1,1,0,14,14,56,622.460054377,9.62195917964e-06,624.011514662,1.55147022742,,,,,z,1,1.53402808541,2018_Nov_13_1539,59.9830123184,chinese_cond2,001,1007,
images/lollipop03b.jpg,lollipop,z,sounds/animalfarm_english.wav,,,,,,,,,0,1,1,1,0,15,15,42,625.104780184,9.94268339127e-06,626.29550899,1.19073939067,,,,,z,1,1.16724853113,2018_Nov_13_1539,59.9830123184,chinese_cond2,001,1007,
images/pineapple01a.jpg,pineapple,z,sounds/animalfarm_english.wav,,,,,,,,,0,1,1,1,0,16,16,51,627.408215146,9.30135138333e-06,628.212740442,0.804535880685,,,,,z,1,0.783815839794,2018_Nov_13_1539,59.9830123184,chinese_cond2,001,1007,
images/lemon02.jpg,lemon,z,sounds/animalfarm_english.wav,,,,,,,,,0,1,1,1,0,17,17,14,629.324536355,9.30123496801e-06,630.630103235,1.30557682202,,,,,z,1,1.2839539157,2018_Nov_13_1539,59.9830123184,chinese_cond2,001,1007,
images/worldmap.jpg,scooter,x,sounds/animalfarm_english.wav,,,,,,,,,0,1,1,1,0,18,18,220,631.837965316,9.62195917964e-06,633.530948079,1.69299366779,,,,,x,1,1.68407406262,2018_Nov_13_1539,59.9830123184,chinese_cond2,001,1007,
images/lettuce.jpg,mushroom,x,sounds/animalfarm_english.wav,,,,,,,,,0,1,1,1,0,19,19,205,634.654775998,9.62195917964e-06,635.58154543,0.926780016045,,,,,x,1,0.917179813958,2018_Nov_13_1539,59.9830123184,chinese_cond2,001,1007,
images/birthdaycandle.jpg,birthday candle,z,sounds/animalfarm_english.wav,,,,,,,,,0,1,1,1,0,20,20,55,636.744656496,9.62207559496e-06,638.098946999,1.35430108756,,,,,z,1,1.33396817232,2018_Nov_13_1539,59.9830123184,chinese_cond2,001,1007,
images/weight01.jpg,weight,z,sounds/animalfarm_english.wav,,,,,,,,,0,1,1,1,0,21,21,67,639.204085122,9.30135138333e-06,639.982832727,0.778757548076,,,,,z,1,0.767141213641,2018_Nov_13_1539,59.9830123184,chinese_cond2,001,1007,
images/leek.jpg,donut,x,sounds/animalfarm_english.wav,,,,,,,,,0,1,1,1,0,22,22,169,641.158043152,8.98051075637e-06,642.116601467,0.958568257396,,,,,x,1,0.950350096915,2018_Nov_13_1539,59.9830123184,chinese_cond2,001,1007,
images/baseball01a.jpg,baseball,z,sounds/animalfarm_english.wav,,,,,,,,,0,1,1,1,0,23,23,74,643.322076328,9.30135138333e-06,645.417731316,2.09566557221,,,,,z,1,2.08417817275,2018_Nov_13_1539,59.9830123184,chinese_cond2,001,1007,
images/flipflop01b.jpg,flip flop,z,sounds/animalfarm_english.wav,,,,,,,,,0,1,1,1,0,24,24,27,646.534915235,9.94268339127e-06,647.885122156,1.35021750559,,,,,z,1,1.33397362474,2018_Nov_13_1539,59.9830123184,chinese_cond2,001,1007,
images/cheetah.jpg,cheetah,z,sounds/animalfarm_english.wav,,,,,,,,,0,1,1,1,0,25,25,82,648.98728387,9.30135138333e-06,650.035740964,1.0484676786,,,,,z,1,1.03387974598,2018_Nov_13_1539,59.9830123184,chinese_cond2,001,1007,
images/sunglasses03a.jpg,sun glasses,z,sounds/animalfarm_english.wav,,,,,,,,,0,1,1,1,0,26,26,17,651.143662414,9.30135138333e-06,653.003269239,1.85961676808,,,,,z,1,1.85071929358,2018_Nov_13_1539,59.9830123184,chinese_cond2,001,1007,
images/raisin.jpg,ruler,x,sounds/animalfarm_english.wav,,,,,,,,,0,1,1,1,0,27,27,218,654.182050714,9.62195917964e-06,655.137227533,0.955187403015,,,,,x,1,0.933846421773,2018_Nov_13_1539,59.9830123184,chinese_cond2,001,1007,
images/lightswitch02a.jpg,fork,x,sounds/animalfarm_english.wav,,,,,,,,,0,1,1,1,0,28,28,177,656.248485576,9.30135138333e-06,657.554600589,1.306124956,,,,,x,1,1.28396000958,2018_Nov_13_1539,59.9830123184,chinese_cond2,001,1007,
images/saltshaker03c.jpg,salt shaker,z,sounds/animalfarm_english.wav,,,,,,,,,0,1,1,1,0,29,29,63,658.740991151,9.30123496801e-06,660.072000875,1.33101998782,,,,,z,1,1.31729514967,2018_Nov_13_1539,59.9830123184,chinese_cond2,001,1007,
images/battery03b.jpg,battery,z,sounds/animalfarm_english.wav,,,,,,,,,0,1,1,1,0,30,30,34,661.180823907,9.62195917964e-06,662.089250898,0.908437574399,,,,,z,1,0.900517375558,2018_Nov_13_1539,59.9830123184,chinese_cond2,001,1007,
images/grandpiano.jpg,tulip,x,sounds/animalfarm_english.wav,,,,,,,,,0,1,1,1,0,31,31,236,663.277807695,9.62195917964e-06,664.206528792,0.928731039399,,,,,x,1,0.91718558711,2018_Nov_13_1539,59.9830123184,chinese_cond2,001,1007,
images/redfox.jpg,red fox,z,sounds/animalfarm_english.wav,,,,,,,,,0,1,1,1,0,32,32,1,665.318622025,1.47537793964e-05,666.323819836,1.00520903664,,,,,z,1,0.983875432168,2018_Nov_13_1539,59.9830123184,chinese_cond2,001,1007,
images/peach01.jpg,peach,z,sounds/animalfarm_english.wav,,,,,,,,,0,1,1,1,0,33,33,106,667.45275576,9.30123496801e-06,668.591145311,1.13839949376,,,,,z,1,1.11724453792,2018_Nov_13_1539,59.9830123184,chinese_cond2,001,1007,
images/doorhandle.jpg,doll,x,sounds/animalfarm_english.wav,,,,,,,,,0,1,1,1,0,34,34,168,669.693647323,9.30135138333e-06,671.208592393,1.51495533308,,,,,x,1,1.50070545392,2018_Nov_13_1539,59.9830123184,chinese_cond2,001,1007,
images/snowman.jpg,globe,x,sounds/animalfarm_english.wav,,,,,,,,,0,1,1,1,0,35,35,180,672.319566265,9.62195917964e-06,674.209440733,1.88988569367,,,,,x,1,1.86709884461,2018_Nov_13_1539,59.9830123184,chinese_cond2,001,1007,
images/pouch01b.jpg,pouch,z,sounds/animalfarm_english.wav,,,,,,,,,0,1,1,1,0,36,36,25,675.322213922,9.62207559496e-06,677.110283012,1.78807999485,,,,,z,1,1.76743051538,2018_Nov_13_1539,59.9830123184,chinese_cond2,001,1007,
images/parrot01.jpg,chameleon,x,sounds/animalfarm_english.wav,,,,,,,,,0,1,1,1,0,37,37,150,678.223578676,9.62195917964e-06,681.211316384,2.98774861277,,,,,None,0,,2018_Nov_13_1539,59.9830123184,chinese_cond2,001,1007,
images/flashlight05.jpg,flash light,z,sounds/animalfarm_english.wav,,,,,,,,,0,1,1,1,0,38,38,8,682.314485201,9.62195917964e-06,683.612195387,1.29772044916,,,,,z,1,1.28397861216,2018_Nov_13_1539,59.9830123184,chinese_cond2,001,1007,
images/chessknight02b (1).jpg,cockroach,x,sounds/animalfarm_english.wav,,,,,,,,,0,1,1,1,0,39,39,155,684.720929576,9.94268339127e-06,686.329613891,1.6086945784,,,,,x,1,1.60070862912,2018_Nov_13_1539,59.9830123184,chinese_cond2,001,1007,
images/ruler02b.jpg,watermelon,x,sounds/animalfarm_english.wav,,,,,,,,,0,1,1,1,0,40,40,238,687.432439203,9.94279980659e-06,688.863695539,1.43126692076,,,,,x,1,1.41732815327,2018_Nov_13_1539,59.9830123184,chinese_cond2,001,1007,
images/knife04.jpg,tooth brush,x,sounds/animalfarm_english.wav,,,,,,,,,0,1,1,1,0,41,41,233,689.960766887,9.30123496801e-06,692.081293814,2.12053719047,,,,,z,0,2.10085440252,2018_Nov_13_1539,59.9830123184,chinese_cond2,001,1007,
images/ant.jpg,ant,z,sounds/animalfarm_english.wav,,,,,,,,,0,1,1,1,0,42,42,98,693.175917002,9.94268339127e-06,694.115219746,0.939313328359,,,,,z,1,0.917183662648,2018_Nov_13_1539,59.9830123184,chinese_cond2,001,1007,
images/chameleon.jpg,50 dollar bill,x,sounds/animalfarm_english.wav,,,,,,,,,0,1,1,1,0,43,43,120,695.225744591,9.30135138333e-06,696.665959983,1.44022533472,,,,,x,1,1.41732173867,2018_Nov_13_1539,59.9830123184,chinese_cond2,001,1007,
images/djmixer01.jpg,light bulb,x,sounds/animalfarm_english.wav,,,,,,,,,0,1,1,1,0,44,44,196,697.837907905,9.62207559496e-06,699.049985391,1.21208774892,,,,,x,1,1.200598425,2018_Nov_13_1539,59.9830123184,chinese_cond2,001,1007,
images/mailbox01.jpg,mail box,z,sounds/animalfarm_english.wav,,,,,,,,,0,1,1,1,0,45,45,73,700.198303575,9.62207559496e-06,701.700754783,1.50246147113,,,,,z,1,1.48400869698,2018_Nov_13_1539,59.9830123184,chinese_cond2,001,1007,
images/gorilla.jpg,gorilla,z,sounds/animalfarm_english.wav,,,,,,,,,0,1,1,1,0,46,46,80,702.811683753,9.30123496801e-06,703.684663892,0.872991044074,,,,,z,1,0.850489327451,2018_Nov_13_1539,59.9830123184,chinese_cond2,001,1007,
images/axe01.jpg,axe,z,sounds/animalfarm_english.wav,,,,,,,,,0,1,1,1,0,47,47,104,704.853060008,9.62207559496e-06,706.418792624,1.56574319943,,,,,x,0,1.55069341022,2018_Nov_13_1539,59.9830123184,chinese_cond2,001,1007,
images/printer03a.jpg,printer,z,sounds/animalfarm_english.wav,,,,,,,,,0,1,1,1,0,48,48,72,707.60730516,9.62207559496e-06,709.586378887,1.97908463236,,,,,z,1,1.96748690051,2018_Nov_13_1539,59.9830123184,chinese_cond2,001,1007,
images/mattress.jpg,cat,x,sounds/animalfarm_english.wav,,,,,,,,,0,1,1,1,0,49,49,147,710.719132505,1.09049724415e-05,711.77035689,1.05123528989,,,,,z,0,1.03388583998,2018_Nov_13_1539,59.9830123184,chinese_cond2,001,1007,
images/bat.jpg,hand,x,sounds/animalfarm_english.wav,,,,,,,,,0,1,1,1,0,50,50,185,712.868804507,9.62195917964e-06,715.488096448,2.61930220528,,,,,x,1,2.60099921387,2018_Nov_13_1539,59.9830123184,chinese_cond2,001,1007,
images/carrot02.jpg,corkscrew,x,sounds/animalfarm_english.wav,,,,,,,,,0,1,1,1,0,51,51,161,716.590346043,8.9806271717e-06,717.538693158,0.948357378249,,,,,x,1,0.933849629131,2018_Nov_13_1539,59.9830123184,chinese_cond2,001,1007,
images/candy.jpg,candy,z,sounds/animalfarm_english.wav,,,,,,,,,0,1,1,1,0,52,52,31,718.641351367,9.30135138333e-06,719.555956972,0.914615868474,,,,,z,1,0.900523469551,2018_Nov_13_1539,59.9830123184,chinese_cond2,001,1007,
images/hairpin.jpg,hair pin,z,sounds/animalfarm_english.wav,,,,,,,,,0,1,1,1,0,53,53,28,720.646538273,9.30135138333e-06,721.43981672,0.793289031484,,,,,z,1,0.783808783628,2018_Nov_13_1539,59.9830123184,chinese_cond2,001,1007,
images/scissors04a.jpg,leek,x,sounds/animalfarm_english.wav,,,,,,,,,0,1,1,1,0,54,54,194,722.53418749,9.62207559496e-06,723.273682097,0.739505511941,,,,,x,1,0.717117014225,2018_Nov_13_1539,59.9830123184,chinese_cond2,001,1007,
images/floorlamp.jpg,floor lamp,z,sounds/animalfarm_english.wav,,,,,,,,,0,1,1,1,0,55,55,26,724.36683889,1.02634076029e-05,725.641089327,1.27426037996,,,,,z,1,1.25065662211,2018_Nov_13_1539,59.9830123184,chinese_cond2,001,1007,
images/tank.jpg,wallet,x,sounds/animalfarm_english.wav,,,,,,,,,0,1,1,1,0,56,56,237,726.745442293,9.62207559496e-06,727.50824847,0.762817402137,,,,,x,1,0.750460493495,2018_Nov_13_1539,59.9830123184,chinese_cond2,001,1007,
images/notebook02b.jpg,notebook,z,sounds/animalfarm_english.wav,,,,,,,,,0,1,1,1,0,57,57,7,728.616766484,9.62195917964e-06,729.508828036,0.892072135583,,,,,z,1,0.883834089502,2018_Nov_13_1539,59.9830123184,chinese_cond2,001,1007,
images/bull.jpg,button,x,sounds/animalfarm_english.wav,,,,,,,,,0,1,1,1,0,58,58,141,730.614385999,8.98051075637e-06,731.759495884,1.14512046915,,,,,z,0,1.13392365444,2018_Nov_13_1539,59.9830123184,chinese_cond2,001,1007,
images/tulip02.jpg,sport shorts,x,sounds/animalfarm_english.wav,,,,,,,,,0,1,1,1,0,59,59,225,732.852724521,9.62195917964e-06,734.8604,2.00768574246,,,,,z,0,1.98416601692,2018_Nov_13_1539,59.9830123184,chinese_cond2,001,1007,
images/puma.jpg,puma,z,sounds/animalfarm_english.wav,,,,,,,,,0,1,1,1,0,60,60,4,735.959410504,9.30123496801e-06,737.627862589,1.66846234794,,,,,x,0,1.650721282,2018_Nov_13_1539,59.9830123184,chinese_cond2,001,1007,
images/acousticguitar02.jpg,acoustic guitar,z,sounds/animalfarm_english.wav,,,,,,,,,0,1,1,1,0,61,61,97,738.742007877,9.30135138333e-06,739.86185132,1.11985338619,,,,,z,1,1.10057055333,2018_Nov_13_1539,59.9830123184,chinese_cond2,001,1007,
images/bandaid01.jpg,door handle,x,sounds/animalfarm_english.wav,,,,,,,,,0,1,1,1,0,62,62,170,741.00642141,9.94268339127e-06,742.412581935,1.4061707888,,,,,x,1,1.38397858012,2018_Nov_13_1539,59.9830123184,chinese_cond2,001,1007,
images/plant01.jpg,plant,z,sounds/animalfarm_english.wav,,,,,,,,,0,1,1,1,0,63,63,47,743.524689602,9.62207559496e-06,744.41316952,0.888491464197,,,,,z,1,0.86717100977,2018_Nov_13_1539,59.9830123184,chinese_cond2,001,1007,
images/flamingo.jpg,flamingo,z,sounds/animalfarm_english.wav,,,,,,,,,0,1,1,1,0,64,64,52,745.585200191,9.62195917964e-06,747.030597998,1.44540935406,,,,,x,0,1.43400277942,2018_Nov_13_1539,59.9830123184,chinese_cond2,001,1007,
images/rubberglove02a.jpg,lady bug,x,sounds/animalfarm_english.wav,,,,,,,,,0,1,1,1,0,65,65,192,748.16519808,9.62195917964e-06,750.6649795,2.49979200412,,,,,x,1,2.48428516951,2018_Nov_13_1539,59.9830123184,chinese_cond2,001,1007,
images/scooter.jpg,pen,x,sounds/animalfarm_english.wav,,,,,,,,,0,1,1,1,0,66,66,212,751.758217439,9.62207559496e-06,753.115697639,1.35749078449,,,,,x,1,1.33396785159,2018_Nov_13_1539,59.9830123184,chinese_cond2,001,1007,
images/nailpolish02b.jpg,nail polish,z,sounds/animalfarm_english.wav,,,,,,,,,0,1,1,1,0,67,67,94,754.224066513,1.05842482299e-05,755.383022473,1.15896654455,,,,,z,1,1.15058962093,2018_Nov_13_1539,59.9830123184,chinese_cond2,001,1007,
images/shotglass.jpg,shot glass,z,sounds/animalfarm_english.wav,,,,,,,,,0,1,1,1,0,68,68,86,756.523176701,8.98051075637e-06,758.117155695,1.59398957808,,,,,z,1,1.58405132242,2018_Nov_13_1539,59.9830123184,chinese_cond2,001,1007,
images/banana04a.jpg,banana,z,sounds/animalfarm_english.wav,,,,,,,,,0,1,1,1,0,69,69,118,759.310620039,9.30123496801e-06,760.484504551,1.17389445484,,,,,z,1,1.15057967813,2018_Nov_13_1539,59.9830123184,chinese_cond2,001,1007,
images/honeycomb.jpg,honey comb,z,sounds/animalfarm_english.wav,,,,,,,,,0,1,1,1,0,70,70,59,761.598371442,9.30123496801e-06,763.385355169,1.78699431114,,,,,z,1,1.76743628865,2018_Nov_13_1539,59.9830123184,chinese_cond2,001,1007,
images/bowlingball.jpg,bowling ball,z,sounds/animalfarm_english.wav,,,,,,,,,0,1,1,1,0,71,71,20,764.517331649,9.62207559496e-06,766.836367742,2.31904667674,,,,,z,1,2.30093452183,2018_Nov_13_1539,59.9830123184,chinese_cond2,001,1007,
images/nametag01a.jpg,name tag,z,sounds/animalfarm_english.wav,,,,,,,,,0,1,1,1,0,72,72,108,767.957074921,9.62207559496e-06,768.803585226,0.84652024752,,,,,z,1,0.833807003568,2018_Nov_13_1539,59.9830123184,chinese_cond2,001,1007,
images/cupcake.jpg,scissors,x,sounds/animalfarm_english.wav,,,,,,,,,0,1,1,1,0,73,73,219,769.92322789,8.9806271717e-06,770.887557488,0.964339861064,,,,,x,1,0.950556007912,2018_Nov_13_1539,59.9830123184,chinese_cond2,001,1007,
images/cloud.jpg,ceiling fan,x,sounds/animalfarm_english.wav,,,,,,,,,0,1,1,1,0,74,74,149,771.993508991,9.94279980659e-06,774.922067475,2.92856874818,,,,,x,1,2.91779882996,2018_Nov_13_1539,59.9830123184,chinese_cond2,001,1007,
images/thumbtack02a.jpg,thumb tack,z,sounds/animalfarm_english.wav,,,,,,,,,0,1,1,1,0,75,75,60,776.03340923,9.62207559496e-06,777.622817126,1.58941816015,,,,,x,0,1.5673657913,2018_Nov_13_1539,59.9830123184,chinese_cond2,001,1007,
images/bottleofredwine02.jpg,pipe,x,sounds/animalfarm_english.wav,,,,,,,,,0,1,1,1,0,76,76,213,778.721566553,9.30123496801e-06,780.373616956,1.65206066612,,,,,x,1,1.63403863751,2018_Nov_13_1539,59.9830123184,chinese_cond2,001,1007,
images/clothespin02a.jpg,clothes pin,z,sounds/animalfarm_english.wav,,,,,,,,,0,1,1,1,0,77,77,79,781.557781947,9.62195917964e-06,782.907677115,1.34990607307,,,,,x,0,1.33395887108,2018_Nov_13_1539,59.9830123184,chinese_cond2,001,1007,
images/nailclipper03a.jpg,aquarium,x,sounds/animalfarm_english.wav,,,,,,,,,0,1,1,1,0,78,78,123,784.00716006,9.62207559496e-06,785.091674362,1.08452456514,,,,,x,1,1.06724375219,2018_Nov_13_1539,59.9830123184,chinese_cond2,001,1007,
images/arrow02.jpg,hammer,x,sounds/animalfarm_english.wav,,,,,,,,,0,1,1,1,0,79,79,184,786.189409629,8.98051075637e-06,787.492350661,1.30295129563,,,,,x,1,1.2839539157,2018_Nov_13_1539,59.9830123184,chinese_cond2,001,1007,
images/flower01.jpg,bus,x,sounds/animalfarm_english.wav,,,,,,,,,0,1,1,1,0,80,80,140,788.69182748,9.30123496801e-06,789.642976525,0.951158987358,,,,,x,1,0.933826215565,2018_Nov_13_1539,59.9830123184,chinese_cond2,001,1007,
images/atm.jpg,atm,z,sounds/animalfarm_english.wav,,,,,,,,,0,1,1,1,0,81,81,96,790.780982157,9.62207559496e-06,791.910301037,1.1293294644,,,,,z,1,1.1172365197,2018_Nov_13_1539,59.9830123184,chinese_cond2,001,1007,
images/umbrella01.jpg,umbrella,z,sounds/animalfarm_english.wav,,,,,,,,,0,1,1,1,0,82,82,53,793.023389187,9.94279980659e-06,794.711125708,1.68774742598,,,,,z,1,1.66741066205,2018_Nov_13_1539,59.9830123184,chinese_cond2,001,1007,
images/50dollarbill.jpg,cherry,x,sounds/animalfarm_english.wav,,,,,,,,,0,1,1,1,0,83,83,151,795.832194675,9.30123496801e-06,797.378561387,1.54637697572,,,,,x,1,1.53403097193,2018_Nov_13_1539,59.9830123184,chinese_cond2,001,1007,
images/doll.jpg,carrot,x,sounds/animalfarm_english.wav,,,,,,,,,0,1,1,1,0,84,84,146,798.490073772,9.94279980659e-06,801.479592514,2.98952964717,,,,,None,0,,2018_Nov_13_1539,59.9830123184,chinese_cond2,001,1007,
images/calculator02b.jpg,dice,x,sounds/animalfarm_english.wav,,,,,,,,,0,1,1,1,0,85,85,165,802.581779566,9.62207559496e-06,803.880460933,1.29869163095,,,,,x,1,1.28396738647,2018_Nov_13_1539,59.9830123184,chinese_cond2,001,1007,
images/lighter02b.jpg,stapler,x,sounds/animalfarm_english.wav,,,,,,,,,0,1,1,1,0,86,86,227,804.982344891,8.9806271717e-06,806.697957343,1.71562207432,,,,,z,0,1.70076568762,2018_Nov_13_1539,59.9830123184,chinese_cond2,001,1007,
images/lion.jpg,lion,z,sounds/animalfarm_english.wav,,,,,,,,,0,1,1,1,0,87,87,44,807.887639275,9.62195917964e-06,808.981934993,1.09430630261,,,,,z,1,1.08389688923,2018_Nov_13_1539,59.9830123184,chinese_cond2,001,1007,
images/screw03c.jpg,screw,z,sounds/animalfarm_english.wav,,,,,,,,,0,1,1,1,0,88,88,84,810.075841341,9.62195917964e-06,810.915828242,0.839997485396,,,,,z,1,0.817152583622,2018_Nov_13_1539,59.9830123184,chinese_cond2,001,1007,
images/cola.jpg,comb,x,sounds/animalfarm_english.wav,,,,,,,,,0,1,1,1,0,89,89,157,812.036671733,9.30135138333e-06,813.633278499,1.59661702893,,,,,x,1,1.58402341872,2018_Nov_13_1539,59.9830123184,chinese_cond2,001,1007,
images/sock03.jpg,sock,z,sounds/animalfarm_english.wav,,,,,,,,,0,1,1,1,0,90,90,90,814.739457723,9.30123496801e-06,816.033987192,1.29454005335,,,,,z,1,1.28395808523,2018_Nov_13_1539,59.9830123184,chinese_cond2,001,1007,
images/ear.jpg,bullet,x,sounds/animalfarm_english.wav,,,,,,,,,0,1,1,1,0,91,91,139,817.138222769,9.94268339127e-06,818.001217826,0.863005640684,,,,,x,1,0.850494138431,2018_Nov_13_1539,59.9830123184,chinese_cond2,001,1007,
images/radish01.jpg,raisin,x,sounds/animalfarm_english.wav,,,,,,,,,0,1,1,1,0,92,92,214,819.200314896,9.62195917964e-06,820.701995381,1.50169042707,,,,,x,1,1.48400933854,2018_Nov_13_1539,59.9830123184,chinese_cond2,001,1007,
images/antelope.jpg,antelope,z,sounds/animalfarm_english.wav,,,,,,,,,0,1,1,1,0,93,93,12,821.831092955,9.62195917964e-06,823.669539693,1.83845732198,,,,,z,1,1.81744894153,2018_Nov_13_1539,59.9830123184,chinese_cond2,001,1007,
images/ostrich.jpg,ostrich,z,sounds/animalfarm_english.wav,,,,,,,,,0,1,1,1,0,94,94,76,824.770841519,9.62207559496e-06,825.553417081,0.782586146728,,,,,z,1,0.767142817378,2018_Nov_13_1539,59.9830123184,chinese_cond2,001,1007,
images/bicycle.jpg,hand bag,x,sounds/animalfarm_english.wav,,,,,,,,,0,1,1,1,0,95,95,186,826.6637992,9.62207559496e-06,827.570667745,0.906879449962,,,,,x,1,0.883841145784,2018_Nov_13_1539,59.9830123184,chinese_cond2,001,1007,
images/dragonfly02.jpg,dragon fly,z,sounds/animalfarm_english.wav,,,,,,,,,0,1,1,1,0,96,96,29,828.668456575,8.9806271717e-06,829.904680499,1.23623418831,,,,,x,0,1.21726567438,2018_Nov_13_1539,59.9830123184,chinese_cond2,001,1007,
images/envelope02a.jpg,grand piano,x,sounds/animalfarm_english.wav,,,,,,,,,0,1,1,1,0,97,97,182,831.027810502,9.62195917964e-06,832.772163262,1.74436398654,,,,,x,1,1.73397189286,2018_Nov_13_1539,59.9830123184,chinese_cond2,001,1007,
images/hat05.jpg,hat,z,sounds/animalfarm_english.wav,,,,,,,,,0,1,1,1,0,98,98,15,833.876002092,1.02634076029e-05,834.822764462,0.946772953495,,,,,z,1,0.933823649655,2018_Nov_13_1539,59.9830123184,chinese_cond2,001,1007,
images/broom02.jpg,broom,z,sounds/animalfarm_english.wav,,,,,,,,,0,1,1,1,0,99,99,116,835.91661436,9.62207559496e-06,836.873378491,0.956776638748,,,,,z,1,0.933858930366,2018_Nov_13_1539,59.9830123184,chinese_cond2,001,1007,
images/graduationcap.jpg,graduation cap,z,sounds/animalfarm_english.wav,,,,,,,,,0,1,1,1,0,100,100,35,837.976208934,9.62207559496e-06,839.207390924,1.23119225388,,,,,z,1,1.21727337199,2018_Nov_13_1539,59.9830123184,chinese_cond2,001,1007,
images/cactus.jpg,cactus,z,sounds/animalfarm_english.wav,,,,,,,,,0,1,1,1,0,101,101,70,840.396697918,1.02635240182e-05,841.424700539,1.028013526,,,,,z,1,1.01721794915,2018_Nov_13_1539,59.9830123184,chinese_cond2,001,1007,
images/table02.jpg,table,z,sounds/animalfarm_english.wav,,,,,,,,,0,1,1,1,0,102,102,49,842.538382367,9.62207559496e-06,843.375261358,0.836889254861,,,,,z,1,0.817152904347,2018_Nov_13_1539,59.9830123184,chinese_cond2,001,1007,
images/lightbulb03b.jpg,treadmill,x,sounds/animalfarm_english.wav,,,,,,,,,0,1,1,1,0,103,103,234,844.478328503,9.30135138333e-06,845.709327675,1.231009115,,,,,x,1,1.21732885891,2018_Nov_13_1539,59.9830123184,chinese_cond2,001,1007,
images/fryingpan01.jpg,frying pan,z,sounds/animalfarm_english.wav,,,,,,,,,0,1,1,1,0,104,104,45,846.809748125,9.30123496801e-06,848.260006011,1.45026782877,,,,,x,0,1.43395563168,2018_Nov_13_1539,59.9830123184,chinese_cond2,001,1007,
images/coffeepot03b.jpg,coffee pot,z,sounds/animalfarm_english.wav,,,,,,,,,0,1,1,1,0,105,105,107,849.381741142,9.62195917964e-06,850.377294168,0.995563610923,,,,,z,1,0.983878318802,2018_Nov_13_1539,59.9830123184,chinese_cond2,001,1007,
images/parkbench03.jpg,park bench,z,sounds/animalfarm_english.wav,,,,,,,,,0,1,1,1,0,106,106,71,851.483267802,8.98051075637e-06,852.394560548,0.91130365117,,,,,z,1,0.90053084644,2018_Nov_13_1539,59.9830123184,chinese_cond2,001,1007,
images/teapot.jpg,light switch,x,sounds/animalfarm_english.wav,,,,,,,,,0,1,1,1,0,107,107,197,853.587324731,9.30123496801e-06,854.778578258,1.19126379036,,,,,x,1,1.16725398356,2018_Nov_13_1539,59.9830123184,chinese_cond2,001,1007,
images/watermelon01.jpg,orange,x,sounds/animalfarm_english.wav,,,,,,,,,0,1,1,1,0,108,108,207,855.909874782,9.62207559496e-06,856.77914756,0.869282720727,,,,,x,1,0.850487723714,2018_Nov_13_1539,59.9830123184,chinese_cond2,001,1007,
images/diploma01.jpg,glasses,x,sounds/animalfarm_english.wav,,,,,,,,,0,1,1,1,0,109,109,179,857.910874189,9.30123496801e-06,858.89625739,0.985393464915,,,,,x,1,0.967018308467,2018_Nov_13_1539,59.9830123184,chinese_cond2,001,1007,
images/volleyball.jpg,volley ball,z,sounds/animalfarm_english.wav,,,,,,,,,0,1,1,1,0,110,110,2,860.029161753,9.30123496801e-06,861.380493487,1.35134199797,,,,,z,1,1.33397490776,2018_Nov_13_1539,59.9830123184,chinese_cond2,001,1007,
images/orange.jpg,bat,x,sounds/animalfarm_english.wav,,,,,,,,,0,1,1,1,0,111,111,128,862.505683562,9.62207559496e-06,864.281322937,1.77564995887,,,,,x,1,1.76742281788,2018_Nov_13_1539,59.9830123184,chinese_cond2,001,1007,
images/kiwi03.jpg,backpack,x,sounds/animalfarm_english.wav,,,,,,,,,0,1,1,1,0,112,112,125,865.410994945,9.62207559496e-06,866.348596517,0.937612156617,,,,,x,1,0.917176285759,2018_Nov_13_1539,59.9830123184,chinese_cond2,001,1007,
images/computerkeyboard01a.jpg,computer keyboard,z,sounds/animalfarm_english.wav,,,,,,,,,0,1,1,1,0,113,113,61,867.466165638,9.94268339127e-06,870.466302591,3.00014753744,,,,,None,0,,2018_Nov_13_1539,59.9830123184,chinese_cond2,001,1007,
images/ceilingfan02.jpg,paper clip,x,sounds/animalfarm_english.wav,,,,,,,,,0,1,1,1,0,114,114,208,871.563629243,9.30135138333e-06,874.567679469,3.00406080985,,,,,None,0,,2018_Nov_13_1539,59.9830123184,chinese_cond2,001,1007,
images/toucan.jpg,toucan,z,sounds/animalfarm_english.wav,,,,,,,,,0,1,1,1,0,115,115,81,875.669216714,9.30135138333e-06,876.801630354,1.13242358284,,,,,x,0,1.1172317086,2018_Nov_13_1539,59.9830123184,chinese_cond2,001,1007,
images/tissuebox03.jpg,tissue box,z,sounds/animalfarm_english.wav,,,,,,,,,0,1,1,1,0,116,116,58,877.927840362,9.62195917964e-06,879.55244622,1.62461676321,,,,,z,1,1.60071921337,2018_Nov_13_1539,59.9830123184,chinese_cond2,001,1007,
images/icecube02 (2).jpg,aloe,x,sounds/animalfarm_english.wav,,,,,,,,,0,1,1,1,0,117,117,122,880.731630537,8.9806271717e-06,881.78640801,1.05478773685,,,,,x,1,1.0338710862,2018_Nov_13_1539,59.9830123184,chinese_cond2,001,1007,
images/parkfountain.jpg,park fountain,z,sounds/animalfarm_english.wav,,,,,,,,,0,1,1,1,0,118,118,93,882.906156837,9.30123496801e-06,883.937059853,1.0309129589,,,,,z,1,1.01722692978,2018_Nov_13_1539,59.9830123184,chinese_cond2,001,1007,
images/gluestick.jpg,squirrel,x,sounds/animalfarm_english.wav,,,,,,,,,0,1,1,1,0,119,119,226,885.044981303,9.30123496801e-06,887.021268816,1.97629745619,,,,,x,1,1.96748882474,2018_Nov_13_1539,59.9830123184,chinese_cond2,001,1007,
images/panda.jpg,panda,z,sounds/animalfarm_english.wav,,,,,,,,,0,1,1,1,0,120,120,83,888.130946604,9.30123496801e-06,889.121885555,0.990949214669,,,,,z,1,0.967189900926,2018_Nov_13_1539,59.9830123184,chinese_cond2,001,1007,
images/toothbrush03a.jpg,parrot,x,sounds/animalfarm_english.wav,,,,,,,,,0,1,1,1,0,121,121,210,890.214624432,9.30123496801e-06,893.206240131,2.99162628362,,,,,None,0,,2018_Nov_13_1539,59.9830123184,chinese_cond2,001,1007,
images/licenseplate.jpg,license plate,z,sounds/animalfarm_english.wav,,,,,,,,,0,1,1,1,0,122,122,40,894.324765359,9.30135138333e-06,895.340361037,1.01560626214,,,,,z,1,1.00054203998,2018_Nov_13_1539,59.9830123184,chinese_cond2,001,1007,
images/triangleruler02.jpg,bottle of red wine,x,sounds/animalfarm_english.wav,,,,,,,,,0,1,1,1,0,123,123,134,896.451586365,1.02634076029e-05,898.624651082,2.17307498015,,,,,x,1,2.15087924339,2018_Nov_13_1539,59.9830123184,chinese_cond2,001,1007,
images/mitten01.jpg,mitten,z,sounds/animalfarm_english.wav,,,,,,,,,0,1,1,1,0,124,124,102,899.821632592,9.62195917964e-06,901.825572806,2.00395047734,,,,,x,0,1.98415222531,2018_Nov_13_1539,59.9830123184,chinese_cond2,001,1007,
images/electrictoothbrush01a.jpg,banjo,x,sounds/animalfarm_english.wav,,,,,,,,,0,1,1,1,0,125,125,127,902.920917966,8.98051075637e-06,904.593041489,1.67213346635,,,,,x,1,1.65072769672,2018_Nov_13_1539,59.9830123184,chinese_cond2,001,1007,
images/cockroach02.jpg,belt,x,sounds/animalfarm_english.wav,,,,,,,,,0,1,1,1,0,126,126,129,905.692242509,9.62195917964e-06,907.043765081,1.35153315531,,,,,x,1,1.33397362486,2018_Nov_13_1539,59.9830123184,chinese_cond2,001,1007,
images/swallow.jpg,mattress,x,sounds/animalfarm_english.wav,,,,,,,,,0,1,1,1,0,127,127,202,908.226800126,5.86942769587e-05,909.294401817,1.06762382167,,,,,x,1,1.05053673184,2018_Nov_13_1539,59.9830123184,chinese_cond2,001,1007,
images/screwdriver02b.jpg,cola,x,sounds/animalfarm_english.wav,,,,,,,,,0,1,1,1,0,128,128,158,910.388460193,9.30123496801e-06,911.39502465,1.00657504157,,,,,x,1,0.983865489368,2018_Nov_13_1539,59.9830123184,chinese_cond2,001,1007,
images/cocktailshrimp01.jpg,cocktail shrimp,z,sounds/animalfarm_english.wav,,,,,,,,,0,1,1,1,0,129,129,30,912.510584053,8.9806271717e-06,914.078965929,1.56839213939,,,,,z,1,1.55052951525,2018_Nov_13_1539,59.9830123184,chinese_cond2,001,1007,
images/hammer02a.jpg,flower,x,sounds/animalfarm_english.wav,,,,,,,,,0,1,1,1,0,130,130,176,915.241381323,9.30123496801e-06,916.979983328,1.73861194775,,,,,x,1,1.71741208935,2018_Nov_13_1539,59.9830123184,chinese_cond2,001,1007,
images/crocodile.jpg,triangle ruler,x,sounds/animalfarm_english.wav,,,,,,,,,0,1,1,1,0,131,131,235,918.157492452,9.62207559496e-06,919.447368716,1.28988652758,,,,,x,1,1.26729083597,2018_Nov_13_1539,59.9830123184,chinese_cond2,001,1007,
images/cauliflower01.jpg,glue stick,x,sounds/animalfarm_english.wav,,,,,,,,,0,1,1,1,0,132,132,181,920.596923971,9.30135138333e-06,923.598420194,3.00150680717,,,,,None,0,,2018_Nov_13_1539,59.9830123184,chinese_cond2,001,1007,
images/bracelet02a.jpg,chess knight,x,sounds/animalfarm_english.wav,,,,,,,,,0,1,1,1,0,133,133,152,924.708117546,9.94279980659e-06,926.782836961,2.07472967764,,,,,x,1,2.05085489969,2018_Nov_13_1539,59.9830123184,chinese_cond2,001,1007,
images/skateboard.jpg,key,x,sounds/animalfarm_english.wav,,,,,,,,,0,1,1,1,0,134,134,189,927.874079615,9.30135138333e-06,930.300517247,2.42644821713,,,,,x,1,2.41762675636,2018_Nov_13_1539,59.9830123184,chinese_cond2,001,1007,
images/pipe.jpg,icecube,x,sounds/animalfarm_english.wav,,,,,,,,,0,1,1,1,0,135,135,188,931.408343118,9.30123496801e-06,934.40154645,2.99321391562,,,,,None,0,,2018_Nov_13_1539,59.9830123184,chinese_cond2,001,1007,
images/marker01a.jpg,marker,z,sounds/animalfarm_english.wav,,,,,,,,,0,1,1,1,0,136,136,95,935.500265086,8.98051075637e-06,936.519007162,1.01875266014,,,,,x,0,1.00055711449,2018_Nov_13_1539,59.9830123184,chinese_cond2,001,1007,
images/8ball.jpg,nail clipper,x,sounds/animalfarm_english.wav,,,,,,,,,0,1,1,1,0,137,137,206,937.635554104,1.53952278197e-05,939.036554665,1.40101082448,,,,,x,1,1.38414375798,2018_Nov_13_1539,59.9830123184,chinese_cond2,001,1007,
images/squirrel.jpg,binder,x,sounds/animalfarm_english.wav,,,,,,,,,0,1,1,1,0,138,138,132,940.217606294,9.30135138333e-06,943.220772898,3.00317750918,,,,,None,0,,2018_Nov_13_1539,59.9830123184,chinese_cond2,001,1007,
images/cherry01.jpg,highlighter,x,sounds/animalfarm_english.wav,,,,,,,,,0,1,1,1,0,139,139,187,944.3304308,9.30135138333e-06,946.221807264,1.89138672769,,,,,x,1,1.86745165184,2018_Nov_13_1539,59.9830123184,chinese_cond2,001,1007,
images/coin01b.jpg,arrow,x,sounds/animalfarm_english.wav,,,,,,,,,0,1,1,1,0,140,140,124,947.32747139,9.94279980659e-06,948.606165914,1.27870607038,,,,,x,1,1.26759008039,2018_Nov_13_1539,59.9830123184,chinese_cond2,001,1007,
images/comb02a.jpg,diploma,x,sounds/animalfarm_english.wav,,,,,,,,,0,1,1,1,0,141,141,166,949.710765203,9.30123496801e-06,950.623089108,0.912334489287,,,,,x,1,0.90051577182,2018_Nov_13_1539,59.9830123184,chinese_cond2,001,1007,
images/candle08a.jpg,screw driver,x,sounds/animalfarm_english.wav,,,,,,,,,0,1,1,1,0,142,142,221,951.737522736,9.94279980659e-06,952.690354671,0.952842839528,,,,,x,1,0.933831026545,2018_Nov_13_1539,59.9830123184,chinese_cond2,001,1007,
images/elbow.jpg,elbow,z,sounds/animalfarm_english.wav,,,,,,,,,0,1,1,1,0,143,143,105,953.802284651,1.02635240182e-05,956.791384835,2.98911076889,,,,,None,0,,2018_Nov_13_1539,59.9830123184,chinese_cond2,001,1007,
images/razor04a.jpg,razor,z,sounds/animalfarm_english.wav,,,,,,,,,0,1,1,1,0,144,144,36,957.96713698,9.94268339127e-06,959.975813469,2.00868675252,,,,,x,0,1.98416569619,2018_Nov_13_1539,59.9830123184,chinese_cond2,001,1007,
images/bench02.jpg,electric toothbrush,x,sounds/animalfarm_english.wav,,,,,,,,,0,1,1,1,0,145,145,172,961.085211256,9.62207559496e-06,963.043373144,1.95817311353,,,,,x,1,1.93415560911,2018_Nov_13_1539,59.9830123184,chinese_cond2,001,1007,
images/parkingmeter.jpg,ear,x,sounds/animalfarm_english.wav,,,,,,,,,0,1,1,1,0,146,146,171,964.229111013,9.62195917964e-06,967.227752705,2.99865420128,,,,,None,0,,2018_Nov_13_1539,59.9830123184,chinese_cond2,001,1007,
images/gps.jpg,gps,z,sounds/animalfarm_english.wav,,,,,,,,,0,1,1,1,0,147,147,21,968.345766684,9.94279980659e-06,970.178769928,1.83301447064,,,,,z,1,1.81744573428,2018_Nov_13_1539,59.9830123184,chinese_cond2,001,1007,
images/tape01a.jpg,tie,x,sounds/animalfarm_english.wav,,,,,,,,,0,1,1,1,0,148,148,232,971.305042159,9.62207559496e-06,972.21270035,0.907668134198,,,,,z,0,0.883839221206,2018_Nov_13_1539,59.9830123184,chinese_cond2,001,1007,
images/hairband.jpg,hairband,z,sounds/animalfarm_english.wav,,,,,,,,,0,1,1,1,0,149,149,66,973.322739926,9.30123496801e-06,974.496690509,1.17396052601,,,,,z,1,1.15057807439,2018_Nov_13_1539,59.9830123184,chinese_cond2,001,1007,
images/bowtie.jpg,bowtie,z,sounds/animalfarm_english.wav,,,,,,,,,0,1,1,1,0,150,150,89,975.607224656,1.02635240182e-05,976.513941494,0.906727422145,,,,,z,1,0.883838900481,2018_Nov_13_1539,59.9830123184,chinese_cond2,001,1007,
images/dice05a.jpg,band aid,x,sounds/animalfarm_english.wav,,,,,,,,,0,1,1,1,0,151,151,126,977.626926688,9.94268339127e-06,978.931317116,1.3044006913,,,,,x,1,1.28395487799,2018_Nov_13_1539,59.9830123184,chinese_cond2,001,1007,
images/cigar.jpg,crocodile,x,sounds/animalfarm_english.wav,,,,,,,,,0,1,1,1,0,152,152,162,980.091029366,9.30135138333e-06,981.231980938,1.1409615149,,,,,x,1,1.11723619886,2018_Nov_13_1539,59.9830123184,chinese_cond2,001,1007,
images/treadmill.jpg,lily,x,sounds/animalfarm_english.wav,,,,,,,,,0,1,1,1,0,153,153,199,982.338097619,9.30135138333e-06,983.56601454,1.22792686371,,,,,x,1,1.21729518182,2018_Nov_13_1539,59.9830123184,chinese_cond2,001,1007,
images/egg01b (1).jpg,egg,z,sounds/animalfarm_english.wav,,,,,,,,,0,1,1,1,0,154,154,19,984.679294809,9.62207559496e-06,985.766629002,1.08734509768,,,,,z,1,1.06722258381,2018_Nov_13_1539,59.9830123184,chinese_cond2,001,1007,
images/sportshorts02.jpg,tape,x,sounds/animalfarm_english.wav,,,,,,,,,0,1,1,1,0,155,155,230,986.875354531,8.9806271717e-06,989.86766526,2.99232099298,,,,,None,0,,2018_Nov_13_1539,59.9830123184,chinese_cond2,001,1007,
images/desktopcomputer.jpg,desktop computer,z,sounds/animalfarm_english.wav,,,,,,,,,0,1,1,1,0,156,156,16,991.081310813,9.94279980659e-06,993.335508977,2.2542084275,,,,,z,1,2.23424467689,2018_Nov_13_1539,59.9830123184,chinese_cond2,001,1007,
images/bowl02b (1).jpg,bowl,z,sounds/animalfarm_english.wav,,,,,,,,,0,1,1,1,0,157,157,24,994.45337189,9.62207559496e-06,995.952921419,1.4995594722,,,,,z,1,1.48400837625,2018_Nov_13_1539,59.9830123184,chinese_cond2,001,1007,
images/tie01.jpg,bench,x,sounds/animalfarm_english.wav,,,,,,,,,0,1,1,1,0,158,158,130,997.051622736,1.02635240182e-05,997.986843502,0.935231670737,,,,,x,1,0.917177889496,2018_Nov_13_1539,59.9830123184,chinese_cond2,001,1007,
images/safe.jpg,safe,z,sounds/animalfarm_english.wav,,,,,,,,,0,1,1,1,0,159,159,78,999.096729125,9.62207559496e-06,1002.08787784,2.99115961604,,,,,None,0,,2018_Nov_13_1539,59.9830123184,chinese_cond2,001,1007,
images/electricguitar02.jpg,electric guitar,z,sounds/animalfarm_english.wav,,,,,,,,,0,1,1,1,0,160,160,100,1003.19030063,9.62195917964e-06,1006.00584633,2.81555629184,,,,,z,1,2.80106073059,2018_Nov_13_1539,59.9830123184,chinese_cond2,001,1007,
images/microphone01.jpg,diaper,x,sounds/animalfarm_english.wav,,,,,,,,,0,1,1,1,0,161,161,164,1007.18025557,9.62195917964e-06,1010.17356378,2.99331879546,,,,,None,0,,2018_Nov_13_1539,59.9830123184,chinese_cond2,001,1007,
images/basketball01.jpg,basket ball,z,sounds/animalfarm_english.wav,,,,,,,,,0,1,1,1,0,162,162,33,1011.31357753,9.30135138333e-06,1014.30810132,2.9945340557,,,,,None,0,,2018_Nov_13_1539,59.9830123184,chinese_cond2,001,1007,
images/ashtray02b.jpg,ashtray,z,sounds/animalfarm_english.wav,,,,,,,,,0,1,1,1,0,163,163,43,1015.4221677,9.30135138333e-06,1016.67561471,1.25345726917,,,,,z,1,1.23394350777,2018_Nov_13_1539,59.9830123184,chinese_cond2,001,1007,
images/remotecontrol01c.jpg,remote control,z,sounds/animalfarm_english.wav,,,,,,,,,0,1,1,1,0,164,164,85,1017.86198667,9.62207559496e-06,1019.24302059,1.38104418723,,,,,z,1,1.36730299168,2018_Nov_13_1539,59.9830123184,chinese_cond2,001,1007,
images/button07.jpg,radish,x,sounds/animalfarm_english.wav,,,,,,,,,0,1,1,1,0,165,165,215,1020.35633101,8.9806271717e-06,1023.34417584,2.98785509635,,,,,None,0,,2018_Nov_13_1539,59.9830123184,chinese_cond2,001,1007,
images/hanger02a.jpg,hanger,z,sounds/animalfarm_english.wav,,,,,,,,,0,1,1,1,0,166,166,88,1024.43763252,9.30135138333e-06,1026.01165771,1.57403512869,,,,,z,1,1.55069565552,2018_Nov_13_1539,59.9830123184,chinese_cond2,001,1007,
images/backpack01b.jpg,swallow,x,sounds/animalfarm_english.wav,,,,,,,,,0,1,1,1,0,167,167,228,1027.14305174,9.62207559496e-06,1030.14603584,3.00299501163,,,,,None,0,,2018_Nov_13_1539,59.9830123184,chinese_cond2,001,1007,
images/dresser02.jpg,dresser,z,sounds/animalfarm_english.wav,,,,,,,,,0,1,1,1,0,168,168,87,1031.26855485,9.62195917964e-06,1032.9136697,1.64512576128,,,,,z,1,1.63406622061,2018_Nov_13_1539,59.9830123184,chinese_cond2,001,1007,
images/binder03b.jpg,dj mixer,x,sounds/animalfarm_english.wav,,,,,,,,,0,1,1,1,0,169,169,167,1034.02708276,9.30135138333e-06,1035.19766082,1.17058865225,,,,,x,1,1.15057871595,2018_Nov_13_1539,59.9830123184,chinese_cond2,001,1007,
images/boxingglove02a.jpg,bracelet,x,sounds/animalfarm_english.wav,,,,,,,,,0,1,1,1,0,170,170,135,1036.30792042,9.62207559496e-06,1037.81509251,1.50718267169,,,,,x,1,1.48401767749,2018_Nov_13_1539,59.9830123184,chinese_cond2,001,1007,
images/candycane01a.jpg,lip,x,sounds/animalfarm_english.wav,,,,,,,,,0,1,1,1,0,171,171,200,1038.98243117,9.62207559496e-06,1040.04907643,1.06665552652,,,,,x,1,1.05055084417,2018_Nov_13_1539,59.9830123184,chinese_cond2,001,1007,
images/cake.jpg,cake,z,sounds/animalfarm_english.wav,,,,,,,,,0,1,1,1,0,172,172,23,1041.16373329,1.02635240182e-05,1042.0496576,0.8859361785,,,,,z,1,0.867175500025,2018_Nov_13_1539,59.9830123184,chinese_cond2,001,1007,
images/headphones02b.jpg,headphones,z,sounds/animalfarm_english.wav,,,,,,,,,0,1,1,1,0,173,173,101,1043.15794597,9.94268339127e-06,1046.15080451,2.99286976829,,,,,None,0,,2018_Nov_13_1539,59.9830123184,chinese_cond2,001,1007,
images/dreamcatcher.jpg,dream catcher,z,sounds/animalfarm_english.wav,,,,,,,,,0,1,1,1,0,174,174,48,1047.24965914,8.98051075637e-06,1050.25189273,3.00224385317,,,,,None,0,,2018_Nov_13_1539,59.9830123184,chinese_cond2,001,1007,
images/giraffe.jpg,lettuce,x,sounds/animalfarm_english.wav,,,,,,,,,0,1,1,1,0,175,175,195,1051.42511012,9.62195917964e-06,1054.41976124,2.99466202839,,,,,None,0,,2018_Nov_13_1539,59.9830123184,chinese_cond2,001,1007,
,,,sounds/animalfarm_english.wav,,,,,,,,,0,1,1,1,,,,,,,,,,,,,,,,2018_Nov_13_1539,59.9830123184,chinese_cond2,001,1007,
