images,name,corrAns,sounds,trials_3.thisRepN,trials_3.thisTrialN,trials_3.thisN,trials_3.thisIndex,trials_4.thisRepN,trials_4.thisTrialN,trials_4.thisN,trials_4.thisIndex,trials_2.thisRepN,trials_2.thisTrialN,trials_2.thisN,trials_2.thisIndex,trials.thisRepN,trials.thisTrialN,trials.thisN,trials.thisIndex,begin_global,begin_routine,end_global,end_routine,key_resp_2.keys,key_resp_2.corr,begin_book,key_resp_1.keys,key_resp_1.corr,key_resp_1.rt,date,frameRate,expName,session,participant,
images/volleyball.jpg,volley ball,z,,0,0,0,0,,,,,,,,,,,,,,,,,,,,,,,2018_Nov_13_1540,59.9892257552,chinese_cond1,001,1009,
images/puma.jpg,puma,z,,,,,,0,0,0,0,,,,,,,,,48.2419771982,8.98016151041e-06,51.0033787815,2.76141280856,None,0,,,,,2018_Nov_13_1540,59.9892257552,chinese_cond1,001,1009,
images/tent.jpg,tent,z,sounds/greatgatsby_english.wav,,,,,,,,,0,0,0,0,0,0,0,11,93.3603044656,8.98016151041e-06,95.6146787609,2.25438423757,,,83.0001205906,z,1,2.23417537205,2018_Nov_13_1540,59.9892257552,chinese_cond1,001,1009,
images/lip.jpg,boxing glove,x,sounds/greatgatsby_english.wav,,,,,,,,,0,0,0,0,0,1,1,136,96.7618258954,8.98016151041e-06,98.2652829324,1.50346730009,,,,x,1,1.48393900169,2018_Nov_13_1540,59.9892257552,chinese_cond1,001,1009,
images/beachumbrella01.jpg,beach umbrella,z,sounds/greatgatsby_english.wav,,,,,,,,,0,0,0,0,0,2,2,92,99.4459244231,8.65943729877e-06,101.082632133,1.63671733183,,,,z,1,1.61729294655,2018_Nov_13_1540,59.9892257552,chinese_cond1,001,1009,
images/battery03b.jpg,battery,z,sounds/greatgatsby_english.wav,,,,,,,,,0,0,0,0,0,3,3,34,102.267488201,9.30088572204e-06,103.716621424,1.44914316537,,,,z,1,1.4339195661,2018_Nov_13_1540,59.9892257552,chinese_cond1,001,1009,
images/candle08a.jpg,screw driver,x,sounds/greatgatsby_english.wav,,,,,,,,,0,0,0,0,0,4,4,221,104.895405627,8.98016151041e-06,106.917420786,2.02202445932,,,,x,1,2.00073765521,2018_Nov_13_1540,59.9892257552,chinese_cond1,001,1009,
images/sunglasses03a.jpg,sun glasses,z,sounds/greatgatsby_english.wav,,,,,,,,,0,0,0,0,0,5,5,17,108.102842602,8.65943729877e-06,109.317998658,1.21516567736,,,,z,1,1.20053444721,2018_Nov_13_1540,59.9892257552,chinese_cond1,001,1009,
images/notebook02b.jpg,notebook,z,sounds/greatgatsby_english.wav,,,,,,,,,0,0,0,0,0,6,6,7,110.501272936,9.30088572204e-06,111.935305716,1.43404304318,,,,z,1,1.41723925807,2018_Nov_13_1540,59.9892257552,chinese_cond1,001,1009,
images/cockroach02.jpg,belt,x,sounds/greatgatsby_english.wav,,,,,,,,,0,0,0,0,0,7,7,129,113.134277297,9.62160993367e-06,114.669312069,1.53504535626,,,,x,1,1.51726946991,2018_Nov_13_1540,59.9892257552,chinese_cond1,001,1009,
images/hand01a.jpg,cupcake,x,sounds/greatgatsby_english.wav,,,,,,,,,0,0,0,0,0,8,8,163,115.861118773,8.98016151041e-06,116.936701168,1.07559201634,,,,x,1,1.05064515967,2018_Nov_13_1540,59.9892257552,chinese_cond1,001,1009,
images/scissors04a.jpg,leek,x,sounds/greatgatsby_english.wav,,,,,,,,,0,0,0,0,0,9,9,194,118.093038203,9.30088572204e-06,120.337381029,2.24435276852,,,,x,1,2.23411186959,2018_Nov_13_1540,59.9892257552,chinese_cond1,001,1009,
images/atm.jpg,atm,z,sounds/greatgatsby_english.wav,,,,,,,,,0,0,0,0,0,10,10,96,121.545829233,8.98016151041e-06,122.838005791,1.29218617897,,,,z,1,1.28389301046,2018_Nov_13_1540,59.9892257552,chinese_cond1,001,1009,
images/backpack01b.jpg,swallow,x,sounds/greatgatsby_english.wav,,,,,,,,,0,0,0,0,0,11,11,228,124.033345542,9.30088572204e-06,125.755389373,1.72205377312,,,,x,1,1.70065856574,2018_Nov_13_1540,59.9892257552,chinese_cond1,001,1009,
images/candy.jpg,candy,z,sounds/greatgatsby_english.wav,,,,,,,,,0,0,0,0,0,12,12,31,126.928780355,8.65943729877e-06,128.589416637,1.66064558306,,,,z,1,1.65063656436,2018_Nov_13_1540,59.9892257552,chinese_cond1,001,1009,
images/plate01b.jpg,plate,z,sounds/greatgatsby_english.wav,,,,,,,,,0,0,0,0,0,13,13,3,129.772251208,8.98016151041e-06,132.773626775,3.00138615037,,,,None,0,,2018_Nov_13_1540,59.9892257552,chinese_cond1,001,1009,
images/straw.jpg,straw,z,sounds/greatgatsby_english.wav,,,,,,,,,0,0,0,0,0,14,14,109,133.923251148,8.98016151041e-06,135.05769137,1.13445048535,,,,z,1,1.11718807137,2018_Nov_13_1540,59.9892257552,chinese_cond1,001,1009,
images/blueberry02.jpg,blueberry,z,sounds/greatgatsby_english.wav,,,,,,,,,0,0,0,0,0,15,15,46,136.240850189,8.98016151041e-06,137.158196247,0.917355358717,,,,z,1,0.900455037015,2018_Nov_13_1540,59.9892257552,chinese_cond1,001,1009,
images/baseball01a.jpg,baseball,z,sounds/greatgatsby_english.wav,,,,,,,,,0,0,0,0,0,16,16,74,138.357792269,9.30088572204e-06,139.442092465,1.08431013848,,,,z,1,1.06691077712,2018_Nov_13_1540,59.9892257552,chinese_cond1,001,1009,
images/radish01.jpg,raisin,x,sounds/greatgatsby_english.wav,,,,,,,,,0,0,0,0,0,17,17,214,140.589154609,8.98016151041e-06,142.409490672,1.82034568442,,,,x,1,1.80067466584,2018_Nov_13_1540,59.9892257552,chinese_cond1,001,1009,
images/drink.jpg,drink,z,sounds/greatgatsby_english.wav,,,,,,,,,0,0,0,0,0,18,18,117,143.584816234,8.98016151041e-06,144.493333201,0.908526588231,,,,z,1,0.900450546993,2018_Nov_13_1540,59.9892257552,chinese_cond1,001,1009,
images/handfan01b.jpg,handfan,z,sounds/greatgatsby_english.wav,,,,,,,,,0,0,0,0,0,19,19,69,145.631421288,8.98016151041e-06,147.194012293,1.5626006258,,,,z,1,1.55062078487,2018_Nov_13_1540,59.9892257552,chinese_cond1,001,1009,
images/lightbulb03b.jpg,treadmill,x,sounds/greatgatsby_english.wav,,,,,,,,,0,0,0,0,0,20,20,234,148.382526168,9.30076930672e-06,151.128305497,2.74578991323,,,,x,1,2.73422508361,2018_Nov_13_1540,59.9892257552,chinese_cond1,001,1009,
images/8ball.jpg,nail clipper,x,sounds/greatgatsby_english.wav,,,,,,,,,0,0,0,0,0,21,21,206,152.322721255,8.98004509509e-06,153.795638726,1.47292709269,,,,x,1,1.45059378038,2018_Nov_13_1540,59.9892257552,chinese_cond1,001,1009,
images/lipstick04.jpg,lipstick,z,sounds/greatgatsby_english.wav,,,,,,,,,0,0,0,0,0,22,22,56,154.977878683,8.98016151041e-06,155.929502615,0.951634194935,,,,z,1,0.933804106899,2018_Nov_13_1540,59.9892257552,chinese_cond1,001,1009,
images/knife04.jpg,tooth brush,x,sounds/greatgatsby_english.wav,,,,,,,,,0,0,0,0,0,23,23,233,157.092904463,9.62160993367e-06,158.313689469,1.22079462779,,,,x,1,1.20080224809,2018_Nov_13_1540,59.9892257552,chinese_cond1,001,1009,
images/bat.jpg,hand,x,sounds/greatgatsby_english.wav,,,,,,,,,0,0,0,0,0,24,24,185,159.443276882,9.30088572204e-06,160.680660734,1.23739347293,,,,x,1,1.21718589042,2018_Nov_13_1540,59.9892257552,chinese_cond1,001,1009,
images/toothbrush03a.jpg,parrot,x,sounds/greatgatsby_english.wav,,,,,,,,,0,0,0,0,0,25,25,210,161.847040784,9.30088572204e-06,163.748084342,1.90105414134,,,,x,1,1.88402585266,2018_Nov_13_1540,59.9892257552,chinese_cond1,001,1009,
images/candycane01a.jpg,lip,x,sounds/greatgatsby_english.wav,,,,,,,,,0,0,0,0,0,26,26,200,164.924341274,9.30076930672e-06,166.082001919,1.15767058753,,,,x,1,1.13384881534,2018_Nov_13_1540,59.9892257552,chinese_cond1,001,1009,
images/cauliflower01.jpg,glue stick,x,sounds/greatgatsby_english.wav,,,,,,,,,0,0,0,0,0,27,27,181,167.271947166,8.98016151041e-06,169.616206028,2.34426848334,,,,x,1,2.3341388742,2018_Nov_13_1540,59.9892257552,chinese_cond1,001,1009,
images/lemon02.jpg,lemon,z,sounds/greatgatsby_english.wav,,,,,,,,,0,0,0,0,0,28,28,14,170.803532278,9.62160993367e-06,171.916599102,1.11307708698,,,,z,1,1.10033072601,2018_Nov_13_1540,59.9892257552,chinese_cond1,001,1009,
images/medal01.jpg,medal,z,sounds/greatgatsby_english.wav,,,,,,,,,0,0,0,0,0,29,29,115,173.098114553,9.30088572204e-06,174.834153307,1.73604837479,,,,z,1,1.71731930971,2018_Nov_13_1540,59.9892257552,chinese_cond1,001,1009,
images/clothespin02a.jpg,clothes pin,z,sounds/greatgatsby_english.wav,,,,,,,,,0,0,0,0,0,30,30,79,176.030234562,9.30088572204e-06,177.451464214,1.42123991495,,,,z,1,1.40057787264,2018_Nov_13_1540,59.9892257552,chinese_cond1,001,1009,
images/hat05.jpg,hat,z,sounds/greatgatsby_english.wav,,,,,,,,,0,0,0,0,0,31,31,15,178.557687842,8.98016151041e-06,179.435288398,0.877610176802,,,,z,1,0.867113022832,2018_Nov_13_1540,59.9892257552,chinese_cond1,001,1009,
images/swallow.jpg,mattress,x,sounds/greatgatsby_english.wav,,,,,,,,,0,0,0,0,0,32,32,202,180.608440122,9.30088572204e-06,181.819229259,1.21079972095,,,,x,1,1.20054567233,2018_Nov_13_1540,59.9892257552,chinese_cond1,001,1009,
images/pouch01b.jpg,pouch,z,sounds/greatgatsby_english.wav,,,,,,,,,0,0,0,0,0,33,33,25,182.972742679,8.98016151041e-06,184.469876087,1.4971436708,,,,x,0,1.48394477461,2018_Nov_13_1540,59.9892257552,chinese_cond1,001,1009,
images/broom02.jpg,broom,z,sounds/greatgatsby_english.wav,,,,,,,,,0,0,0,0,0,34,34,116,185.566327067,9.30088572204e-06,187.770715603,2.20439943962,,,,x,0,2.1841347689,2018_Nov_13_1540,59.9892257552,chinese_cond1,001,1009,
images/cactus.jpg,cactus,z,sounds/greatgatsby_english.wav,,,,,,,,,0,0,0,0,0,35,35,70,188.972047359,8.98016151041e-06,190.904786035,1.93274861865,,,,z,1,1.91737075313,2018_Nov_13_1540,59.9892257552,chinese_cond1,001,1009,
images/corn01.jpg,corn,z,sounds/greatgatsby_english.wav,,,,,,,,,0,0,0,0,0,36,36,22,192.08476075,9.30076930672e-06,193.055321894,0.970571406884,,,,z,1,0.950467737624,2018_Nov_13_1540,59.9892257552,chinese_cond1,001,1009,
images/tie01.jpg,bench,x,sounds/greatgatsby_english.wav,,,,,,,,,0,0,0,0,0,37,37,130,194.23343932,9.62160993367e-06,195.739319394,1.50589001621,,,,x,1,1.48393419094,2018_Nov_13_1540,59.9892257552,chinese_cond1,001,1009,
images/fork01.jpg,cooking pot,x,sounds/greatgatsby_english.wav,,,,,,,,,0,0,0,0,0,38,38,160,196.939954548,8.65943729877e-06,198.523342617,1.58339961548,,,,x,1,1.56729435769,2018_Nov_13_1540,59.9892257552,chinese_cond1,001,1009,
images/envelope02a.jpg,grand piano,x,sounds/greatgatsby_english.wav,,,,,,,,,0,0,0,0,0,39,39,182,199.723133636,9.62160993367e-06,201.490738258,1.76761520572,,,,x,1,1.7506751148,2018_Nov_13_1540,59.9892257552,chinese_cond1,001,1009,
images/cookingpot.jpg,grasshopper,x,sounds/greatgatsby_english.wav,,,,,,,,,0,0,0,0,0,40,40,183,202.687306045,9.30088572204e-06,204.458153784,1.77085736068,,,,x,1,1.75068345352,2018_Nov_13_1540,59.9892257552,chinese_cond1,001,1009,
images/kiwi03.jpg,backpack,x,sounds/greatgatsby_english.wav,,,,,,,,,0,0,0,0,0,41,41,125,205.677202093,8.98004509509e-06,207.025421843,1.34822937089,,,,x,1,1.3338912786,2018_Nov_13_1540,59.9892257552,chinese_cond1,001,1009,
images/acousticguitar02.jpg,acoustic guitar,z,sounds/greatgatsby_english.wav,,,,,,,,,0,0,0,0,0,42,42,97,208.182137968,8.98016151041e-06,210.042854559,1.8607262118,,,,z,1,1.85070147796,2018_Nov_13_1540,59.9892257552,chinese_cond1,001,1009,
images/arrow02.jpg,hammer,x,sounds/greatgatsby_english.wav,,,,,,,,,0,0,0,0,0,43,43,184,211.141730821,8.98016151041e-06,212.276906454,1.13518493343,,,,x,1,1.11735580768,2018_Nov_13_1540,59.9892257552,chinese_cond1,001,1009,
images/antelope.jpg,antelope,z,sounds/greatgatsby_english.wav,,,,,,,,,0,0,0,0,0,44,44,12,213.413993896,8.98004509509e-06,214.744002543,1.33001826808,,,,x,0,1.31723534537,2018_Nov_13_1540,59.9892257552,chinese_cond1,001,1009,
images/volleyball.jpg,volley ball,z,sounds/greatgatsby_english.wav,,,,,,,,,0,0,0,0,0,45,45,2,215.875028384,8.65943729877e-06,216.8611842,0.986165758106,,,,z,1,0.967145800474,2018_Nov_13_1540,59.9892257552,chinese_cond1,001,1009,
images/lychee02a.jpg,lychee,z,sounds/greatgatsby_english.wav,,,,,,,,,0,0,0,0,0,46,46,62,218.052894046,8.98016151041e-06,219.711894016,1.65900991287,,,,z,1,1.65065420396,2018_Nov_13_1540,59.9892257552,chinese_cond1,001,1009,
images/gps.jpg,gps,z,sounds/greatgatsby_english.wav,,,,,,,,,0,0,0,0,0,47,47,21,220.857811191,8.98016151041e-06,222.962691325,2.10489007656,,,,x,0,2.08408467262,2018_Nov_13_1540,59.9892257552,chinese_cond1,001,1009,
images/axe01.jpg,axe,z,sounds/greatgatsby_english.wav,,,,,,,,,0,0,0,0,0,48,48,104,224.148889284,9.62149351835e-06,225.279976382,1.13109736145,,,,z,1,1.11723072699,2018_Nov_13_1540,59.9892257552,chinese_cond1,001,1009,
images/grasshopper.jpg,cauliflower,x,sounds/greatgatsby_english.wav,,,,,,,,,0,0,0,0,0,49,49,148,226.405191745,9.30088572204e-06,227.930582799,1.52540131658,,,,x,1,1.51728261937,2018_Nov_13_1540,59.9892257552,chinese_cond1,001,1009,
images/eraser.jpg,eraser,z,sounds/greatgatsby_english.wav,,,,,,,,,0,0,0,0,0,50,50,110,229.064708395,8.98016151041e-06,230.164467278,1.0997685045,,,,z,1,1.08383771847,2018_Nov_13_1540,59.9892257552,chinese_cond1,001,1009,
images/radio03a.jpg,radio,z,sounds/greatgatsby_english.wav,,,,,,,,,0,0,0,0,0,51,51,37,231.314899865,8.98004509509e-06,232.431691527,1.11680192477,,,,z,1,1.1005087255,2018_Nov_13_1540,59.9892257552,chinese_cond1,001,1009,
images/remotecontrol01c.jpg,remote control,z,sounds/greatgatsby_english.wav,,,,,,,,,0,0,0,0,0,52,52,85,233.58477422,9.30088572204e-06,235.032385949,1.44762199209,,,,z,1,1.43397216406,2018_Nov_13_1540,59.9892257552,chinese_cond1,001,1009,
images/parkfountain.jpg,park fountain,z,sounds/greatgatsby_english.wav,,,,,,,,,0,0,0,0,0,53,53,93,236.236532341,9.62149351835e-06,238.316482616,2.07996021793,,,,z,1,2.06741462764,2018_Nov_13_1540,59.9892257552,chinese_cond1,001,1009,
images/donut.jpg,rhinoceros,x,sounds/greatgatsby_english.wav,,,,,,,,,0,0,0,0,0,54,54,216,239.469313865,8.98016151041e-06,241.450586404,1.98128248088,,,,x,1,1.96738986811,2018_Nov_13_1540,59.9892257552,chinese_cond1,001,1009,
images/eyedrops.jpg,bicycle,x,sounds/greatgatsby_english.wav,,,,,,,,,0,0,0,0,0,55,55,131,242.616824055,8.98016151041e-06,244.101248947,1.48443579639,,,,x,1,1.46727921988,2018_Nov_13_1540,59.9892257552,chinese_cond1,001,1009,
images/chameleon.jpg,50 dollar bill,x,sounds/greatgatsby_english.wav,,,,,,,,,0,0,0,0,0,56,56,120,245.300428032,9.30088572204e-06,246.368471591,1.06805382192,,,,x,1,1.05048447906,2018_Nov_13_1540,59.9892257552,chinese_cond1,001,1009,
images/charcoalbarbecue.jpg,charcoal barbecue,z,sounds/greatgatsby_english.wav,,,,,,,,,0,0,0,0,0,57,57,77,247.522659805,9.30088572204e-06,248.969104435,1.44645457272,,,,z,1,1.43391443451,2018_Nov_13_1540,59.9892257552,chinese_cond1,001,1009,
images/barrel01.jpg,barrel,z,sounds/greatgatsby_english.wav,,,,,,,,,0,0,0,0,0,58,58,9,250.171379749,8.98016151041e-06,251.603093405,1.43172391935,,,,z,1,1.41725144547,2018_Nov_13_1540,59.9892257552,chinese_cond1,001,1009,
images/teapot.jpg,light switch,x,sounds/greatgatsby_english.wav,,,,,,,,,0,0,0,0,0,59,59,197,252.790189699,8.98016151041e-06,254.520484043,1.73030492733,,,,x,1,1.71733245929,2018_Nov_13_1540,59.9892257552,chinese_cond1,001,1009,
images/bracelet02a.jpg,chess knight,x,sounds/greatgatsby_english.wav,,,,,,,,,0,0,0,0,0,60,60,152,255.740855,8.65943729877e-06,257.821290204,2.08044418378,,,,x,1,2.06737549987,2018_Nov_13_1540,59.9892257552,chinese_cond1,001,1009,
images/handbag02a.jpg,candle,x,sounds/greatgatsby_english.wav,,,,,,,,,0,0,0,0,0,61,61,144,259.024584123,9.30088572204e-06,260.638657365,1.61408286367,,,,x,1,1.60063284403,2018_Nov_13_1540,59.9892257552,chinese_cond1,001,1009,
images/nailclipper03a.jpg,aquarium,x,sounds/greatgatsby_english.wav,,,,,,,,,0,0,0,0,0,62,62,123,261.789809326,9.30088572204e-06,263.522698291,1.73289922869,,,,x,1,1.71732989349,2018_Nov_13_1540,59.9892257552,chinese_cond1,001,1009,
images/computermouse02a.jpg,world map,x,sounds/greatgatsby_english.wav,,,,,,,,,0,0,0,0,0,63,63,239,264.702317648,9.62160993367e-06,266.906870713,2.20456332737,,,,x,1,2.18410494202,2018_Nov_13_1540,59.9892257552,chinese_cond1,001,1009,
images/puzzle.jpg,puzzle,z,sounds/greatgatsby_english.wav,,,,,,,,,0,0,0,0,0,64,64,57,268.058641983,8.65943729877e-06,269.657539413,1.59890737233,,,,z,1,1.58394259366,2018_Nov_13_1540,59.9892257552,chinese_cond1,001,1009,
images/mattress.jpg,cat,x,sounds/greatgatsby_english.wav,,,,,,,,,0,0,0,0,0,65,65,147,270.844703059,9.30088572204e-06,272.458240699,1.61354726192,,,,x,1,1.6006325233,2018_Nov_13_1540,59.9892257552,chinese_cond1,001,1009,
images/button07.jpg,radish,x,sounds/greatgatsby_english.wav,,,,,,,,,0,0,0,0,0,66,66,215,273.650767739,8.98016151041e-06,275.792547951,2.14179624803,,,,x,1,2.11754759797,2018_Nov_13_1540,59.9892257552,chinese_cond1,001,1009,
images/tank.jpg,wallet,x,sounds/greatgatsby_english.wav,,,,,,,,,0,0,0,0,0,67,67,237,276.970537411,9.30076930672e-06,277.959592853,0.9890657051,,,,x,1,0.967138744658,2018_Nov_13_1540,59.9892257552,chinese_cond1,001,1009,
images/highlighter03b.jpg,coin,x,sounds/greatgatsby_english.wav,,,,,,,,,0,0,0,0,0,68,68,156,279.179859897,8.98016151041e-06,281.810533908,2.63068363327,,,,x,1,2.61753637285,2018_Nov_13_1540,59.9892257552,chinese_cond1,001,1009,
images/butterfly.jpg,butterfly,z,sounds/greatgatsby_english.wav,,,,,,,,,0,0,0,0,0,69,69,91,282.993957321,9.30088572204e-06,284.111096002,1.11714862275,,,,z,1,1.10048755805,2018_Nov_13_1540,59.9892257552,chinese_cond1,001,1009,
images/egg01b (1).jpg,egg,z,sounds/greatgatsby_english.wav,,,,,,,,,0,0,0,0,0,70,70,19,285.255667116,8.98004509509e-06,286.111615567,0.855959355831,,,,z,1,0.833781271824,2018_Nov_13_1540,59.9892257552,chinese_cond1,001,1009,
images/razor04a.jpg,razor,z,sounds/greatgatsby_english.wav,,,,,,,,,0,0,0,0,0,71,71,36,287.288716634,9.30088572204e-06,289.162395109,1.87368841702,,,,x,0,1.85072713555,2018_Nov_13_1540,59.9892257552,chinese_cond1,001,1009,
images/peach01.jpg,peach,z,sounds/greatgatsby_english.wav,,,,,,,,,0,0,0,0,0,72,72,106,290.362867336,9.62160993367e-06,291.663016984,1.30016023153,,,,z,1,1.28389974567,2018_Nov_13_1540,59.9892257552,chinese_cond1,001,1009,
images/feather03b.jpg,feather,z,sounds/greatgatsby_english.wav,,,,,,,,,0,0,0,0,0,73,73,114,292.800924827,8.98016151041e-06,293.613458102,0.812543216976,,,,z,1,0.80043540895,2018_Nov_13_1540,59.9892257552,chinese_cond1,001,1009,
images/grandpiano.jpg,tulip,x,sounds/greatgatsby_english.wav,,,,,,,,,0,0,0,0,0,74,74,236,294.79991424,8.98016151041e-06,295.947364775,1.14746015694,,,,x,1,1.13382989285,2018_Nov_13_1540,59.9892257552,chinese_cond1,001,1009,
images/icecube02 (2).jpg,aloe,x,sounds/greatgatsby_english.wav,,,,,,,,,0,0,0,0,0,75,75,122,297.098559071,9.30088572204e-06,298.681377221,1.5828284137,,,,x,1,1.56729692349,2018_Nov_13_1540,59.9892257552,chinese_cond1,001,1009,
images/djmixer01.jpg,light bulb,x,sounds/greatgatsby_english.wav,,,,,,,,,0,0,0,0,0,76,76,196,299.876248722,8.98016151041e-06,301.948844575,2.07260611642,,,,x,1,2.05073656479,2018_Nov_13_1540,59.9892257552,chinese_cond1,001,1009,
images/bottleofredwine02.jpg,pipe,x,sounds/greatgatsby_english.wav,,,,,,,,,0,0,0,0,0,77,77,213,303.124376681,9.94233414531e-06,304.216073955,1.0917081784,,,,x,1,1.06716703204,2018_Nov_13_1540,59.9892257552,chinese_cond1,001,1009,
images/nailpolish02b.jpg,nail polish,z,sounds/greatgatsby_english.wav,,,,,,,,,0,0,0,0,0,78,78,94,305.360241925,9.62160993367e-06,306.466621103,1.10638912022,,,,z,1,1.08382713469,2018_Nov_13_1540,59.9892257552,chinese_cond1,001,1009,
images/bull.jpg,button,x,sounds/greatgatsby_english.wav,,,,,,,,,0,0,0,0,0,79,79,141,307.672551338,9.30076930672e-06,308.800523607,1.12798157008,,,,x,1,1.11713322822,2018_Nov_13_1540,59.9892257552,chinese_cond1,001,1009,
images/saltshaker03c.jpg,salt shaker,z,sounds/greatgatsby_english.wav,,,,,,,,,0,0,0,0,0,80,80,63,309.948308653,9.62160993367e-06,311.517866329,1.56956793938,,,,z,1,1.55061372905,2018_Nov_13_1540,59.9892257552,chinese_cond1,001,1009,
images/dice05a.jpg,band aid,x,sounds/greatgatsby_english.wav,,,,,,,,,0,0,0,0,0,81,81,126,312.711948539,9.30088572204e-06,314.235214504,1.5232759075,,,,x,1,1.50061193306,2018_Nov_13_1540,59.9892257552,chinese_cond1,001,1009,
images/pipe.jpg,icecube,x,sounds/greatgatsby_english.wav,,,,,,,,,0,0,0,0,0,82,82,188,315.463176895,9.62160993367e-06,317.269303153,1.80613652139,,,,z,0,1.78402033623,2018_Nov_13_1540,59.9892257552,chinese_cond1,001,1009,
images/pineapple01a.jpg,pineapple,z,sounds/greatgatsby_english.wav,,,,,,,,,0,0,0,0,0,83,83,51,318.475875789,8.98016151041e-06,319.519845811,1.04397964338,,,,z,1,1.03381764132,2018_Nov_13_1540,59.9892257552,chinese_cond1,001,1009,
images/tissuebox03.jpg,tissue box,z,sounds/greatgatsby_english.wav,,,,,,,,,0,0,0,0,0,84,84,58,320.720491548,9.30088572204e-06,321.986945428,1.26646446367,,,,z,1,1.25036337541,2018_Nov_13_1540,59.9892257552,chinese_cond1,001,1009,
images/banjo.jpg,knife,x,sounds/greatgatsby_english.wav,,,,,,,,,0,0,0,0,0,85,85,191,323.200917066,1.02630583569e-05,324.454400081,1.25349359913,,,,x,1,1.2338780649,2018_Nov_13_1540,59.9892257552,chinese_cond1,001,1009,
images/electricguitar02.jpg,electric guitar,z,sounds/greatgatsby_english.wav,,,,,,,,,0,0,0,0,0,86,86,100,325.591409588,9.62160993367e-06,327.338257556,1.74685887177,,,,z,1,1.73381167592,2018_Nov_13_1540,59.9892257552,chinese_cond1,001,1009,
images/flipflop01b.jpg,flip flop,z,sounds/greatgatsby_english.wav,,,,,,,,,0,0,0,0,0,87,87,27,328.484252345,9.62149351835e-06,329.488973338,1.00473189761,,,,z,1,0.983817448956,2018_Nov_13_1540,59.9892257552,chinese_cond1,001,1009,
images/broadsword.jpg,teapot,x,sounds/greatgatsby_english.wav,,,,,,,,,0,0,0,0,0,88,88,231,330.659867838,9.30088572204e-06,331.789534469,1.12967689428,,,,x,1,1.11697767919,2018_Nov_13_1540,59.9892257552,chinese_cond1,001,1009,
images/cat.jpg,black olive,x,sounds/greatgatsby_english.wav,,,,,,,,,0,0,0,0,0,89,89,133,332.99249035,9.30076930672e-06,334.440193804,1.44771339721,,,,x,1,1.43391988671,2018_Nov_13_1540,59.9892257552,chinese_cond1,001,1009,
images/bandaid01.jpg,door handle,x,sounds/greatgatsby_english.wav,,,,,,,,,0,0,0,0,0,90,90,170,335.625444036,9.30088572204e-06,337.257553268,1.63211917435,,,,x,1,1.6173099447,2018_Nov_13_1540,59.9892257552,chinese_cond1,001,1009,
images/paintbrush03a.jpg,paint brush,z,sounds/greatgatsby_english.wav,,,,,,,,,0,0,0,0,0,91,91,0,338.386510468,8.98016151041e-06,340.124919981,1.73841881368,,,,z,1,1.71731674403,2018_Nov_13_1540,59.9892257552,chinese_cond1,001,1009,
images/plant01.jpg,plant,z,sounds/greatgatsby_english.wav,,,,,,,,,0,0,0,0,0,92,92,47,341.307921968,8.65943729877e-06,342.40882165,1.10090930434,,,,z,1,1.08383579412,2018_Nov_13_1540,59.9892257552,chinese_cond1,001,1009,
images/lock02a.jpg,lock,z,sounds/greatgatsby_english.wav,,,,,,,,,0,0,0,0,0,93,93,65,343.598223277,9.30088572204e-06,344.475991569,0.87777823396,,,,z,1,0.86710981559,2018_Nov_13_1540,59.9892257552,chinese_cond1,001,1009,
images/aquarium.jpg,computer mouse,x,sounds/greatgatsby_english.wav,,,,,,,,,0,0,0,0,0,94,94,159,345.690142489,9.30088572204e-06,347.426724862,1.73659231537,,,,x,1,1.71732412057,2018_Nov_13_1540,59.9892257552,chinese_cond1,001,1009,
images/hairpin.jpg,hair pin,z,sounds/greatgatsby_english.wav,,,,,,,,,0,0,0,0,0,95,95,28,348.628919354,9.30088572204e-06,350.460985097,1.83207536396,,,,z,1,1.81752431381,2018_Nov_13_1540,59.9892257552,chinese_cond1,001,1009,
images/birthdaycandle.jpg,birthday candle,z,sounds/greatgatsby_english.wav,,,,,,,,,0,0,0,0,0,96,96,55,351.594477272,9.30088572204e-06,352.944754117,1.35028710822,,,,z,1,1.33387395972,2018_Nov_13_1540,59.9892257552,chinese_cond1,001,1009,
images/cigar.jpg,crocodile,x,sounds/greatgatsby_english.wav,,,,,,,,,0,0,0,0,0,97,97,162,354.074672192,9.30088572204e-06,355.29532859,1.22066666069,,,,x,1,1.20052065619,2018_Nov_13_1540,59.9892257552,chinese_cond1,001,1009,
images/cheetah.jpg,cheetah,z,sounds/greatgatsby_english.wav,,,,,,,,,0,0,0,0,0,98,98,82,356.467300387,9.30076930672e-06,357.962651877,1.49536143173,,,,z,1,1.48392873874,2018_Nov_13_1540,59.9892257552,chinese_cond1,001,1009,
images/dreamcatcher.jpg,dream catcher,z,sounds/greatgatsby_english.wav,,,,,,,,,0,0,0,0,0,99,99,48,359.135666975,9.30088572204e-06,360.146545785,1.01088907337,,,,z,1,1.00049711554,2018_Nov_13_1540,59.9892257552,chinese_cond1,001,1009,
images/flamingo.jpg,flamingo,z,sounds/greatgatsby_english.wav,,,,,,,,,0,0,0,0,0,100,100,52,361.323443195,8.98016151041e-06,362.647148738,1.32371516502,,,,z,1,1.30055632035,2018_Nov_13_1540,59.9892257552,chinese_cond1,001,1009,
images/shotglass.jpg,shot glass,z,sounds/greatgatsby_english.wav,,,,,,,,,0,0,0,0,0,101,101,86,363.78024739,9.62160993367e-06,365.131100569,1.35086344148,,,,x,0,1.33389352355,2018_Nov_13_1540,59.9892257552,chinese_cond1,001,1009,
images/flower01.jpg,bus,x,sounds/greatgatsby_english.wav,,,,,,,,,0,0,0,0,0,102,102,140,366.366086079,8.98016151041e-06,368.098492361,1.73241590406,,,,x,1,1.71732283768,2018_Nov_13_1540,59.9892257552,chinese_cond1,001,1009,
images/bowtie.jpg,bowtie,z,sounds/greatgatsby_english.wav,,,,,,,,,0,0,0,0,0,103,103,89,369.285064599,9.62160993367e-06,370.599108143,1.3140541272,,,,z,1,1.30055375444,2018_Nov_13_1540,59.9892257552,chinese_cond1,001,1009,
images/watermelon01.jpg,orange,x,sounds/greatgatsby_english.wav,,,,,,,,,0,0,0,0,0,104,104,207,371.765314363,9.30088572204e-06,373.066388646,1.30108486628,,,,x,1,1.28388018173,2018_Nov_13_1540,59.9892257552,chinese_cond1,001,1009,
images/rubberglove02a.jpg,lady bug,x,sounds/greatgatsby_english.wav,,,,,,,,,0,0,0,0,0,105,105,192,374.23787776,8.98016151041e-06,376.683938809,2.4460706712,,,,x,1,2.43397569202,2018_Nov_13_1540,59.9892257552,chinese_cond1,001,1009,
images/dolphin01.jpg,dolphin,z,sounds/greatgatsby_english.wav,,,,,,,,,0,0,0,0,0,106,106,99,377.865598905,9.30076930672e-06,379.134547343,1.26895805879,,,,z,1,1.25053528114,2018_Nov_13_1540,59.9892257552,chinese_cond1,001,1009,
images/licenseplate.jpg,license plate,z,sounds/greatgatsby_english.wav,,,,,,,,,0,0,0,0,0,107,107,40,380.342393236,9.30088572204e-06,381.685176787,1.34279349376,,,,z,1,1.33389384439,2018_Nov_13_1540,59.9892257552,chinese_cond1,001,1009,
images/panda.jpg,panda,z,sounds/greatgatsby_english.wav,,,,,,,,,0,0,0,0,0,108,108,83,382.822868465,9.62149351835e-06,384.102436892,1.27957836911,,,,z,1,1.26722456911,2018_Nov_13_1540,59.9892257552,chinese_cond1,001,1009,
images/snowman.jpg,globe,x,sounds/greatgatsby_english.wav,,,,,,,,,0,0,0,0,0,109,109,180,385.258697917,9.30088572204e-06,386.986489044,1.7278017106,,,,x,1,1.71726927743,2018_Nov_13_1540,59.9892257552,chinese_cond1,001,1009,
images/pingpongpaddle01c (1).jpg,ping pong paddle,z,sounds/greatgatsby_english.wav,,,,,,,,,0,0,0,0,0,110,110,10,388.176899013,9.30088572204e-06,389.353733562,1.17684513214,,,,z,1,1.16718858446,2018_Nov_13_1540,59.9892257552,chinese_cond1,001,1009,
images/raisin.jpg,ruler,x,sounds/greatgatsby_english.wav,,,,,,,,,0,0,0,0,0,111,111,218,390.513927892,8.98016151041e-06,391.570964994,1.05704704439,,,,x,1,1.03384875122,2018_Nov_13_1540,59.9892257552,chinese_cond1,001,1009,
images/doorhandle.jpg,doll,x,sounds/greatgatsby_english.wav,,,,,,,,,0,0,0,0,0,112,112,168,392.747403133,9.30076930672e-06,394.421646908,1.67425371741,,,,x,1,1.65064426162,2018_Nov_13_1540,59.9892257552,chinese_cond1,001,1009,
images/skateboard.jpg,key,x,sounds/greatgatsby_english.wav,,,,,,,,,0,0,0,0,0,113,113,189,395.585430733,9.30088572204e-06,396.688867308,1.10344715882,,,,x,1,1.08383194555,2018_Nov_13_1540,59.9892257552,chinese_cond1,001,1009,
images/ladybug03.jpg,giraffe,x,sounds/greatgatsby_english.wav,,,,,,,,,0,0,0,0,0,114,114,178,397.827040066,9.30088572204e-06,398.672713942,0.845684139873,,,,x,1,0.833795383456,2018_Nov_13_1540,59.9892257552,chinese_cond1,001,1009,
images/wallet01.jpg,lamp,x,sounds/greatgatsby_english.wav,,,,,,,,,0,0,0,0,0,115,115,193,399.848957725,8.65943729877e-06,401.940164619,2.09121683589,,,,x,1,2.0674127033,2018_Nov_13_1540,59.9892257552,chinese_cond1,001,1009,
images/boxingglove02a.jpg,bracelet,x,sounds/greatgatsby_english.wav,,,,,,,,,0,0,0,0,0,116,116,135,403.129944374,8.98016151041e-06,404.540817989,1.41088323633,,,,x,1,1.40059198427,2018_Nov_13_1540,59.9892257552,chinese_cond1,001,1009,
images/worldmap.jpg,scooter,x,sounds/greatgatsby_english.wav,,,,,,,,,0,0,0,0,0,117,117,220,405.707066223,9.30088572204e-06,406.974742045,1.26768608473,,,,x,1,1.25053977116,2018_Nov_13_1540,59.9892257552,chinese_cond1,001,1009,
images/leaf01a.jpg,leaf,z,sounds/greatgatsby_english.wav,,,,,,,,,0,0,0,0,0,118,118,68,408.111872464,8.98004509509e-06,409.892127872,1.78026567132,,,,z,1,1.76733842469,2018_Nov_13_1540,59.9892257552,chinese_cond1,001,1009,
images/croissant02b.jpg,croissant,z,sounds/greatgatsby_english.wav,,,,,,,,,0,0,0,0,0,119,119,39,411.083250481,8.65943729877e-06,412.226055392,1.14281453297,,,,z,1,1.13387351076,2018_Nov_13_1540,59.9892257552,chinese_cond1,001,1009,
images/tulip02.jpg,sport shorts,x,sounds/greatgatsby_english.wav,,,,,,,,,0,0,0,0,0,120,120,225,413.361520314,9.30076930672e-06,414.509959949,1.14844925632,,,,x,1,1.13387158641,2018_Nov_13_1540,59.9892257552,chinese_cond1,001,1009,
images/flashlight05.jpg,flash light,z,sounds/greatgatsby_english.wav,,,,,,,,,0,0,0,0,0,121,121,8,415.678257261,8.65943729877e-06,416.727192023,1.04894470412,,,,z,1,1.03386863589,2018_Nov_13_1540,59.9892257552,chinese_cond1,001,1009,
images/nametag01a.jpg,name tag,z,sounds/greatgatsby_english.wav,,,,,,,,,0,0,0,0,0,122,122,108,417.903822914,8.98016151041e-06,419.094395168,1.19058155455,,,,z,1,1.16711129097,2018_Nov_13_1540,59.9892257552,chinese_cond1,001,1009,
images/fireextinguisher02.jpg,fire extinguisher,z,sounds/greatgatsby_english.wav,,,,,,,,,0,0,0,0,0,123,123,175,420.237954732,9.30076930672e-06,421.228262264,0.990317473887,,,,z,1,0.967150290497,2018_Nov_13_1540,59.9892257552,chinese_cond1,001,1009,
images/desktopcomputer.jpg,desktop computer,z,sounds/greatgatsby_english.wav,,,,,,,,,0,0,0,0,0,124,124,16,422.454076475,9.30076930672e-06,423.845671953,1.39163332246,,,,z,1,1.36726536474,2018_Nov_13_1540,59.9892257552,chinese_cond1,001,1009,
images/ladder.jpg,ladder,z,sounds/greatgatsby_english.wav,,,,,,,,,0,0,0,0,0,125,125,113,425.014480492,9.94233414531e-06,426.062791454,1.0483212251,,,,z,1,1.03382630087,2018_Nov_13_1540,59.9892257552,chinese_cond1,001,1009,
images/coin01b.jpg,arrow,x,sounds/greatgatsby_english.wav,,,,,,,,,0,0,0,0,0,126,126,124,427.219978076,9.30088572204e-06,428.163302745,0.943334932672,,,,x,1,0.933808917762,2018_Nov_13_1540,59.9892257552,chinese_cond1,001,1009,
images/triangleruler02.jpg,bottle of red wine,x,sounds/greatgatsby_english.wav,,,,,,,,,0,0,0,0,0,127,127,134,429.377092856,8.98016151041e-06,430.463860348,1.08677743468,,,,x,1,1.06715741055,2018_Nov_13_1540,59.9892257552,chinese_cond1,001,1009,
images/apricot.jpg,apricot,z,sounds/greatgatsby_english.wav,,,,,,,,,0,0,0,0,0,128,128,32,431.623900413,9.30088572204e-06,432.997832897,1.37394178554,,,,x,0,1.35057639726,2018_Nov_13_1540,59.9892257552,chinese_cond1,001,1009,
images/redfox.jpg,red fox,z,sounds/greatgatsby_english.wav,,,,,,,,,0,0,0,0,0,129,129,1,434.215218917,8.98016151041e-06,435.281723663,1.06651436759,,,,z,1,1.05049602501,2018_Nov_13_1540,59.9892257552,chinese_cond1,001,1009,
images/hanger02a.jpg,hanger,z,sounds/greatgatsby_english.wav,,,,,,,,,0,0,0,0,0,130,130,88,436.404131767,9.62160993367e-06,438.132434121,1.72831229633,,,,z,1,1.71728819993,2018_Nov_13_1540,59.9892257552,chinese_cond1,001,1009,
images/screw03c.jpg,screw,z,sounds/greatgatsby_english.wav,,,,,,,,,0,0,0,0,0,131,131,84,439.329776446,9.30088572204e-06,440.466338228,1.13657140441,,,,z,1,1.11718358123,2018_Nov_13_1540,59.9892257552,chinese_cond1,001,1009,
images/dresser02.jpg,dresser,z,sounds/greatgatsby_english.wav,,,,,,,,,0,0,0,0,0,132,132,87,441.62630132,9.30088572204e-06,442.716891791,1.09060009208,,,,z,1,1.06716831494,2018_Nov_13_1540,59.9892257552,chinese_cond1,001,1009,
images/corkscrew02a.jpg,masquerade mask,x,sounds/greatgatsby_english.wav,,,,,,,,,0,0,0,0,0,133,133,201,443.902918805,9.94221772999e-06,446.90110706,2.99819883844,,,,None,0,,2018_Nov_13_1540,59.9892257552,chinese_cond1,001,1009,
images/comb02a.jpg,diploma,x,sounds/greatgatsby_english.wav,,,,,,,,,0,0,0,0,0,134,134,166,448.075958278,9.30076930672e-06,449.385202573,1.30925423698,,,,x,1,1.30054926442,2018_Nov_13_1540,59.9892257552,chinese_cond1,001,1009,
images/lantern03.jpg,lantern,z,sounds/greatgatsby_english.wav,,,,,,,,,0,0,0,0,0,135,135,5,450.566093904,8.98016151041e-06,451.802302318,1.23621867702,,,,z,1,1.21704028361,2018_Nov_13_1540,59.9892257552,chinese_cond1,001,1009,
images/bench02.jpg,electric toothbrush,x,sounds/greatgatsby_english.wav,,,,,,,,,0,0,0,0,0,136,136,172,452.952571658,8.98016151041e-06,454.586491673,1.63393156091,,,,x,1,1.61730930326,2018_Nov_13_1540,59.9892257552,chinese_cond1,001,1009,
images/crocodile.jpg,triangle ruler,x,sounds/greatgatsby_english.wav,,,,,,,,,0,0,0,0,0,137,137,235,455.755461214,8.98016151041e-06,457.187129008,1.43167741504,,,,x,1,1.41725144547,2018_Nov_13_1540,59.9892257552,chinese_cond1,001,1009,
images/headphones02b.jpg,headphones,z,sounds/greatgatsby_english.wav,,,,,,,,,0,0,0,0,0,138,138,101,458.378189076,8.98016151041e-06,459.737587829,1.35940901632,,,,z,1,1.35041250964,2018_Nov_13_1540,59.9892257552,chinese_cond1,001,1009,
images/microphone01.jpg,diaper,x,sounds/greatgatsby_english.wav,,,,,,,,,0,0,0,0,0,139,139,164,460.940803493,9.30088572204e-06,462.32173408,1.38094052963,,,,x,1,1.36724964948,2018_Nov_13_1540,59.9892257552,chinese_cond1,001,1009,
images/lollipop03b.jpg,lollipop,z,sounds/greatgatsby_english.wav,,,,,,,,,0,0,0,0,0,140,140,42,463.4528664,8.98004509509e-06,464.538939213,1.08608307655,,,,z,1,1.06716895639,2018_Nov_13_1540,59.9892257552,chinese_cond1,001,1009,
images/cupcake.jpg,scissors,x,sounds/greatgatsby_english.wav,,,,,,,,,0,0,0,0,0,141,141,219,465.697958748,8.98016151041e-06,466.823025939,1.12507681234,,,,x,1,1.10069538432,2018_Nov_13_1540,59.9892257552,chinese_cond1,001,1009,
images/glasses01b.jpg,calculator,x,sounds/greatgatsby_english.wav,,,,,,,,,0,0,0,0,0,142,142,142,467.973683029,8.98016151041e-06,468.906683412,0.933010967332,,,,x,1,0.917132137693,2018_Nov_13_1540,59.9892257552,chinese_cond1,001,1009,
images/sock03.jpg,sock,z,sounds/greatgatsby_english.wav,,,,,,,,,0,0,0,0,0,143,143,90,470.123975461,8.98016151041e-06,471.290605031,1.16663983313,,,,z,1,1.1505188602,2018_Nov_13_1540,59.9892257552,chinese_cond1,001,1009,
images/parkbench03.jpg,park bench,z,sounds/greatgatsby_english.wav,,,,,,,,,0,0,0,0,0,144,144,71,472.436242859,9.30088572204e-06,474.107975079,1.67174184124,,,,z,1,1.65065131744,2018_Nov_13_1540,59.9892257552,chinese_cond1,001,1009,
images/camera01a.jpg,bull,x,sounds/greatgatsby_english.wav,,,,,,,,,0,0,0,0,0,145,145,138,475.290748393,9.30088572204e-06,477.142054107,1.85131565621,,,,x,1,1.8340314331,2018_Nov_13_1540,59.9892257552,chinese_cond1,001,1009,
images/mitten01.jpg,mitten,z,sounds/greatgatsby_english.wav,,,,,,,,,0,0,0,0,0,146,146,102,478.327800492,8.98016151041e-06,481.326260717,2.99847080873,,,,None,0,,2018_Nov_13_1540,59.9892257552,chinese_cond1,001,1009,
images/coffeepot03b.jpg,coffee pot,z,sounds/greatgatsby_english.wav,,,,,,,,,0,0,0,0,0,147,147,107,482.522539856,8.98016151041e-06,483.560301387,1.03777083172,,,,z,1,1.0171533695,2018_Nov_13_1540,59.9892257552,chinese_cond1,001,1009,
images/safe.jpg,safe,z,sounds/greatgatsby_english.wav,,,,,,,,,0,0,0,0,0,148,148,78,484.734338939,8.65943729877e-06,485.910884198,1.17655520164,,,,z,1,1.16720013029,2018_Nov_13_1540,59.9892257552,chinese_cond1,001,1009,
images/magnifyingglass01b.jpg,magnifying glass,z,sounds/greatgatsby_english.wav,,,,,,,,,0,0,0,0,0,149,149,64,487.05886328,9.30088572204e-06,489.278384009,2.21953099244,,,,z,1,2.2007778734,2018_Nov_13_1540,59.9892257552,chinese_cond1,001,1009,
images/gluestick.jpg,squirrel,x,sounds/greatgatsby_english.wav,,,,,,,,,0,0,0,0,0,150,150,226,490.464974849,8.98016151041e-06,491.528936288,1.06397106079,,,,x,1,1.05050692952,2018_Nov_13_1540,59.9892257552,chinese_cond1,001,1009,
images/lion.jpg,lion,z,sounds/greatgatsby_english.wav,,,,,,,,,0,0,0,0,0,151,151,44,492.683672612,8.98016151041e-06,493.762818202,1.07915521157,,,,z,1,1.06717344653,2018_Nov_13_1540,59.9892257552,chinese_cond1,001,1009,
images/dryingmachine01.jpg,drying machine,z,sounds/greatgatsby_english.wav,,,,,,,,,0,0,0,0,0,152,152,18,494.923181552,9.30088572204e-06,495.93002186,1.00684993016,,,,z,1,0.983817448956,2018_Nov_13_1540,59.9892257552,chinese_cond1,001,1009,
images/calculator02b.jpg,dice,x,sounds/greatgatsby_english.wav,,,,,,,,,0,0,0,0,0,153,153,165,497.065057338,9.62160993367e-06,498.413962786,1.34891603177,,,,z,0,1.3339063524,2018_Nov_13_1540,59.9892257552,chinese_cond1,001,1009,
images/table02.jpg,table,z,sounds/greatgatsby_english.wav,,,,,,,,,0,0,0,0,0,154,154,49,499.563914614,8.98016151041e-06,500.497804995,0.933899360709,,,,z,1,0.917127968511,2018_Nov_13_1540,59.9892257552,chinese_cond1,001,1009,
images/mailbox01.jpg,mail box,z,sounds/greatgatsby_english.wav,,,,,,,,,0,0,0,0,0,155,155,73,501.714658299,8.65943729877e-06,503.081780302,1.3671316246,,,,z,1,1.35033393325,2018_Nov_13_1540,59.9892257552,chinese_cond1,001,1009,
images/swan.jpg,swan,z,sounds/greatgatsby_english.wav,,,,,,,,,0,0,0,0,0,156,156,54,504.211661495,9.94221772999e-06,505.732438996,1.52078808506,,,,z,1,1.50061225379,2018_Nov_13_1540,59.9892257552,chinese_cond1,001,1009,
images/diploma01.jpg,glasses,x,sounds/greatgatsby_english.wav,,,,,,,,,0,0,0,0,0,157,157,179,506.928354439,8.98004509509e-06,508.083011545,1.15466736874,,,,x,1,1.13384881534,2018_Nov_13_1540,59.9892257552,chinese_cond1,001,1009,
images/globe.jpg,cloud,x,sounds/greatgatsby_english.wav,,,,,,,,,0,0,0,0,0,158,158,154,509.245846681,8.98016151041e-06,510.133525209,0.887688150164,,,,x,1,0.867125851684,2018_Nov_13_1540,59.9892257552,chinese_cond1,001,1009,
images/lettuce.jpg,mushroom,x,sounds/greatgatsby_english.wav,,,,,,,,,0,0,0,0,0,159,159,205,511.325969824,9.30088572204e-06,512.334077937,1.00811773492,,,,x,1,0.983827070449,2018_Nov_13_1540,59.9892257552,chinese_cond1,001,1009,
images/elbow.jpg,elbow,z,sounds/greatgatsby_english.wav,,,,,,,,,0,0,0,0,0,160,160,105,513.522943321,8.98016151041e-06,514.918044906,1.39511152706,,,,z,1,1.38392226014,2018_Nov_13_1540,59.9892257552,chinese_cond1,001,1009,
images/gamecontroller01.jpg,game controller,z,sounds/greatgatsby_english.wav,,,,,,,,,0,0,0,0,0,161,161,112,516.129177534,9.30088572204e-06,517.901939007,1.77277109469,,,,z,1,1.75050898211,2018_Nov_13_1540,59.9892257552,chinese_cond1,001,1009,
images/hairband.jpg,hairband,z,sounds/greatgatsby_english.wav,,,,,,,,,0,0,0,0,0,162,162,66,519.093687019,9.62149351835e-06,520.469408798,1.37573204248,,,,z,1,1.36725253589,2018_Nov_13_1540,59.9892257552,chinese_cond1,001,1009,
images/lamp04b.jpg,parking meter,x,sounds/greatgatsby_english.wav,,,,,,,,,0,0,0,0,0,163,163,209,521.684018989,9.62149351835e-06,523.470489944,1.78648121795,,,,x,1,1.76768865052,2018_Nov_13_1540,59.9892257552,chinese_cond1,001,1009,
images/scooter.jpg,pen,x,sounds/greatgatsby_english.wav,,,,,,,,,0,0,0,0,0,164,164,212,524.628328268,9.94233414531e-06,525.487304954,0.858986949315,,,,x,1,0.850404812256,2018_Nov_13_1540,59.9892257552,chinese_cond1,001,1009,
images/key03b.jpg,cigar,x,sounds/greatgatsby_english.wav,,,,,,,,,0,0,0,0,0,165,165,153,526.653297575,8.98016151041e-06,527.587830357,0.934542724397,,,,x,1,0.91713726928,2018_Nov_13_1540,59.9892257552,chinese_cond1,001,1009,
images/hairdryer03a.jpg,hairdryer,z,sounds/greatgatsby_english.wav,,,,,,,,,0,0,0,0,0,166,166,119,528.759579896,8.65943729877e-06,530.03867013,1.27912487148,,,,z,1,1.26743047114,2018_Nov_13_1540,59.9892257552,chinese_cond1,001,1009,
images/rhinoceros01.jpg,envelope,x,sounds/greatgatsby_english.wav,,,,,,,,,0,0,0,0,0,167,167,173,531.190513241,8.98016151041e-06,532.522383024,1.33187940426,,,,x,1,1.31724047696,2018_Nov_13_1540,59.9892257552,chinese_cond1,001,1009,
images/lightswitch02a.jpg,fork,x,sounds/greatgatsby_english.wav,,,,,,,,,0,0,0,0,0,168,168,177,533.679663616,9.30088572204e-06,534.656231198,0.976577844471,,,,x,1,0.967132971738,2018_Nov_13_1540,59.9892257552,chinese_cond1,001,1009,
images/pictureframe04.jpg,picture frame,z,sounds/greatgatsby_english.wav,,,,,,,,,0,0,0,0,0,169,169,41,535.846294149,8.98016151041e-06,537.473589699,1.6273051725,,,,z,1,1.6172990402,2018_Nov_13_1540,59.9892257552,chinese_cond1,001,1009,
images/tape01a.jpg,tie,x,sounds/greatgatsby_english.wav,,,,,,,,,0,0,0,0,0,170,170,232,538.677311138,8.98016151041e-06,540.157598105,1.48029690946,,,,z,0,1.467269919,2018_Nov_13_1540,59.9892257552,chinese_cond1,001,1009,
images/hammer02a.jpg,flower,x,sounds/greatgatsby_english.wav,,,,,,,,,0,0,0,0,0,171,171,176,541.319787953,8.98016151041e-06,542.374809653,1.0550316422,,,,x,1,1.03383592237,2018_Nov_13_1540,59.9892257552,chinese_cond1,001,1009,
images/honeycomb.jpg,honey comb,z,sounds/greatgatsby_english.wav,,,,,,,,,0,0,0,0,0,172,172,59,543.553823171,8.98016151041e-06,545.242201702,1.68838815286,,,,z,1,1.66733162536,2018_Nov_13_1540,59.9892257552,chinese_cond1,001,1009,
images/cocktailshrimp01.jpg,cocktail shrimp,z,sounds/greatgatsby_english.wav,,,,,,,,,0,0,0,0,0,173,173,30,546.434577362,9.30088572204e-06,547.875999523,1.4414327445,,,,z,1,1.41709301004,2018_Nov_13_1540,59.9892257552,chinese_cond1,001,1009,
images/cola.jpg,comb,x,sounds/greatgatsby_english.wav,,,,,,,,,0,0,0,0,0,174,174,157,549.068523676,9.30088572204e-06,550.560161553,1.49164717761,,,,x,1,1.46726607031,2018_Nov_13_1540,59.9892257552,chinese_cond1,001,1009,
images/blackolive.jpg,tank,x,sounds/greatgatsby_english.wav,,,,,,,,,0,0,0,0,0,175,175,229,551.7016188,8.98016151041e-06,552.977665405,1.27605654672,,,,x,1,1.26746895758,2018_Nov_13_1540,59.9892257552,chinese_cond1,001,1009,
images/gorilla.jpg,gorilla,z,sounds/greatgatsby_english.wav,,,,,,,,,0,0,0,0,0,176,176,80,554.150298847,8.98016151041e-06,555.094611333,0.944322107709,,,,z,1,0.933805389912,2018_Nov_13_1540,59.9892257552,chinese_cond1,001,1009,
images/giraffe.jpg,lettuce,x,sounds/greatgatsby_english.wav,,,,,,,,,0,0,0,0,0,177,177,195,556.312517239,8.65943729877e-06,557.345163933,1.0326563156,,,,x,1,1.01715529372,2018_Nov_13_1540,59.9892257552,chinese_cond1,001,1009,
images/doll.jpg,carrot,x,sounds/greatgatsby_english.wav,,,,,,,,,0,0,0,0,0,178,178,146,558.525270784,9.30088572204e-06,559.512370157,0.987109315349,,,,x,1,0.967145159026,2018_Nov_13_1540,59.9892257552,chinese_cond1,001,1009,
images/bowl02b (1).jpg,bowl,z,sounds/greatgatsby_english.wav,,,,,,,,,0,0,0,0,0,179,179,24,560.716297497,9.94233414531e-06,561.679572532,0.963285298087,,,,z,1,0.95048056636,2018_Nov_13_1540,59.9892257552,chinese_cond1,001,1009,
images/electrictoothbrush01a.jpg,banjo,x,sounds/greatgatsby_english.wav,,,,,,,,,0,0,0,0,0,180,180,127,562.853901619,9.94233414531e-06,563.746992933,0.893100614892,,,,x,1,0.884045737213,2018_Nov_13_1540,59.9892257552,chinese_cond1,001,1009,
,,,sounds/greatgatsby_english.wav,,,,,,,,,0,0,0,0,,,,,,,,,,,,,,,2018_Nov_13_1540,59.9892257552,chinese_cond1,001,1009,
images/battery03b.jpg,battery,z,sounds/animalfarm_chinese.wav,,,,,,,,,0,1,1,1,0,0,0,34,584.883495382,9.30088572204e-06,586.469039008,1.58555421,,,574.749611929,z,1,1.56731135584,2018_Nov_13_1540,59.9892257552,chinese_cond1,001,1009,
images/teapot.jpg,light switch,x,sounds/animalfarm_chinese.wav,,,,,,,,,0,1,1,1,0,1,1,197,587.585180251,9.30088572204e-06,588.919624771,1.33445478301,,,,x,1,1.31723470392,2018_Nov_13_1540,59.9892257552,chinese_cond1,001,1009,
images/straw.jpg,straw,z,sounds/animalfarm_chinese.wav,,,,,,,,,0,1,1,1,0,2,2,109,590.010242823,9.62160993367e-06,590.970129776,0.959896574263,,,,z,1,0.950485697831,2018_Nov_13_1540,59.9892257552,chinese_cond1,001,1009,
images/bandaid01.jpg,door handle,x,sounds/animalfarm_chinese.wav,,,,,,,,,0,1,1,1,0,3,3,170,592.075032361,9.30088572204e-06,593.687468329,1.61244591058,,,,x,1,1.60064374853,2018_Nov_13_1540,59.9892257552,chinese_cond1,001,1009,
images/snowman.jpg,globe,x,sounds/animalfarm_chinese.wav,,,,,,,,,0,1,1,1,0,4,4,180,594.797589343,8.98016151041e-06,596.054946331,1.2573662888,,,,x,1,1.23410802102,2018_Nov_13_1540,59.9892257552,chinese_cond1,001,1009,
images/barrel01.jpg,barrel,z,sounds/animalfarm_chinese.wav,,,,,,,,,0,1,1,1,0,5,5,9,597.184156899,9.62149351835e-06,599.288672054,2.10452509753,,,,z,1,2.08361225249,2018_Nov_13_1540,59.9892257552,chinese_cond1,001,1009,
images/lighter02b.jpg,stapler,x,sounds/animalfarm_chinese.wav,,,,,,,,,0,1,1,1,0,6,6,227,600.469551519,9.30088572204e-06,602.723024912,2.25348365679,,,,z,0,2.23412373627,2018_Nov_13_1540,59.9892257552,chinese_cond1,001,1009,
images/lock02a.jpg,lock,z,sounds/animalfarm_chinese.wav,,,,,,,,,0,1,1,1,0,7,7,65,603.833435536,9.94233414531e-06,604.723529404,0.890104451915,,,,z,1,0.86712553096,2018_Nov_13_1540,59.9892257552,chinese_cond1,001,1009,
images/highheelshoe02a.jpg,high heel shoe,z,sounds/animalfarm_chinese.wav,,,,,,,,,0,1,1,1,0,8,8,75,605.905359803,8.98016151041e-06,608.007667445,2.10231758433,,,,z,1,2.08401058626,2018_Nov_13_1540,59.9892257552,chinese_cond1,001,1009,
images/candy.jpg,candy,z,sounds/animalfarm_chinese.wav,,,,,,,,,0,1,1,1,0,9,9,31,609.108872452,9.30076930672e-06,610.074846023,0.965983512346,,,,z,1,0.9503817847,2018_Nov_13_1540,59.9892257552,chinese_cond1,001,1009,
images/dresser02.jpg,dresser,z,sounds/animalfarm_chinese.wav,,,,,,,,,0,1,1,1,0,10,10,87,611.196316022,9.62160993367e-06,612.725492529,1.52918677044,,,,z,1,1.51728133659,2018_Nov_13_1540,59.9892257552,chinese_cond1,001,1009,
images/panda.jpg,panda,z,sounds/animalfarm_chinese.wav,,,,,,,,,0,1,1,1,0,11,11,83,613.834237335,8.98004509509e-06,614.959381178,1.12515346427,,,,z,1,1.11719224066,2018_Nov_13_1540,59.9892257552,chinese_cond1,001,1009,
images/treadmill.jpg,lily,x,sounds/animalfarm_chinese.wav,,,,,,,,,0,1,1,1,0,12,12,199,616.158341854,8.65943729877e-06,617.376639358,1.21830712631,,,,x,1,1.20053893724,2018_Nov_13_1540,59.9892257552,chinese_cond1,001,1009,
images/bed.jpg,bed,z,sounds/animalfarm_chinese.wav,,,,,,,,,0,1,1,1,0,13,13,103,618.55673306,9.94233414531e-06,619.627190034,1.0704678786,,,,z,1,1.05048127193,2018_Nov_13_1540,59.9892257552,chinese_cond1,001,1009,
images/paintbrush03a.jpg,paint brush,z,sounds/animalfarm_chinese.wav,,,,,,,,,0,1,1,1,0,14,14,0,620.727321273,8.98004509509e-06,621.994445457,1.26713380544,,,,z,1,1.25055227929,2018_Nov_13_1540,59.9892257552,chinese_cond1,001,1009,
images/scissors04a.jpg,leek,x,sounds/animalfarm_chinese.wav,,,,,,,,,0,1,1,1,0,15,15,194,623.088111308,8.98016151041e-06,624.128309025,1.04020701803,,,,x,1,1.01716138737,2018_Nov_13_1540,59.9892257552,chinese_cond1,001,1009,
images/aquarium.jpg,computer mouse,x,sounds/animalfarm_chinese.wav,,,,,,,,,0,1,1,1,0,16,16,159,625.263530841,9.30088572204e-06,626.478904024,1.21538344608,,,,x,1,1.20055401104,2018_Nov_13_1540,59.9892257552,chinese_cond1,001,1009,
images/hanger02a.jpg,hanger,z,sounds/animalfarm_chinese.wav,,,,,,,,,0,1,1,1,0,17,17,88,627.572032028,8.98016151041e-06,629.113143476,1.54112106911,,,,z,1,1.51755907969,2018_Nov_13_1540,59.9892257552,chinese_cond1,001,1009,
images/apricot.jpg,apricot,z,sounds/animalfarm_chinese.wav,,,,,,,,,0,1,1,1,0,18,18,32,630.228028459,8.98016151041e-06,631.89694893,1.6689310543,,,,x,0,1.65071097133,2018_Nov_13_1540,59.9892257552,chinese_cond1,001,1009,
images/flamingo.jpg,flamingo,z,sounds/animalfarm_chinese.wav,,,,,,,,,0,1,1,1,0,19,19,52,632.994559953,9.30088572204e-06,634.014081517,1.01953150565,,,,z,1,1.00049358746,2018_Nov_13_1540,59.9892257552,chinese_cond1,001,1009,
images/flipflop01b.jpg,flip flop,z,sounds/animalfarm_chinese.wav,,,,,,,,,0,1,1,1,0,20,20,27,635.130942775,9.30088572204e-06,635.947879851,0.816947339103,,,,z,1,0.800432201824,2018_Nov_13_1540,59.9892257552,chinese_cond1,001,1009,
images/ear.jpg,bullet,x,sounds/animalfarm_chinese.wav,,,,,,,,,0,1,1,1,0,21,21,139,637.116281718,9.94233414531e-06,638.065072412,0.948801598977,,,,x,1,0.933800899889,2018_Nov_13_1540,59.9892257552,chinese_cond1,001,1009,
images/screw03c.jpg,screw,z,sounds/animalfarm_chinese.wav,,,,,,,,,0,1,1,1,0,22,22,84,639.157373601,8.98016151041e-06,640.032231362,0.874867061735,,,,z,1,0.850450033788,2018_Nov_13_1540,59.9892257552,chinese_cond1,001,1009,
images/beermug01b.jpg,beer mug,z,sounds/animalfarm_chinese.wav,,,,,,,,,0,1,1,1,0,23,23,111,641.22710639,8.98016151041e-06,642.466153815,1.2390573665,,,,z,1,1.21719583264,2018_Nov_13_1540,59.9892257552,chinese_cond1,001,1009,
images/graduationcap.jpg,graduation cap,z,sounds/animalfarm_chinese.wav,,,,,,,,,0,1,1,1,0,24,24,35,643.593665851,8.98016151041e-06,644.566675048,0.973018818535,,,,z,1,0.950467416784,2018_Nov_13_1540,59.9892257552,chinese_cond1,001,1009,
images/fork01.jpg,cooking pot,x,sounds/animalfarm_chinese.wav,,,,,,,,,0,1,1,1,0,25,25,160,645.660404402,8.98016151041e-06,647.417375885,1.75698078377,,,,x,1,1.73399608978,2018_Nov_13_1540,59.9892257552,chinese_cond1,001,1009,
images/cockroach02.jpg,belt,x,sounds/animalfarm_chinese.wav,,,,,,,,,0,1,1,1,0,26,26,129,648.516051697,8.98016151041e-06,649.96801014,1.45196838479,,,,x,1,1.43392437685,2018_Nov_13_1540,59.9892257552,chinese_cond1,001,1009,
images/marker01a.jpg,marker,z,sounds/animalfarm_chinese.wav,,,,,,,,,0,1,1,1,0,27,27,95,651.129133595,9.30088572204e-06,652.068534581,0.939411248546,,,,z,1,0.917126685497,2018_Nov_13_1540,59.9892257552,chinese_cond1,001,1009,
images/medal01.jpg,medal,z,sounds/animalfarm_chinese.wav,,,,,,,,,0,1,1,1,0,28,28,115,653.167990063,9.30076930672e-06,654.085688912,0.917708791676,,,,z,1,0.900454074843,2018_Nov_13_1540,59.9892257552,chinese_cond1,001,1009,
images/doll.jpg,carrot,x,sounds/animalfarm_chinese.wav,,,,,,,,,0,1,1,1,0,29,29,146,655.195362522,9.30088572204e-06,656.569637856,1.37428527628,,,,x,1,1.35057511448,2018_Nov_13_1540,59.9892257552,chinese_cond1,001,1009,
images/nailpolish02b.jpg,nail polish,z,sounds/animalfarm_chinese.wav,,,,,,,,,0,1,1,1,0,30,30,94,657.678010307,8.98016151041e-06,658.570139141,0.892138135154,,,,z,1,0.883804876823,2018_Nov_13_1540,59.9892257552,chinese_cond1,001,1009,
images/candycane01a.jpg,lip,x,sounds/animalfarm_chinese.wav,,,,,,,,,0,1,1,1,0,31,31,200,659.663135971,9.62149351835e-06,660.453924454,0.790798745817,,,,x,1,0.767090187641,2018_Nov_13_1540,59.9892257552,chinese_cond1,001,1009,
images/fireextinguisher02.jpg,fire extinguisher,z,sounds/animalfarm_chinese.wav,,,,,,,,,0,1,1,1,0,32,32,175,661.562753609,9.30088572204e-06,662.454426701,0.891683354741,,,,z,1,0.883556960383,2018_Nov_13_1540,59.9892257552,chinese_cond1,001,1009,
images/highlighter03b.jpg,coin,x,sounds/animalfarm_chinese.wav,,,,,,,,,0,1,1,1,0,33,33,156,663.554675964,9.62160993367e-06,664.521601751,0.966935408418,,,,x,1,0.950391726918,2018_Nov_13_1540,59.9892257552,chinese_cond1,001,1009,
images/feather03b.jpg,feather,z,sounds/animalfarm_chinese.wav,,,,,,,,,0,1,1,1,0,34,34,114,665.639253583,9.30076930672e-06,666.488761022,0.8495180225,,,,z,1,0.833785120398,2018_Nov_13_1540,59.9892257552,chinese_cond1,001,1009,
images/cauliflower01.jpg,glue stick,x,sounds/animalfarm_chinese.wav,,,,,,,,,0,1,1,1,0,35,35,181,667.602965759,9.62160993367e-06,668.722644859,1.11968904315,,,,x,1,1.1005154606,2018_Nov_13_1540,59.9892257552,chinese_cond1,001,1009,
images/ruler02b.jpg,watermelon,x,sounds/animalfarm_chinese.wav,,,,,,,,,0,1,1,1,0,36,36,238,669.901251705,9.30076930672e-06,670.956525169,1.05528565205,,,,x,1,1.03383207379,2018_Nov_13_1540,59.9892257552,chinese_cond1,001,1009,
images/diaper01a.jpg,camera,x,sounds/animalfarm_chinese.wav,,,,,,,,,0,1,1,1,0,37,37,143,672.114881456,8.98016151041e-06,673.223753587,1.10888207401,,,,x,1,1.10052347858,2018_Nov_13_1540,59.9892257552,chinese_cond1,001,1009,
images/broadsword.jpg,teapot,x,sounds/animalfarm_chinese.wav,,,,,,,,,0,1,1,1,0,38,38,231,674.315078827,8.65943729877e-06,675.174226136,0.859156609862,,,,x,1,0.850447467994,2018_Nov_13_1540,59.9892257552,chinese_cond1,001,1009,
images/toucan.jpg,toucan,z,sounds/animalfarm_chinese.wav,,,,,,,,,0,1,1,1,0,39,39,81,676.35439232,8.98016151041e-06,677.67484288,1.32046050206,,,,z,1,1.30055952759,2018_Nov_13_1540,59.9892257552,chinese_cond1,001,1009,
images/lettuce.jpg,mushroom,x,sounds/animalfarm_chinese.wav,,,,,,,,,0,1,1,1,0,40,40,205,678.79641615,8.65943729877e-06,679.892064049,1.09565784084,,,,x,1,1.0838354734,2018_Nov_13_1540,59.9892257552,chinese_cond1,001,1009,
images/plant01.jpg,plant,z,sounds/animalfarm_chinese.wav,,,,,,,,,0,1,1,1,0,41,41,47,681.003583721,9.30088572204e-06,681.875877329,0.872303549666,,,,z,1,0.850448109442,2018_Nov_13_1540,59.9892257552,chinese_cond1,001,1009,
images/leaf01a.jpg,leaf,z,sounds/animalfarm_chinese.wav,,,,,,,,,0,1,1,1,0,42,42,68,682.978689142,4.07313928008e-05,684.143109916,1.16445477016,,,,z,1,1.15052527457,2018_Nov_13_1540,59.9892257552,chinese_cond1,001,1009,
images/volleyball.jpg,volley ball,z,sounds/animalfarm_chinese.wav,,,,,,,,,0,1,1,1,0,43,43,2,685.275389771,8.98016151041e-06,687.010481118,1.73510096897,,,,z,1,1.71732957277,2018_Nov_13_1540,59.9892257552,chinese_cond1,001,1009,
images/lightswitch02a.jpg,fork,x,sounds/animalfarm_chinese.wav,,,,,,,,,0,1,1,1,0,44,44,177,688.120272432,8.98016151041e-06,689.060987085,0.94072459545,,,,x,1,0.917136948672,2018_Nov_13_1540,59.9892257552,chinese_cond1,001,1009,
images/mushroom01.jpg,shower head,x,sounds/animalfarm_chinese.wav,,,,,,,,,0,1,1,1,0,45,45,222,690.248532066,8.98016151041e-06,691.594958031,1.34643590683,,,,x,1,1.33391148387,2018_Nov_13_1540,59.9892257552,chinese_cond1,001,1009,
images/binder03b.jpg,dj mixer,x,sounds/animalfarm_chinese.wav,,,,,,,,,0,1,1,1,0,46,46,167,692.744140452,8.65943729877e-06,694.128910054,1.38477890228,,,,x,1,1.36725029082,2018_Nov_13_1540,59.9892257552,chinese_cond1,001,1009,
images/thumbtack02a.jpg,thumb tack,z,sounds/animalfarm_chinese.wav,,,,,,,,,0,1,1,1,0,47,47,60,695.307682711,8.98016151041e-06,697.129643539,1.8219701295,,,,x,0,1.80062687863,2018_Nov_13_1540,59.9892257552,chinese_cond1,001,1009,
images/pouch01b.jpg,pouch,z,sounds/animalfarm_chinese.wav,,,,,,,,,0,1,1,1,0,48,48,25,698.240100026,8.65943729877e-06,699.413539757,1.17344935262,,,,z,1,1.150521426,2018_Nov_13_1540,59.9892257552,chinese_cond1,001,1009,
images/worldmap.jpg,scooter,x,sounds/animalfarm_chinese.wav,,,,,,,,,0,1,1,1,0,49,49,220,700.542608888,8.65943729877e-06,701.364026096,0.821426509647,,,,x,1,0.800443747663,2018_Nov_13_1540,59.9892257552,chinese_cond1,001,1009,
images/cigar.jpg,crocodile,x,sounds/animalfarm_chinese.wav,,,,,,,,,0,1,1,1,0,50,50,162,702.461945331,8.65943729877e-06,703.4978964,1.03596069,,,,x,1,1.01717902708,2018_Nov_13_1540,59.9892257552,chinese_cond1,001,1009,
images/bicycle.jpg,hand bag,x,sounds/animalfarm_chinese.wav,,,,,,,,,0,1,1,1,0,51,51,186,704.634664405,9.30088572204e-06,705.748502881,1.11384809692,,,,x,1,1.10057575582,2018_Nov_13_1540,59.9892257552,chinese_cond1,001,1009,
images/shotglass.jpg,shot glass,z,sounds/animalfarm_chinese.wav,,,,,,,,,0,1,1,1,0,52,52,86,706.855476031,8.98016151041e-06,708.082338354,1.22687162366,,,,z,1,1.21718749392,2018_Nov_13_1540,59.9892257552,chinese_cond1,001,1009,
images/lychee02a.jpg,lychee,z,sounds/animalfarm_chinese.wav,,,,,,,,,0,1,1,1,0,53,53,62,709.204520992,8.98016151041e-06,710.21620962,1.01170081482,,,,z,1,1.00049551192,2018_Nov_13_1540,59.9892257552,chinese_cond1,001,1009,
images/tissuebox03.jpg,tissue box,z,sounds/animalfarm_chinese.wav,,,,,,,,,0,1,1,1,0,54,54,58,711.341083417,9.30088572204e-06,712.433439128,1.09236629517,,,,z,1,1.08387139405,2018_Nov_13_1540,59.9892257552,chinese_cond1,001,1009,
images/lightbulb03b.jpg,treadmill,x,sounds/animalfarm_chinese.wav,,,,,,,,,0,1,1,1,0,55,55,234,713.535991158,9.30088572204e-06,714.567271266,1.03128940845,,,,x,1,1.01715561457,2018_Nov_13_1540,59.9892257552,chinese_cond1,001,1009,
images/doorhandle.jpg,doll,x,sounds/animalfarm_chinese.wav,,,,,,,,,0,1,1,1,0,56,56,168,715.668569283,8.98016151041e-06,716.601109113,0.932549451711,,,,x,1,0.917136307224,2018_Nov_13_1540,59.9892257552,chinese_cond1,001,1009,
images/apple06.jpg,apple,z,sounds/animalfarm_chinese.wav,,,,,,,,,0,1,1,1,0,57,57,13,717.793463285,9.94233414531e-06,718.618278518,0.824825817253,,,,z,1,0.800440861261,2018_Nov_13_1540,59.9892257552,chinese_cond1,001,1009,
images/charcoalbarbecue.jpg,charcoal barbecue,z,sounds/animalfarm_chinese.wav,,,,,,,,,0,1,1,1,0,58,58,77,719.734052216,8.98016151041e-06,721.135554402,1.40151148755,,,,z,1,1.38390237547,2018_Nov_13_1540,59.9892257552,chinese_cond1,001,1009,
images/banjo.jpg,knife,x,sounds/animalfarm_chinese.wav,,,,,,,,,0,1,1,1,0,59,59,191,722.230812947,9.30088572204e-06,723.702863193,1.4720601876,,,,x,1,1.4505982704,2018_Nov_13_1540,59.9892257552,chinese_cond1,001,1009,
images/envelope02a.jpg,grand piano,x,sounds/animalfarm_chinese.wav,,,,,,,,,0,1,1,1,0,60,60,182,724.826117676,9.62160993367e-06,726.436875318,1.61076790548,,,,x,1,1.60063637188,2018_Nov_13_1540,59.9892257552,chinese_cond1,001,1009,
images/pen03c.jpg,pepper,x,sounds/animalfarm_chinese.wav,,,,,,,,,0,1,1,1,0,61,61,211,727.600700516,9.30088572204e-06,728.504056783,0.903366529965,,,,x,1,0.88380006596,2018_Nov_13_1540,59.9892257552,chinese_cond1,001,1009,
images/radish01.jpg,raisin,x,sounds/animalfarm_chinese.wav,,,,,,,,,0,1,1,1,0,62,62,214,729.615211155,8.98016151041e-06,731.121365124,1.50616391085,,,,z,0,1.48394252954,2018_Nov_13_1540,59.9892257552,chinese_cond1,001,1009,
images/computermouse02a.jpg,world map,x,sounds/animalfarm_chinese.wav,,,,,,,,,0,1,1,1,0,63,63,239,732.223429981,8.98016151041e-06,733.205212143,0.981792104314,,,,x,1,0.967150290497,2018_Nov_13_1540,59.9892257552,chinese_cond1,001,1009,
images/ceilingfan02.jpg,paper clip,x,sounds/animalfarm_chinese.wav,,,,,,,,,0,1,1,1,0,64,64,208,734.378451104,9.30088572204e-06,735.455601497,1.07716065622,,,,x,1,1.06700442731,2018_Nov_13_1540,59.9892257552,chinese_cond1,001,1009,
images/comb02a.jpg,diploma,x,sounds/animalfarm_chinese.wav,,,,,,,,,0,1,1,1,0,65,65,166,736.558329923,9.30088572204e-06,737.456502719,0.89818273834,,,,x,1,0.88404092635,2018_Nov_13_1540,59.9892257552,chinese_cond1,001,1009,
images/lip.jpg,boxing glove,x,sounds/animalfarm_chinese.wav,,,,,,,,,0,1,1,1,0,66,66,136,738.557823186,9.62160993367e-06,739.473416832,0.915604229434,,,,x,1,0.900453433511,2018_Nov_13_1540,59.9892257552,chinese_cond1,001,1009,
images/saltshaker03c.jpg,salt shaker,z,sounds/animalfarm_chinese.wav,,,,,,,,,0,1,1,1,0,67,67,63,740.584972425,9.30088572204e-06,741.473914268,0.888951785513,,,,z,1,0.867120720213,2018_Nov_13_1540,59.9892257552,chinese_cond1,001,1009,
images/puma.jpg,puma,z,sounds/animalfarm_chinese.wav,,,,,,,,,0,1,1,1,0,68,68,4,742.571354989,9.30088572204e-06,743.591113885,1.01976883807,,,,z,1,1.00050064339,2018_Nov_13_1540,59.9892257552,chinese_cond1,001,1009,
images/rubberglove02a.jpg,lady bug,x,sounds/animalfarm_chinese.wav,,,,,,,,,0,1,1,1,0,69,69,192,744.696060729,9.62160993367e-06,745.691613951,0.995563485194,,,,x,1,0.983810713864,2018_Nov_13_1540,59.9892257552,chinese_cond1,001,1009,
images/cheetah.jpg,cheetah,z,sounds/animalfarm_chinese.wav,,,,,,,,,0,1,1,1,0,70,70,82,746.792861615,8.65943729877e-06,747.842160073,1.04930807941,,,,z,1,1.03383239452,2018_Nov_13_1540,59.9892257552,chinese_cond1,001,1009,
images/corkscrew02a.jpg,masquerade mask,x,sounds/animalfarm_chinese.wav,,,,,,,,,0,1,1,1,0,71,71,201,748.946425708,9.30076930672e-06,750.542812545,1.59639709967,,,,x,1,1.58395478106,2018_Nov_13_1540,59.9892257552,chinese_cond1,001,1009,
images/cocktailshrimp01.jpg,cocktail shrimp,z,sounds/animalfarm_chinese.wav,,,,,,,,,0,1,1,1,0,72,72,30,751.656038766,8.98016151041e-06,752.776705042,1.12067589734,,,,z,1,1.10050199041,2018_Nov_13_1540,59.9892257552,chinese_cond1,001,1009,
images/tank.jpg,wallet,x,sounds/animalfarm_chinese.wav,,,,,,,,,0,1,1,1,0,73,73,237,753.879762206,8.65943729877e-06,754.710345261,0.830592997721,,,,x,1,0.816933548194,2018_Nov_13_1540,59.9892257552,chinese_cond1,001,1009,
images/flower01.jpg,bus,x,sounds/animalfarm_chinese.wav,,,,,,,,,0,1,1,1,0,74,74,140,755.822825168,9.30088572204e-06,756.694342313,0.871527087293,,,,x,1,0.850451637409,2018_Nov_13_1540,59.9892257552,chinese_cond1,001,1009,
images/baseball01a.jpg,baseball,z,sounds/animalfarm_chinese.wav,,,,,,,,,0,1,1,1,0,75,75,74,757.825843461,9.30076930672e-06,758.87803513,1.05220193276,,,,z,1,1.03363771772,2018_Nov_13_1540,59.9892257552,chinese_cond1,001,1009,
images/hand01a.jpg,cupcake,x,sounds/animalfarm_chinese.wav,,,,,,,,,0,1,1,1,0,76,76,163,759.988308165,9.30088572204e-06,760.895367141,0.907068917528,,,,x,1,0.883786595776,2018_Nov_13_1540,59.9892257552,chinese_cond1,001,1009,
images/birthdaycandle.jpg,birthday candle,z,sounds/animalfarm_chinese.wav,,,,,,,,,0,1,1,1,0,77,77,55,761.992257507,8.98016151041e-06,762.862536033,0.870288468082,,,,z,1,0.850461259019,2018_Nov_13_1540,59.9892257552,chinese_cond1,001,1009,
images/swan.jpg,swan,z,sounds/animalfarm_chinese.wav,,,,,,,,,0,1,1,1,0,78,78,54,763.9534995,8.98016151041e-06,764.746312686,0.792822486837,,,,z,1,0.783750931616,2018_Nov_13_1540,59.9892257552,chinese_cond1,001,1009,
images/basketball01.jpg,basket ball,z,sounds/animalfarm_chinese.wav,,,,,,,,,0,1,1,1,0,79,79,33,765.962352966,9.30088572204e-06,767.163593317,1.20125125558,,,,z,1,1.18387306179,2018_Nov_13_1540,59.9892257552,chinese_cond1,001,1009,
images/ashtray02b.jpg,ashtray,z,sounds/animalfarm_chinese.wav,,,,,,,,,0,1,1,1,0,80,80,43,768.301835992,8.98016151041e-06,769.530830779,1.22900537145,,,,z,1,1.21679942321,2018_Nov_13_1540,59.9892257552,chinese_cond1,001,1009,
images/tape01a.jpg,tie,x,sounds/animalfarm_chinese.wav,,,,,,,,,0,1,1,1,0,81,81,232,770.656265194,9.30088572204e-06,772.048120455,1.39186552353,,,,z,0,1.38373592205,2018_Nov_13_1540,59.9892257552,chinese_cond1,001,1009,
images/50dollarbill.jpg,cherry,x,sounds/animalfarm_chinese.wav,,,,,,,,,0,1,1,1,0,82,82,151,773.232472351,9.94233414531e-06,774.398707436,1.16624534805,,,,x,1,1.150521426,2018_Nov_13_1540,59.9892257552,chinese_cond1,001,1009,
images/dragonfly02.jpg,dragon fly,z,sounds/animalfarm_chinese.wav,,,,,,,,,0,1,1,1,0,83,83,29,775.569201036,8.98016151041e-06,776.882742333,1.31355091813,,,,z,1,1.30065830913,2018_Nov_13_1540,59.9892257552,chinese_cond1,001,1009,
images/croissant02b.jpg,croissant,z,sounds/animalfarm_chinese.wav,,,,,,,,,0,1,1,1,0,84,84,39,777.991961162,8.98016151041e-06,778.866463245,0.874511704431,,,,z,1,0.850445223041,2018_Nov_13_1540,59.9892257552,chinese_cond1,001,1009,
images/bench02.jpg,electric toothbrush,x,sounds/animalfarm_chinese.wav,,,,,,,,,0,1,1,1,0,85,85,172,779.975130437,9.30076930672e-06,781.267056191,1.29193601769,,,,x,1,1.28363034106,2018_Nov_13_1540,59.9892257552,chinese_cond1,001,1009,
images/parrot01.jpg,chameleon,x,sounds/animalfarm_chinese.wav,,,,,,,,,0,1,1,1,0,86,86,150,782.449812507,9.62160993367e-06,783.634304558,1.18450231373,,,,x,1,1.16719115013,2018_Nov_13_1540,59.9892257552,chinese_cond1,001,1009,
images/seagull.jpg,seagull,z,sounds/animalfarm_chinese.wav,,,,,,,,,0,1,1,1,0,87,87,50,784.777281375,8.98016151041e-06,785.784841058,1.00756962504,,,,z,1,0.983813921106,2018_Nov_13_1540,59.9892257552,chinese_cond1,001,1009,
images/redfox.jpg,red fox,z,sounds/animalfarm_chinese.wav,,,,,,,,,0,1,1,1,0,88,88,1,786.895753287,9.30088572204e-06,787.651970117,0.75622677186,,,,z,1,0.73374560778,2018_Nov_13_1540,59.9892257552,chinese_cond1,001,1009,
images/bottleofredwine02.jpg,pipe,x,sounds/animalfarm_chinese.wav,,,,,,,,,0,1,1,1,0,89,89,213,788.750631818,8.98004509509e-06,789.735812646,0.985190128908,,,,x,1,0.967141631059,2018_Nov_13_1540,59.9892257552,chinese_cond1,001,1009,
images/lamp04b.jpg,parking meter,x,sounds/animalfarm_chinese.wav,,,,,,,,,0,1,1,1,0,90,90,209,790.856318241,9.30088572204e-06,792.45315184,1.59684354137,,,,x,1,1.58395959192,2018_Nov_13_1540,59.9892257552,chinese_cond1,001,1009,
images/axe01.jpg,axe,z,sounds/animalfarm_chinese.wav,,,,,,,,,0,1,1,1,0,91,91,104,793.555632992,8.98016151041e-06,794.30360893,0.747985880706,,,,z,1,0.733744645608,2018_Nov_13_1540,59.9892257552,chinese_cond1,001,1009,
images/cupcake.jpg,scissors,x,sounds/animalfarm_chinese.wav,,,,,,,,,0,1,1,1,0,92,92,219,795.421073462,9.30088572204e-06,796.270770766,0.849707247107,,,,x,1,0.833784478949,2018_Nov_13_1540,59.9892257552,chinese_cond1,001,1009,
images/nailclipper03a.jpg,aquarium,x,sounds/animalfarm_chinese.wav,,,,,,,,,0,1,1,1,0,93,93,123,797.37084203,9.30088572204e-06,798.237920095,0.867088006809,,,,x,1,0.850459013949,2018_Nov_13_1540,59.9892257552,chinese_cond1,001,1009,
images/pepper05a.jpg,lighter,x,sounds/animalfarm_chinese.wav,,,,,,,,,0,1,1,1,0,94,94,198,799.431270422,9.30088572204e-06,800.188419263,0.757158783148,,,,x,1,0.733782169875,2018_Nov_13_1540,59.9892257552,chinese_cond1,001,1009,
images/corn01.jpg,corn,z,sounds/animalfarm_chinese.wav,,,,,,,,,0,1,1,1,0,95,95,22,801.28807744,8.98016151041e-06,802.405613813,1.11754631519,,,,z,1,1.10051898856,2018_Nov_13_1540,59.9892257552,chinese_cond1,001,1009,
images/crocodile.jpg,triangle ruler,x,sounds/animalfarm_chinese.wav,,,,,,,,,0,1,1,1,0,96,96,235,803.501424957,8.98004509509e-06,804.472792391,0.971377054579,,,,x,1,0.950482811313,2018_Nov_13_1540,59.9892257552,chinese_cond1,001,1009,
images/acousticguitar02.jpg,acoustic guitar,z,sounds/animalfarm_chinese.wav,,,,,,,,,0,1,1,1,0,97,97,97,805.586040421,9.30088572204e-06,806.906757819,1.32072702015,,,,z,1,1.30060250394,2018_Nov_13_1540,59.9892257552,chinese_cond1,001,1009,
images/gorilla.jpg,gorilla,z,sounds/animalfarm_chinese.wav,,,,,,,,,0,1,1,1,0,98,98,80,808.016436882,9.62160993367e-06,808.823862055,0.807435435941,,,,z,1,0.78370186151,2018_Nov_13_1540,59.9892257552,chinese_cond1,001,1009,
images/knife04.jpg,tooth brush,x,sounds/animalfarm_chinese.wav,,,,,,,,,0,1,1,1,0,99,99,233,809.921111948,9.30088572204e-06,810.907712923,0.986610917025,,,,x,1,0.967120784218,2018_Nov_13_1540,59.9892257552,chinese_cond1,001,1009,
images/chameleon.jpg,50 dollar bill,x,sounds/animalfarm_chinese.wav,,,,,,,,,0,1,1,1,0,100,100,120,812.016635728,8.98016151041e-06,812.941541468,0.924915362149,,,,x,1,0.900464017177,2018_Nov_13_1540,59.9892257552,chinese_cond1,001,1009,
images/notebook02b.jpg,notebook,z,sounds/animalfarm_chinese.wav,,,,,,,,,0,1,1,1,0,101,101,7,814.046694856,9.30088572204e-06,814.942028321,0.89534340729,,,,z,1,0.883777615614,2018_Nov_13_1540,59.9892257552,chinese_cond1,001,1009,
images/bullet (2).jpg,rubber glove,x,sounds/animalfarm_chinese.wav,,,,,,,,,0,1,1,1,0,102,102,217,816.115875366,9.94233414531e-06,817.175935892,1.06007143063,,,,x,1,1.05052360694,2018_Nov_13_1540,59.9892257552,chinese_cond1,001,1009,
images/lily.jpg,kiwi,x,sounds/animalfarm_chinese.wav,,,,,,,,,0,1,1,1,0,103,103,190,818.308472002,9.30088572204e-06,819.293106965,0.984644905664,,,,x,1,0.967143876129,2018_Nov_13_1540,59.9892257552,chinese_cond1,001,1009,
images/grasshopper.jpg,cauliflower,x,sounds/animalfarm_chinese.wav,,,,,,,,,0,1,1,1,0,104,104,148,820.386689109,9.30088572204e-06,821.643688173,1.25700900715,,,,x,1,1.23387742345,2018_Nov_13_1540,59.9892257552,chinese_cond1,001,1009,
images/dolphin01.jpg,dolphin,z,sounds/animalfarm_chinese.wav,,,,,,,,,0,1,1,1,0,105,105,99,822.743965339,8.98016151041e-06,823.593998438,0.850043682032,,,,z,1,0.833600385929,2018_Nov_13_1540,59.9892257552,chinese_cond1,001,1009,
images/umbrella01.jpg,umbrella,z,sounds/animalfarm_chinese.wav,,,,,,,,,0,1,1,1,0,106,106,53,824.786531892,9.30088572204e-06,825.944743213,1.15822158393,,,,z,1,1.13384849462,2018_Nov_13_1540,59.9892257552,chinese_cond1,001,1009,
images/bull.jpg,button,x,sounds/animalfarm_chinese.wav,,,,,,,,,0,1,1,1,0,107,107,141,827.049162473,9.30088572204e-06,827.911897031,0.862744179904,,,,x,1,0.850453240913,2018_Nov_13_1540,59.9892257552,chinese_cond1,001,1009,
images/spoon02b.jpg,spoon,z,sounds/animalfarm_chinese.wav,,,,,,,,,0,1,1,1,0,108,108,38,829.066793073,9.30088572204e-06,829.929075417,0.862291965168,,,,z,1,0.850465428317,2018_Nov_13_1540,59.9892257552,chinese_cond1,001,1009,
images/clothespin02a.jpg,clothes pin,z,sounds/animalfarm_chinese.wav,,,,,,,,,0,1,1,1,0,109,109,79,831.032480882,9.30088572204e-06,832.212957523,1.18048722448,,,,z,1,1.16718986735,2018_Nov_13_1540,59.9892257552,chinese_cond1,001,1009,
images/headphones02b.jpg,headphones,z,sounds/animalfarm_chinese.wav,,,,,,,,,0,1,1,1,0,110,110,101,833.32142202,8.98016151041e-06,834.430187672,1.10877559509,,,,z,1,1.10052091291,2018_Nov_13_1540,59.9892257552,chinese_cond1,001,1009,
images/tent.jpg,tent,z,sounds/animalfarm_chinese.wav,,,,,,,,,0,1,1,1,0,111,111,11,835.555035491,9.30088572204e-06,836.597377219,1.04235167045,,,,z,1,1.0338323944,2018_Nov_13_1540,59.9892257552,chinese_cond1,001,1009,
images/watermelon01.jpg,orange,x,sounds/animalfarm_chinese.wav,,,,,,,,,0,1,1,1,0,112,112,207,837.726691058,8.98016151041e-06,838.547855219,0.821175386081,,,,x,1,0.8004318811,2018_Nov_13_1540,59.9892257552,chinese_cond1,001,1009,
images/triangleruler02.jpg,bottle of red wine,x,sounds/animalfarm_chinese.wav,,,,,,,,,0,1,1,1,0,113,113,134,839.658273861,9.30088572204e-06,841.281868949,1.62360503001,,,,x,1,1.6006338062,2018_Nov_13_1540,59.9892257552,chinese_cond1,001,1009,
images/pipe.jpg,icecube,x,sounds/animalfarm_chinese.wav,,,,,,,,,0,1,1,1,0,114,114,188,842.389768979,9.30088572204e-06,843.499070555,1.10931151756,,,,x,1,1.10050295258,2018_Nov_13_1540,59.9892257552,chinese_cond1,001,1009,
images/honeycomb.jpg,honey comb,z,sounds/animalfarm_chinese.wav,,,,,,,,,0,1,1,1,0,115,115,59,844.612528336,8.98016151041e-06,845.399549004,0.78702996939,,,,z,1,0.767097884906,2018_Nov_13_1540,59.9892257552,chinese_cond1,001,1009,
images/table02.jpg,table,z,sounds/animalfarm_chinese.wav,,,,,,,,,0,1,1,1,0,116,116,49,846.513967661,8.98016151041e-06,847.78346934,1.26951162098,,,,x,0,1.25055163773,2018_Nov_13_1540,59.9892257552,chinese_cond1,001,1009,
images/ostrich.jpg,ostrich,z,sounds/animalfarm_chinese.wav,,,,,,,,,0,1,1,1,0,117,117,76,848.944680672,9.30088572204e-06,850.334093974,1.38942356419,,,,x,0,1.36723585846,2018_Nov_13_1540,59.9892257552,chinese_cond1,001,1009,
images/bat.jpg,hand,x,sounds/animalfarm_chinese.wav,,,,,,,,,0,1,1,1,0,118,118,185,851.43085958,8.98016151041e-06,852.367764405,0.936914766789,,,,x,1,0.916955421329,2018_Nov_13_1540,59.9892257552,chinese_cond1,001,1009,
images/coin01b.jpg,arrow,x,sounds/animalfarm_chinese.wav,,,,,,,,,0,1,1,1,0,119,119,124,853.471089369,8.65943729877e-06,854.485121816,1.01404238888,,,,x,1,1.00048268295,2018_Nov_13_1540,59.9892257552,chinese_cond1,001,1009,
images/hat05.jpg,hat,z,sounds/animalfarm_chinese.wav,,,,,,,,,0,1,1,1,0,120,120,15,855.588111628,8.98004509509e-06,856.335575057,0.747472729185,,,,z,1,0.733753305045,2018_Nov_13_1540,59.9892257552,chinese_cond1,001,1009,
images/boxingglove02a.jpg,bracelet,x,sounds/animalfarm_chinese.wav,,,,,,,,,0,1,1,1,0,121,121,135,857.445971248,8.98016151041e-06,858.436090517,0.990129853017,,,,x,1,0.967140989611,2018_Nov_13_1540,59.9892257552,chinese_cond1,001,1009,
images/gps.jpg,gps,z,sounds/animalfarm_chinese.wav,,,,,,,,,0,1,1,1,0,122,122,21,859.553226953,9.30088572204e-06,860.353239012,0.800022001378,,,,z,1,0.783772099181,2018_Nov_13_1540,59.9892257552,chinese_cond1,001,1009,
images/wallet01.jpg,lamp,x,sounds/animalfarm_chinese.wav,,,,,,,,,0,1,1,1,0,123,123,193,861.458358724,9.30088572204e-06,862.287049533,0.828700751881,,,,x,1,0.817116358317,2018_Nov_13_1540,59.9892257552,chinese_cond1,001,1009,
images/weight01.jpg,weight,z,sounds/animalfarm_chinese.wav,,,,,,,,,0,1,1,1,0,124,124,67,863.469174994,9.30088572204e-06,864.537599888,1.06843483681,,,,z,1,1.05049794936,2018_Nov_13_1540,59.9892257552,chinese_cond1,001,1009,
images/skateboard.jpg,key,x,sounds/animalfarm_chinese.wav,,,,,,,,,0,1,1,1,0,125,125,189,865.63053963,8.98016151041e-06,866.538253836,0.907723826938,,,,x,1,0.883957218612,2018_Nov_13_1540,59.9892257552,chinese_cond1,001,1009,
images/hairband.jpg,hairband,z,sounds/animalfarm_chinese.wav,,,,,,,,,0,1,1,1,0,126,126,66,867.646428081,8.98016151041e-06,868.53858995,0.892172131455,,,,z,1,0.883801348857,2018_Nov_13_1540,59.9892257552,chinese_cond1,001,1009,
images/atm.jpg,atm,z,sounds/animalfarm_chinese.wav,,,,,,,,,0,1,1,1,0,127,127,96,869.675681882,9.30076930672e-06,870.63893575,0.963263809797,,,,z,1,0.950292303925,2018_Nov_13_1540,59.9892257552,chinese_cond1,001,1009,
images/leek.jpg,donut,x,sounds/animalfarm_chinese.wav,,,,,,,,,0,1,1,1,0,128,128,169,871.811398889,9.30088572204e-06,872.822974303,1.01158535562,,,,x,1,1.00049422903,2018_Nov_13_1540,59.9892257552,chinese_cond1,001,1009,
images/butterfly.jpg,butterfly,z,sounds/animalfarm_chinese.wav,,,,,,,,,0,1,1,1,0,129,129,91,873.928959958,8.65943729877e-06,874.690099192,0.761149176979,,,,z,1,0.750417897711,2018_Nov_13_1540,59.9892257552,chinese_cond1,001,1009,
images/parkfountain.jpg,park fountain,z,sounds/animalfarm_chinese.wav,,,,,,,,,0,1,1,1,0,130,130,93,875.810790805,8.65943729877e-06,876.823964364,1.01318286022,,,,z,1,1.00048749393,2018_Nov_13_1540,59.9892257552,chinese_cond1,001,1009,
images/floorlamp.jpg,floor lamp,z,sounds/animalfarm_chinese.wav,,,,,,,,,0,1,1,1,0,131,131,26,877.990362054,8.98016151041e-06,878.991163532,1.00081077928,,,,z,1,0.98380814807,2018_Nov_13_1540,59.9892257552,chinese_cond1,001,1009,
images/aloe02.jpg,broad sword,x,sounds/animalfarm_chinese.wav,,,,,,,,,0,1,1,1,0,132,132,137,880.193251866,8.98016151041e-06,881.491794067,1.29855214327,,,,x,1,1.28389301046,2018_Nov_13_1540,59.9892257552,chinese_cond1,001,1009,
images/tie01.jpg,bench,x,sounds/animalfarm_chinese.wav,,,,,,,,,0,1,1,1,0,133,133,130,882.588687962,9.62160993367e-06,883.942385923,1.353707904,,,,x,1,1.33390346589,2018_Nov_13_1540,59.9892257552,chinese_cond1,001,1009,
images/bus.jpg,microphone,x,sounds/animalfarm_chinese.wav,,,,,,,,,0,1,1,1,0,134,134,203,885.121457491,9.62160993367e-06,886.376348787,1.25490123755,,,,x,1,1.23391077842,2018_Nov_13_1540,59.9892257552,chinese_cond1,001,1009,
images/gluestick.jpg,squirrel,x,sounds/animalfarm_chinese.wav,,,,,,,,,0,1,1,1,0,135,135,226,887.484075628,8.98016151041e-06,888.393599975,0.909534610109,,,,x,1,0.900568571757,2018_Nov_13_1540,59.9892257552,chinese_cond1,001,1009,
images/bowlingball.jpg,bowling ball,z,sounds/animalfarm_chinese.wav,,,,,,,,,0,1,1,1,0,136,136,20,889.601117451,9.30088572204e-06,890.477325442,0.87621825363,,,,z,1,0.867116871523,2018_Nov_13_1540,59.9892257552,chinese_cond1,001,1009,
images/daisy.jpg,daisy,z,sounds/animalfarm_chinese.wav,,,,,,,,,0,1,1,1,0,137,137,6,891.640198423,9.62160993367e-06,892.577850845,0.937662685057,,,,z,1,0.91713726928,2018_Nov_13_1540,59.9892257552,chinese_cond1,001,1009,
images/stapler03a.jpg,candy cane,x,sounds/animalfarm_chinese.wav,,,,,,,,,0,1,1,1,0,138,138,145,893.809074955,8.98016151041e-06,894.628354888,0.819289554725,,,,x,1,0.800440219813,2018_Nov_13_1540,59.9892257552,chinese_cond1,001,1009,
images/arrow02.jpg,hammer,x,sounds/animalfarm_chinese.wav,,,,,,,,,0,1,1,1,0,139,139,184,895.725862319,9.30088572204e-06,896.728941869,1.00308949233,,,,x,1,0.983882234315,2018_Nov_13_1540,59.9892257552,chinese_cond1,001,1009,
images/paperclip04.jpg,eye drops,x,sounds/animalfarm_chinese.wav,,,,,,,,,0,1,1,1,0,140,140,174,897.900970433,9.62160993367e-06,898.979433532,1.07847336167,,,,x,1,1.06716125912,2018_Nov_13_1540,59.9892257552,chinese_cond1,001,1009,
images/pictureframe04.jpg,picture frame,z,sounds/animalfarm_chinese.wav,,,,,,,,,0,1,1,1,0,141,141,41,900.10147762,8.98016151041e-06,901.213312239,1.11184391985,,,,z,1,1.10051834711,2018_Nov_13_1540,59.9892257552,chinese_cond1,001,1009,
images/mitten01.jpg,mitten,z,sounds/animalfarm_chinese.wav,,,,,,,,,0,1,1,1,0,142,142,102,902.334069599,3.11097828671e-05,903.547226288,1.2131820264,,,,z,1,1.20054086158,2018_Nov_13_1540,59.9892257552,chinese_cond1,001,1009,
images/lollipop03b.jpg,lollipop,z,sounds/animalfarm_chinese.wav,,,,,,,,,0,1,1,1,0,143,143,42,904.640368083,8.98016151041e-06,905.397679529,0.757321387995,,,,z,1,0.733742400538,2018_Nov_13_1540,59.9892257552,chinese_cond1,001,1009,
images/rhinoceros01.jpg,envelope,x,sounds/animalfarm_chinese.wav,,,,,,,,,0,1,1,1,0,144,144,173,906.50992499,9.30076930672e-06,907.348158171,0.838242802653,,,,x,1,0.817111226846,2018_Nov_13_1540,59.9892257552,chinese_cond1,001,1009,
images/carrot02.jpg,corkscrew,x,sounds/animalfarm_chinese.wav,,,,,,,,,0,1,1,1,0,145,145,161,908.530861568,8.98016151041e-06,909.682061316,1.15121065255,,,,x,1,1.133846891,2018_Nov_13_1540,59.9892257552,chinese_cond1,001,1009,
images/masquerademask02b.jpg,mirror,x,sounds/animalfarm_chinese.wav,,,,,,,,,0,1,1,1,0,146,146,204,910.866670109,8.98016151041e-06,911.815928413,0.949267925345,,,,x,1,0.933802503394,2018_Nov_13_1540,59.9892257552,chinese_cond1,001,1009,
images/scooter.jpg,pen,x,sounds/animalfarm_chinese.wav,,,,,,,,,0,1,1,1,0,147,147,212,912.908717416,9.30088572204e-06,913.783080948,0.874373474158,,,,x,1,0.85044746811,2018_Nov_13_1540,59.9892257552,chinese_cond1,001,1009,
images/desktopcomputer.jpg,desktop computer,z,sounds/animalfarm_chinese.wav,,,,,,,,,0,1,1,1,0,148,148,16,914.919231248,8.98016151041e-06,916.133901734,1.21468780504,,,,z,1,1.20073489693,2018_Nov_13_1540,59.9892257552,chinese_cond1,001,1009,
images/chessknight02b (1).jpg,cockroach,x,sounds/animalfarm_chinese.wav,,,,,,,,,0,1,1,1,0,149,149,155,917.320001552,9.30088572204e-06,918.784321171,1.46432924061,,,,x,1,1.45060276054,2018_Nov_13_1540,59.9892257552,chinese_cond1,001,1009,
images/elbow.jpg,elbow,z,sounds/animalfarm_chinese.wav,,,,,,,,,0,1,1,1,0,150,150,105,919.895940267,8.98016151041e-06,920.93484388,1.03891323507,,,,z,1,1.01716106664,2018_Nov_13_1540,59.9892257552,chinese_cond1,001,1009,
images/raisin.jpg,ruler,x,sounds/animalfarm_chinese.wav,,,,,,,,,0,1,1,1,0,151,151,218,922.04039047,9.62160993367e-06,922.935331053,0.894950205111,,,,x,1,0.883782426361,2018_Nov_13_1540,59.9892257552,chinese_cond1,001,1009,
images/icecube02 (2).jpg,aloe,x,sounds/animalfarm_chinese.wav,,,,,,,,,0,1,1,1,0,152,152,122,924.045733659,8.65943729877e-06,924.985839907,0.940115869627,,,,x,1,0.917128289235,2018_Nov_13_1540,59.9892257552,chinese_cond1,001,1009,
images/eraser.jpg,eraser,z,sounds/animalfarm_chinese.wav,,,,,,,,,0,1,1,1,0,153,153,110,926.093031147,8.65943729877e-06,926.886308414,0.79328688886,,,,z,1,0.783770816284,2018_Nov_13_1540,59.9892257552,chinese_cond1,001,1009,
images/camera01a.jpg,bull,x,sounds/animalfarm_chinese.wav,,,,,,,,,0,1,1,1,0,154,154,138,927.997302106,9.62160993367e-06,928.886809699,0.889517855714,,,,x,1,0.867128096754,2018_Nov_13_1540,59.9892257552,chinese_cond1,001,1009,
images/cola.jpg,comb,x,sounds/animalfarm_chinese.wav,,,,,,,,,0,1,1,1,0,155,155,157,930.006502591,9.62160993367e-06,931.254058066,1.24756605865,,,,x,1,1.23388191359,2018_Nov_13_1540,59.9892257552,chinese_cond1,001,1009,
images/grandpiano.jpg,tulip,x,sounds/animalfarm_chinese.wav,,,,,,,,,0,1,1,1,0,156,156,236,932.368282688,9.30088572204e-06,933.304560184,0.936288080644,,,,x,1,0.917134382878,2018_Nov_13_1540,59.9892257552,chinese_cond1,001,1009,
images/belt02a.jpg,snowman,x,sounds/animalfarm_chinese.wav,,,,,,,,,0,1,1,1,0,157,157,224,934.486352096,8.98016151041e-06,935.438425356,0.952083202312,,,,x,1,0.933806993533,2018_Nov_13_1540,59.9892257552,chinese_cond1,001,1009,
images/ant.jpg,ant,z,sounds/animalfarm_chinese.wav,,,,,,,,,0,1,1,1,0,158,158,98,936.629137123,9.30088572204e-06,937.605625807,0.976498947479,,,,z,1,0.967148686876,2018_Nov_13_1540,59.9892257552,chinese_cond1,001,1009,
images/swallow.jpg,mattress,x,sounds/animalfarm_chinese.wav,,,,,,,,,0,1,1,1,0,159,159,202,938.707731717,8.98016151041e-06,939.589449029,0.881726934225,,,,x,1,0.86709666613,2018_Nov_13_1540,59.9892257552,chinese_cond1,001,1009,
images/computerkeyboard01a.jpg,computer keyboard,z,sounds/animalfarm_chinese.wav,,,,,,,,,0,1,1,1,0,160,160,61,940.791118824,9.62160993367e-06,942.073396049,1.28228748799,,,,z,1,1.26722296549,2018_Nov_13_1540,59.9892257552,chinese_cond1,001,1009,
images/sportshorts02.jpg,tape,x,sounds/animalfarm_chinese.wav,,,,,,,,,0,1,1,1,0,161,161,230,943.216875434,8.98004509509e-06,944.073721259,0.856855446473,,,,x,1,0.833615780459,2018_Nov_13_1540,59.9892257552,chinese_cond1,001,1009,
images/parkbench03.jpg,park bench,z,sounds/animalfarm_chinese.wav,,,,,,,,,0,1,1,1,0,162,162,71,945.179397098,9.30088572204e-06,946.407788933,1.22840145638,,,,z,1,1.21719711553,2018_Nov_13_1540,59.9892257552,chinese_cond1,001,1009,
images/showerhead01.jpg,skateboard,x,sounds/animalfarm_chinese.wav,,,,,,,,,0,1,1,1,0,163,163,223,947.552395648,9.30088572204e-06,948.458305164,0.905918816919,,,,x,1,0.883799424511,2018_Nov_13_1540,59.9892257552,chinese_cond1,001,1009,
images/hairpin.jpg,hair pin,z,sounds/animalfarm_chinese.wav,,,,,,,,,0,1,1,1,0,164,164,28,949.55022213,9.30088572204e-06,950.392164434,0.841952566872,,,,z,1,0.833738616086,2018_Nov_13_1540,59.9892257552,chinese_cond1,001,1009,
images/puzzle.jpg,puzzle,z,sounds/animalfarm_chinese.wav,,,,,,,,,0,1,1,1,0,165,165,57,951.512307296,8.98016151041e-06,952.575971748,1.06367375376,,,,z,1,1.05049474211,2018_Nov_13_1540,59.9892257552,chinese_cond1,001,1009,
images/remotecontrol01c.jpg,remote control,z,sounds/animalfarm_chinese.wav,,,,,,,,,0,1,1,1,0,166,166,85,953.685932723,9.30088572204e-06,954.743187915,1.05726545455,,,,z,1,1.03383463959,2018_Nov_13_1540,59.9892257552,chinese_cond1,001,1009,
images/backpack01b.jpg,swallow,x,sounds/animalfarm_chinese.wav,,,,,,,,,0,1,1,1,0,167,167,228,955.873699322,9.30088572204e-06,957.427179001,1.55348930147,,,,x,1,1.53395298508,2018_Nov_13_1540,59.9892257552,chinese_cond1,001,1009,
images/cactus.jpg,cactus,z,sounds/animalfarm_chinese.wav,,,,,,,,,0,1,1,1,0,168,168,70,958.538850695,8.98004509509e-06,959.577722878,1.03888212517,,,,z,1,1.01713284338,2018_Nov_13_1540,59.9892257552,chinese_cond1,001,1009,
images/printer03a.jpg,printer,z,sounds/animalfarm_chinese.wav,,,,,,,,,0,1,1,1,0,169,169,72,960.712429618,9.30076930672e-06,961.611542764,0.899122767616,,,,z,1,0.883786274935,2018_Nov_13_1540,59.9892257552,chinese_cond1,001,1009,
images/bracelet02a.jpg,chess knight,x,sounds/animalfarm_chinese.wav,,,,,,,,,0,1,1,1,0,170,170,152,962.720521695,9.30088572204e-06,964.295547962,1.57503620931,,,,x,1,1.55062142643,2018_Nov_13_1540,59.9892257552,chinese_cond1,001,1009,
images/licenseplate.jpg,license plate,z,sounds/animalfarm_chinese.wav,,,,,,,,,0,1,1,1,0,171,171,40,965.413044887,9.62149351835e-06,966.29604155,0.883006926277,,,,z,1,0.867125210236,2018_Nov_13_1540,59.9892257552,chinese_cond1,001,1009,
images/sunglasses03a.jpg,sun glasses,z,sounds/animalfarm_chinese.wav,,,,,,,,,0,1,1,1,0,172,172,17,967.404592,9.30088572204e-06,968.179945529,0.775381431798,,,,z,1,0.76715112431,2018_Nov_13_1540,59.9892257552,chinese_cond1,001,1009,
images/broom02.jpg,broom,z,sounds/animalfarm_chinese.wav,,,,,,,,,0,1,1,1,0,173,173,116,969.273505222,9.30088572204e-06,970.196995306,0.923501309124,,,,x,0,0.900461772108,2018_Nov_13_1540,59.9892257552,chinese_cond1,001,1009,
images/lipstick04.jpg,lipstick,z,sounds/animalfarm_chinese.wav,,,,,,,,,0,1,1,1,0,174,174,56,971.296634561,9.30088572204e-06,972.064112498,0.767487559351,,,,z,1,0.750414690468,2018_Nov_13_1540,59.9892257552,chinese_cond1,001,1009,
images/cat.jpg,black olive,x,sounds/animalfarm_chinese.wav,,,,,,,,,0,1,1,1,0,175,175,133,973.195211463,9.62160993367e-06,974.181298645,0.986097444897,,,,x,1,0.967134575243,2018_Nov_13_1540,59.9892257552,chinese_cond1,001,1009,
images/lion.jpg,lion,z,sounds/animalfarm_chinese.wav,,,,,,,,,0,1,1,1,0,176,176,44,975.293480603,8.65943729877e-06,976.031769205,0.738298543845,,,,z,1,0.717088070814,2018_Nov_13_1540,59.9892257552,chinese_cond1,001,1009,
images/key03b.jpg,cigar,x,sounds/animalfarm_chinese.wav,,,,,,,,,0,1,1,1,0,177,177,153,977.133354266,8.98016151041e-06,978.148955352,1.01561070792,,,,x,1,1.00049294613,2018_Nov_13_1540,59.9892257552,chinese_cond1,001,1009,
images/electrictoothbrush01a.jpg,banjo,x,sounds/animalfarm_chinese.wav,,,,,,,,,0,1,1,1,0,178,178,127,979.243660335,9.30076930672e-06,980.116104039,0.872453646385,,,,x,1,0.850451316684,2018_Nov_13_1540,59.9892257552,chinese_cond1,001,1009,
images/fryingpan01.jpg,frying pan,z,sounds/animalfarm_chinese.wav,,,,,,,,,0,1,1,1,0,179,179,45,981.29235616,9.30088572204e-06,982.783425081,1.49107854161,,,,z,1,1.46725260012,2018_Nov_13_1540,59.9892257552,chinese_cond1,001,1009,
images/plate01b.jpg,plate,z,sounds/animalfarm_chinese.wav,,,,,,,,,0,1,1,1,0,180,180,3,983.882488002,9.30088572204e-06,984.65055895,0.76808056992,,,,z,1,0.75042367063,2018_Nov_13_1540,59.9892257552,chinese_cond1,001,1009,
images/pingpongpaddle01c (1).jpg,ping pong paddle,z,sounds/animalfarm_chinese.wav,,,,,,,,,0,1,1,1,0,181,181,10,985.760524415,9.30088572204e-06,986.63437672,0.873862888548,,,,z,1,0.850444260868,2018_Nov_13_1540,59.9892257552,chinese_cond1,001,1009,
images/mattress.jpg,cat,x,sounds/animalfarm_chinese.wav,,,,,,,,,0,1,1,1,0,182,182,147,987.73714716,8.98016151041e-06,988.63488025,0.897742711008,,,,x,1,0.883801348857,2018_Nov_13_1540,59.9892257552,chinese_cond1,001,1009,
images/radio03a.jpg,radio,z,sounds/animalfarm_chinese.wav,,,,,,,,,0,1,1,1,0,183,183,37,989.749008976,8.65943729877e-06,991.168851195,1.41985216108,,,,z,1,1.4006044924,2018_Nov_13_1540,59.9892257552,chinese_cond1,001,1009,
images/coffeepot03b.jpg,coffee pot,z,sounds/animalfarm_chinese.wav,,,,,,,,,0,1,1,1,0,184,184,107,992.288981228,9.30076930672e-06,994.019538561,1.73056663456,,,,x,0,1.71733117639,2018_Nov_13_1540,59.9892257552,chinese_cond1,001,1009,
images/bowtie.jpg,bowtie,z,sounds/animalfarm_chinese.wav,,,,,,,,,0,1,1,1,0,185,185,89,995.128143854,9.62160993367e-06,997.403695588,2.27556167624,,,,z,1,2.25077453791,2018_Nov_13_1540,59.9892257552,chinese_cond1,001,1009,
images/bowl02b (1).jpg,bowl,z,sounds/animalfarm_chinese.wav,,,,,,,,,0,1,1,1,0,186,186,24,998.520217525,9.30088572204e-06,999.354190266,0.833982683718,,,,z,1,0.817112189019,2018_Nov_13_1540,59.9892257552,chinese_cond1,001,1009,
images/egg01b (1).jpg,egg,z,sounds/animalfarm_chinese.wav,,,,,,,,,0,1,1,1,0,187,187,19,1000.46680808,9.30088572204e-06,1001.20463581,0.737837348948,,,,z,1,0.717051188112,2018_Nov_13_1540,59.9892257552,chinese_cond1,001,1009,
images/cherry01.jpg,highlighter,x,sounds/animalfarm_chinese.wav,,,,,,,,,0,1,1,1,0,188,188,187,1002.39136713,8.98016151041e-06,1003.48875268,1.09739549994,,,,x,1,1.08405997709,2018_Nov_13_1540,59.9892257552,chinese_cond1,001,1009,
images/beachumbrella01.jpg,beach umbrella,z,sounds/animalfarm_chinese.wav,,,,,,,,,0,1,1,1,0,189,189,92,1004.59568478,8.98016151041e-06,1005.53903832,0.943363155937,,,,z,1,0.933755678358,2018_Nov_13_1540,59.9892257552,chinese_cond1,001,1009,
images/toothbrush03a.jpg,parrot,x,sounds/animalfarm_chinese.wav,,,,,,,,,0,1,1,1,0,190,190,210,1006.63054316,8.65943729877e-06,1007.82294768,1.19241414662,,,,x,1,1.18385927076,2018_Nov_13_1540,59.9892257552,chinese_cond1,001,1009,
images/handfan01b.jpg,handfan,z,sounds/animalfarm_chinese.wav,,,,,,,,,0,1,1,1,0,191,191,69,1008.93590065,8.98016151041e-06,1010.07351921,1.13762913784,,,,z,1,1.11720539012,2018_Nov_13_1540,59.9892257552,chinese_cond1,001,1009,
images/handbag02a.jpg,candle,x,sounds/animalfarm_chinese.wav,,,,,,,,,0,1,1,1,0,192,192,144,1011.1882945,8.65943729877e-06,1012.32404037,1.13575549365,,,,x,1,1.11717363889,2018_Nov_13_1540,59.9892257552,chinese_cond1,001,1009,
images/cookingpot.jpg,grasshopper,x,sounds/animalfarm_chinese.wav,,,,,,,,,0,1,1,1,0,193,193,183,1013.43655749,8.98016151041e-06,1014.67462415,1.23807660583,,,,x,1,1.21718685247,2018_Nov_13_1540,59.9892257552,chinese_cond1,001,1009,
images/calculator02b.jpg,dice,x,sounds/animalfarm_chinese.wav,,,,,,,,,0,1,1,1,0,194,194,165,1015.774867,9.62160993367e-06,1016.82515872,1.05030166893,,,,x,1,1.03382694232,2018_Nov_13_1540,59.9892257552,chinese_cond1,001,1009,
images/flashlight05.jpg,flash light,z,sounds/animalfarm_chinese.wav,,,,,,,,,0,1,1,1,0,195,195,8,1017.92663827,9.30076930672e-06,1019.25908791,1.33245958609,,,,z,1,1.31722508231,2018_Nov_13_1540,59.9892257552,chinese_cond1,001,1009,
images/8ball.jpg,nail clipper,x,sounds/animalfarm_chinese.wav,,,,,,,,,0,1,1,1,0,196,196,206,1020.37472755,8.98016151041e-06,1021.35961299,0.98489506694,,,,x,1,0.967136820313,2018_Nov_13_1540,59.9892257552,chinese_cond1,001,1009,
images/hairdryer03a.jpg,hairdryer,z,sounds/animalfarm_chinese.wav,,,,,,,,,0,1,1,1,0,197,197,119,1022.45940844,9.62160993367e-06,1023.56015289,1.10075503821,,,,z,1,1.08383322833,2018_Nov_13_1540,59.9892257552,chinese_cond1,001,1009,
images/antelope.jpg,antelope,z,sounds/animalfarm_chinese.wav,,,,,,,,,0,1,1,1,0,198,198,12,1024.66418312,9.62160993367e-06,1025.61065597,0.946483758162,,,,x,0,0.933412829065,2018_Nov_13_1540,59.9892257552,chinese_cond1,001,1009,
images/screwdriver02b.jpg,cola,x,sounds/animalfarm_chinese.wav,,,,,,,,,0,1,1,1,0,199,199,158,1026.77876053,9.30088572204e-06,1028.26131403,1.4825634351,,,,z,0,1.46725901449,2018_Nov_13_1540,59.9892257552,chinese_cond1,001,1009,
images/lantern03.jpg,lantern,z,sounds/animalfarm_chinese.wav,,,,,,,,,0,1,1,1,0,200,200,5,1029.3674764,8.65943729877e-06,1031.06201243,1.69454597007,,,,z,1,1.68398371001,2018_Nov_13_1540,59.9892257552,chinese_cond1,001,1009,
images/candle08a.jpg,screw driver,x,sounds/animalfarm_chinese.wav,,,,,,,,,0,1,1,1,0,201,201,221,1032.17420369,8.98016151041e-06,1033.3960182,1.22182413796,,,,z,0,1.20063836034,2018_Nov_13_1540,59.9892257552,chinese_cond1,001,1009,
images/orange.jpg,bat,x,sounds/animalfarm_chinese.wav,,,,,,,,,0,1,1,1,0,202,202,128,1034.58642079,9.30088572204e-06,1035.94654886,1.3601380121,,,,x,1,1.35052957223,2018_Nov_13_1540,59.9892257552,chinese_cond1,001,1009,
images/hammer02a.jpg,flower,x,sounds/animalfarm_chinese.wav,,,,,,,,,0,1,1,1,0,203,203,176,1037.04096199,9.30088572204e-06,1038.69722622,1.65627449495,,,,x,1,1.6339815933,2018_Nov_13_1540,59.9892257552,chinese_cond1,001,1009,
images/cloud.jpg,ceiling fan,x,sounds/animalfarm_chinese.wav,,,,,,,,,0,1,1,1,0,204,204,149,1039.83312508,9.62160993367e-06,1041.31452719,1.48141301377,,,,x,1,1.46725805232,2018_Nov_13_1540,59.9892257552,chinese_cond1,001,1009,
images/glasses01b.jpg,calculator,x,sounds/animalfarm_chinese.wav,,,,,,,,,0,1,1,1,0,205,205,142,1042.40604775,9.62160993367e-06,1043.59843495,1.1923977898,,,,x,1,1.18387113744,2018_Nov_13_1540,59.9892257552,chinese_cond1,001,1009,
images/mirror02.jpg,8 ball,x,sounds/animalfarm_chinese.wav,,,,,,,,,0,1,1,1,0,206,206,121,1044.77021143,8.98016151041e-06,1045.58224631,0.812044497929,,,,x,1,0.800435088342,2018_Nov_13_1540,59.9892257552,chinese_cond1,001,1009,
images/button07.jpg,radish,x,sounds/animalfarm_chinese.wav,,,,,,,,,0,1,1,1,0,207,207,215,1046.69441897,8.98016151041e-06,1047.94950879,1.25509944232,,,,x,1,1.23386459472,2018_Nov_13_1540,59.9892257552,chinese_cond1,001,1009,
images/diploma01.jpg,glasses,x,sounds/animalfarm_chinese.wav,,,,,,,,,0,1,1,1,0,208,208,179,1049.08017189,9.62160993367e-06,1050.45012489,1.36996357911,,,,x,1,1.35056934145,2018_Nov_13_1540,59.9892257552,chinese_cond1,001,1009,
images/banana04a.jpg,banana,z,sounds/animalfarm_chinese.wav,,,,,,,,,0,1,1,1,0,209,209,118,1051.63385844,9.94221772999e-06,1052.60064407,0.966795574524,,,,z,1,0.950438551954,2018_Nov_13_1540,59.9892257552,chinese_cond1,001,1009,
images/peach01.jpg,peach,z,sounds/animalfarm_chinese.wav,,,,,,,,,0,1,1,1,0,210,210,106,1053.72778054,9.30088572204e-06,1054.61782245,0.890052174684,,,,z,1,0.867129700258,2018_Nov_13_1540,59.9892257552,chinese_cond1,001,1009,
,,,sounds/animalfarm_chinese.wav,,,,,,,,,0,1,1,1,,,,,,,,,,,,,,,2018_Nov_13_1540,59.9892257552,chinese_cond1,001,1009,
