images,name,corrAns,sounds,trials_3.thisRepN,trials_3.thisTrialN,trials_3.thisN,trials_3.thisIndex,trials_4.thisRepN,trials_4.thisTrialN,trials_4.thisN,trials_4.thisIndex,trials_2.thisRepN,trials_2.thisTrialN,trials_2.thisN,trials_2.thisIndex,trials.thisRepN,trials.thisTrialN,trials.thisN,trials.thisIndex,begin_global,begin_routine,end_global,end_routine,key_resp_2.keys,key_resp_2.corr,begin_book,key_resp_1.keys,key_resp_1.corr,key_resp_1.rt,date,frameRate,expName,session,participant,
images/volleyball.jpg,volley ball,z,,0,0,0,0,,,,,,,,,,,,,,,,,,,,,,,2018_Nov_13_1540,59.987148155,chinese_cond1,001,1011,
images/puma.jpg,puma,z,,,,,,0,0,0,0,,,,,,,,,48.239220028,9.94245056063e-06,51.0051129617,2.76590415905,None,0,,,,,2018_Nov_13_1540,59.987148155,chinese_cond1,001,1011,
images/highlighter03b.jpg,coin,x,sounds/greatgatsby_english.wav,,,,,,,,,0,0,0,0,0,0,0,156,93.2620423367,8.98027792573e-06,95.5667468902,2.30471449578,,,83.0019833494,x,1,2.28415199951,2018_Nov_13_1540,59.987148155,chinese_cond1,001,1011,
images/globe.jpg,cloud,x,sounds/greatgatsby_english.wav,,,,,,,,,0,0,0,0,0,1,1,154,96.722633852,9.30100213736e-06,98.1840826593,1.4614587496,,,,x,1,1.45060517173,2018_Nov_13_1540,59.987148155,chinese_cond1,001,1011,
images/aloe02.jpg,broad sword,x,sounds/greatgatsby_english.wav,,,,,,,,,0,0,0,0,0,2,2,137,99.3513132634,9.30100213736e-06,100.884779397,1.5334757556,,,,x,1,1.5172943318,2018_Nov_13_1540,59.987148155,chinese_cond1,001,1011,
images/gps.jpg,gps,z,sounds/greatgatsby_english.wav,,,,,,,,,0,0,0,0,0,3,3,21,102.046547452,8.65943729877e-06,103.735502531,1.68896470056,,,,z,1,1.66732457594,2018_Nov_13_1540,59.987148155,chinese_cond1,001,1011,
images/tank.jpg,wallet,x,sounds/greatgatsby_english.wav,,,,,,,,,0,0,0,0,0,4,4,237,104.911606571,8.98016151041e-06,106.152803854,1.24120690522,,,,x,1,1.2172203731,2018_Nov_13_1540,59.987148155,chinese_cond1,001,1011,
images/wallet01.jpg,lamp,x,sounds/greatgatsby_english.wav,,,,,,,,,0,0,0,0,0,5,5,193,107.288733524,8.98027792573e-06,108.33668542,1.0479615184,,,,x,1,1.03382951277,2018_Nov_13_1540,59.987148155,chinese_cond1,001,1011,
images/mattress.jpg,cat,x,sounds/greatgatsby_english.wav,,,,,,,,,0,0,0,0,0,6,6,147,109.494791784,9.621726349e-06,110.504124815,1.00934906758,,,,x,1,1.00066678261,2018_Nov_13_1540,59.987148155,chinese_cond1,001,1011,
images/pouch01b.jpg,pouch,z,sounds/greatgatsby_english.wav,,,,,,,,,0,0,0,0,0,7,7,25,111.688887727,9.30100213736e-06,112.521106121,0.8322283366,,,,x,0,0.817110108561,2018_Nov_13_1540,59.987148155,chinese_cond1,001,1011,
images/ostrich.jpg,ostrich,z,sounds/greatgatsby_english.wav,,,,,,,,,0,0,0,0,0,8,8,76,113.689138212,8.98027792573e-06,114.671509045,0.982380455476,,,,x,0,0.966991216643,2018_Nov_13_1540,59.987148155,chinese_cond1,001,1011,
images/lollipop03b.jpg,lollipop,z,sounds/greatgatsby_english.wav,,,,,,,,,0,0,0,0,0,9,9,42,115.86753157,9.30100213736e-06,118.589322563,2.72180125583,,,,z,1,2.70093343139,2018_Nov_13_1540,59.987148155,chinese_cond1,001,1011,
images/bowl02b (1).jpg,bowl,z,sounds/greatgatsby_english.wav,,,,,,,,,0,0,0,0,0,10,10,24,119.777843704,9.30088572204e-06,120.623193449,0.845359687344,,,,z,1,0.833800198627,2018_Nov_13_1540,59.987148155,chinese_cond1,001,1011,
images/candle08a.jpg,screw driver,x,sounds/greatgatsby_english.wav,,,,,,,,,0,0,0,0,0,11,11,221,121.805575636,9.30088572204e-06,123.023779025,1.21821236843,,,,x,1,1.2005139261,2018_Nov_13_1540,59.987148155,chinese_cond1,001,1011,
images/cake.jpg,cake,z,sounds/greatgatsby_english.wav,,,,,,,,,0,0,0,0,0,12,12,23,124.155070402,9.30088572204e-06,125.390897825,1.23583704454,,,,x,0,1.21705199359,2018_Nov_13_1540,59.987148155,chinese_cond1,001,1011,
images/croissant02b.jpg,croissant,z,sounds/greatgatsby_english.wav,,,,,,,,,0,0,0,0,0,13,13,39,126.596430099,9.30100213736e-06,127.724986995,1.12856651703,,,,z,1,1.11718951946,2018_Nov_13_1540,59.987148155,chinese_cond1,001,1011,
images/blueberry02.jpg,blueberry,z,sounds/greatgatsby_english.wav,,,,,,,,,0,0,0,0,0,14,14,46,128.86626215,8.98016151041e-06,130.058927029,1.19267417968,,,,z,1,1.18387194443,2018_Nov_13_1540,59.987148155,chinese_cond1,001,1011,
images/pipe.jpg,icecube,x,sounds/greatgatsby_english.wav,,,,,,,,,0,0,0,0,0,15,15,188,131.231458217,8.98027792573e-06,132.876303658,1.64485474152,,,,z,0,1.63396716688,2018_Nov_13_1540,59.987148155,chinese_cond1,001,1011,
images/handbag02a.jpg,candle,x,sounds/greatgatsby_english.wav,,,,,,,,,0,0,0,0,0,16,16,144,134.060502419,9.94233414531e-06,135.69369504,1.63320320542,,,,z,0,1.61730177258,2018_Nov_13_1540,59.987148155,chinese_cond1,001,1011,
images/kiwi03.jpg,backpack,x,sounds/greatgatsby_english.wav,,,,,,,,,0,0,0,0,0,17,17,125,136.902195604,8.98027792573e-06,138.277707397,1.37552141503,,,,x,1,1.35058939212,2018_Nov_13_1540,59.987148155,chinese_cond1,001,1011,
images/donut.jpg,rhinoceros,x,sounds/greatgatsby_english.wav,,,,,,,,,0,0,0,0,0,18,18,216,139.494535847,9.621726349e-06,140.795002049,1.30047678645,,,,x,1,1.28388195101,2018_Nov_13_1540,59.987148155,chinese_cond1,001,1011,
images/hammer02a.jpg,flower,x,sounds/greatgatsby_english.wav,,,,,,,,,0,0,0,0,0,19,19,176,141.967066266,9.30100213736e-06,142.812409917,0.845369950403,,,,x,1,0.833931694971,2018_Nov_13_1540,59.987148155,chinese_cond1,001,1011,
images/screwdriver02b.jpg,cola,x,sounds/greatgatsby_english.wav,,,,,,,,,0,0,0,0,0,20,20,158,143.981777176,9.30100213736e-06,145.079431153,1.09766359907,,,,x,1,1.08382826205,2018_Nov_13_1540,59.987148155,chinese_cond1,001,1011,
images/acousticguitar02.jpg,acoustic guitar,z,sounds/greatgatsby_english.wav,,,,,,,,,0,0,0,0,0,21,21,97,146.225521319,9.62160993367e-06,147.463375068,1.23786369152,,,,z,1,1.21720369556,2018_Nov_13_1540,59.987148155,chinese_cond1,001,1011,
images/thumbtack02a.jpg,thumb tack,z,sounds/greatgatsby_english.wav,,,,,,,,,0,0,0,0,0,22,22,60,148.619794109,9.621726349e-06,149.763968277,1.14418411022,,,,x,0,1.13384208514,2018_Nov_13_1540,59.987148155,chinese_cond1,001,1011,
images/radio03a.jpg,radio,z,sounds/greatgatsby_english.wav,,,,,,,,,0,0,0,0,0,23,23,37,150.912460014,9.30088572204e-06,152.548014117,1.63556372467,,,,z,1,1.61731620505,2018_Nov_13_1540,59.987148155,chinese_cond1,001,1011,
images/cherry01.jpg,highlighter,x,sounds/greatgatsby_english.wav,,,,,,,,,0,0,0,0,0,24,24,187,153.685651635,8.98016151041e-06,155.098673876,1.41303218319,,,,x,1,1.40059583867,2018_Nov_13_1540,59.987148155,chinese_cond1,001,1011,
images/pineapple01a.jpg,pineapple,z,sounds/greatgatsby_english.wav,,,,,,,,,0,0,0,0,0,25,25,51,156.303429681,9.30100213736e-06,157.565982929,1.26256319042,,,,z,1,1.2505649532,2018_Nov_13_1540,59.987148155,chinese_cond1,001,1011,
images/daisy.jpg,daisy,z,sounds/greatgatsby_english.wav,,,,,,,,,0,0,0,0,0,26,26,6,158.691869166,9.62160993367e-06,160.149978929,1.4581197052,,,,z,1,1.43394715386,2018_Nov_13_1540,59.987148155,chinese_cond1,001,1011,
images/eraser.jpg,eraser,z,sounds/greatgatsby_english.wav,,,,,,,,,0,0,0,0,0,27,27,110,161.337178692,8.98027792573e-06,162.450552573,1.11338350293,,,,z,1,1.10050840967,2018_Nov_13_1540,59.987148155,chinese_cond1,001,1011,
images/calculator02b.jpg,dice,x,sounds/greatgatsby_english.wav,,,,,,,,,0,0,0,0,0,28,28,165,163.628564913,9.30088572204e-06,165.134579106,1.50602413504,,,,x,1,1.48394590302,2018_Nov_13_1540,59.987148155,chinese_cond1,001,1011,
images/envelope02a.jpg,grand piano,x,sounds/greatgatsby_english.wav,,,,,,,,,0,0,0,0,0,29,29,182,166.329210015,9.30088572204e-06,168.202027417,1.87282734399,,,,x,1,1.850679836,2018_Nov_13_1540,59.987148155,chinese_cond1,001,1011,
images/rubberglove02a.jpg,lady bug,x,sounds/greatgatsby_english.wav,,,,,,,,,0,0,0,0,0,30,30,192,169.375356884,9.30088572204e-06,170.5526306,1.17728333734,,,,x,1,1.16719789046,2018_Nov_13_1540,59.987148155,chinese_cond1,001,1011,
images/hairpin.jpg,hair pin,z,sounds/greatgatsby_english.wav,,,,,,,,,0,0,0,0,0,31,31,28,171.670261113,8.98027792573e-06,172.869889524,1.19963739091,,,,z,1,1.18386552995,2018_Nov_13_1540,59.987148155,chinese_cond1,001,1011,
images/squirrel.jpg,binder,x,sounds/greatgatsby_english.wav,,,,,,,,,0,0,0,0,0,32,32,132,174.079726218,9.30088572204e-06,176.07098492,1.99128435983,,,,x,1,1.96759962768,2018_Nov_13_1540,59.987148155,chinese_cond1,001,1011,
images/ashtray02b.jpg,ashtray,z,sounds/greatgatsby_english.wav,,,,,,,,,0,0,0,0,0,33,33,43,177.21461835,9.62160993367e-06,178.921438005,1.70682927733,,,,z,1,1.68400119571,2018_Nov_13_1540,59.987148155,chinese_cond1,001,1011,
images/dryingmachine01.jpg,drying machine,z,sounds/greatgatsby_english.wav,,,,,,,,,0,0,0,0,0,34,34,18,180.110624646,8.98027792573e-06,181.58878856,1.47817321459,,,,z,1,1.46726703818,2018_Nov_13_1540,59.987148155,chinese_cond1,001,1011,
images/umbrella01.jpg,umbrella,z,sounds/greatgatsby_english.wav,,,,,,,,,0,0,0,0,0,35,35,53,182.774886641,9.621726349e-06,184.122773944,1.34789692482,,,,z,1,1.33390924439,2018_Nov_13_1540,59.987148155,chinese_cond1,001,1011,
images/honeycomb.jpg,honey comb,z,sounds/greatgatsby_english.wav,,,,,,,,,0,0,0,0,0,36,36,59,185.268200213,8.98027792573e-06,186.52324438,1.25505378842,,,,z,1,1.23373727291,2018_Nov_13_1540,59.987148155,chinese_cond1,001,1011,
images/egg01b (1).jpg,egg,z,sounds/greatgatsby_english.wav,,,,,,,,,0,0,0,0,0,37,37,19,187.666213592,9.30100213736e-06,188.623933677,0.957729706424,,,,z,1,0.933783906046,2018_Nov_13_1540,59.987148155,chinese_cond1,001,1011,
images/panda.jpg,panda,z,sounds/greatgatsby_english.wav,,,,,,,,,0,0,0,0,0,38,38,83,189.845451414,8.98016151041e-06,190.80781845,0.96237665799,,,,x,0,0.950473675388,2018_Nov_13_1540,59.987148155,chinese_cond1,001,1011,
images/bowlingball.jpg,bowling ball,z,sounds/greatgatsby_english.wav,,,,,,,,,0,0,0,0,0,39,39,20,192.029961276,8.98027792573e-06,193.675076444,1.64512543147,,,,z,1,1.6338363121,2018_Nov_13_1540,59.987148155,chinese_cond1,001,1011,
images/stapler03a.jpg,candy cane,x,sounds/greatgatsby_english.wav,,,,,,,,,0,0,0,0,0,40,40,145,194.868129077,9.30088572204e-06,197.126117478,2.25800026802,,,,x,1,2.23415357096,2018_Nov_13_1540,59.987148155,chinese_cond1,001,1011,
images/gluestick.jpg,squirrel,x,sounds/greatgatsby_english.wav,,,,,,,,,0,0,0,0,0,41,41,226,198.257583008,8.98027792573e-06,199.960181952,1.70260888699,,,,x,1,1.68401594891,2018_Nov_13_1540,59.987148155,chinese_cond1,001,1011,
images/desktopcomputer.jpg,desktop computer,z,sounds/greatgatsby_english.wav,,,,,,,,,0,0,0,0,0,42,42,16,201.155628459,9.30100213736e-06,202.344106944,1.18848810671,,,,z,1,1.16719564528,2018_Nov_13_1540,59.987148155,chinese_cond1,001,1011,
images/cookingpot.jpg,grasshopper,x,sounds/greatgatsby_english.wav,,,,,,,,,0,0,0,0,0,43,43,183,203.533660813,8.98027792573e-06,204.611361025,1.07770919299,,,,x,1,1.0671734513,2018_Nov_13_1540,59.987148155,chinese_cond1,001,1011,
images/peach01.jpg,peach,z,sounds/greatgatsby_english.wav,,,,,,,,,0,0,0,0,0,44,44,106,205.809862737,8.98016151041e-06,206.711908884,0.902056089253,,,,z,1,0.883807607344,2018_Nov_13_1540,59.987148155,chinese_cond1,001,1011,
images/hand01a.jpg,cupcake,x,sounds/greatgatsby_english.wav,,,,,,,,,0,0,0,0,0,45,45,163,207.855785421,9.62160993367e-06,208.962486345,1.10671054572,,,,x,1,1.08384750527,2018_Nov_13_1540,59.987148155,chinese_cond1,001,1011,
images/hairband.jpg,hairband,z,sounds/greatgatsby_english.wav,,,,,,,,,0,0,0,0,0,46,46,66,210.171568058,9.62160993367e-06,211.129690971,0.95813317562,,,,z,1,0.933801866486,2018_Nov_13_1540,59.987148155,chinese_cond1,001,1011,
images/remotecontrol01c.jpg,remote control,z,sounds/greatgatsby_english.wav,,,,,,,,,0,0,0,0,0,47,47,85,212.328518858,8.98027792573e-06,215.330621195,3.00211227988,,,,None,0,,2018_Nov_13_1540,59.987148155,chinese_cond1,001,1011,
images/corkscrew02a.jpg,masquerade mask,x,sounds/greatgatsby_english.wav,,,,,,,,,0,0,0,0,0,48,48,201,216.50279574,9.30088572204e-06,218.048132464,1.54535372183,,,,x,1,1.53395459463,2018_Nov_13_1540,59.987148155,chinese_cond1,001,1011,
images/banana04a.jpg,banana,z,sounds/greatgatsby_english.wav,,,,,,,,,0,0,0,0,0,49,49,118,219.227001133,9.30100213736e-06,220.165336095,0.93834426254,,,,z,1,0.917129736743,2018_Nov_13_1540,59.987148155,chinese_cond1,001,1011,
images/parrot01.jpg,chameleon,x,sounds/greatgatsby_english.wav,,,,,,,,,0,0,0,0,0,50,50,150,221.352657092,9.94233414531e-06,223.216120936,1.86347378639,,,,x,1,1.85070004151,2018_Nov_13_1540,59.987148155,chinese_cond1,001,1011,
images/nametag01a.jpg,name tag,z,sounds/greatgatsby_english.wav,,,,,,,,,0,0,0,0,0,51,51,108,224.408945855,1.02631747723e-05,225.63340943,1.22447383835,,,,z,1,1.20054503623,2018_Nov_13_1540,59.987148155,chinese_cond1,001,1011,
images/nailpolish02b.jpg,nail polish,z,sounds/greatgatsby_english.wav,,,,,,,,,0,0,0,0,0,52,52,94,226.772963908,9.30100213736e-06,228.06737679,1.29442218272,,,,z,1,1.28389638348,2018_Nov_13_1540,59.987148155,chinese_cond1,001,1011,
images/toucan.jpg,toucan,z,sounds/greatgatsby_english.wav,,,,,,,,,0,0,0,0,0,53,53,81,229.208612817,9.30100213736e-06,230.334614514,1.12601131899,,,,x,0,1.11716610671,2018_Nov_13_1540,59.987148155,chinese_cond1,001,1011,
images/doll.jpg,carrot,x,sounds/greatgatsby_english.wav,,,,,,,,,0,0,0,0,0,54,54,146,231.473008617,9.621726349e-06,232.53519066,1.06219166517,,,,x,1,1.05051735789,2018_Nov_13_1540,59.987148155,chinese_cond1,001,1011,
images/cactus.jpg,cactus,z,sounds/greatgatsby_english.wav,,,,,,,,,0,0,0,0,0,55,55,70,233.703771186,8.98027792573e-06,234.619041693,0.915280449553,,,,z,1,0.900455041439,2018_Nov_13_1540,59.987148155,chinese_cond1,001,1011,
images/carrot02.jpg,corkscrew,x,sounds/greatgatsby_english.wav,,,,,,,,,0,0,0,0,0,56,56,161,235.797185209,9.30088572204e-06,237.153040227,1.35586496035,,,,x,1,1.33392303542,2018_Nov_13_1540,59.987148155,chinese_cond1,001,1011,
images/tissuebox03.jpg,tissue box,z,sounds/greatgatsby_english.wav,,,,,,,,,0,0,0,0,0,57,57,58,238.300821243,9.621726349e-06,239.30357593,1.00276398857,,,,z,1,0.983812161721,2018_Nov_13_1540,59.987148155,chinese_cond1,001,1011,
images/swallow.jpg,mattress,x,sounds/greatgatsby_english.wav,,,,,,,,,0,0,0,0,0,58,58,202,240.484575803,9.62160993367e-06,241.854232161,1.36966630083,,,,x,1,1.35058137414,2018_Nov_13_1540,59.987148155,chinese_cond1,001,1011,
images/beachumbrella01.jpg,beach umbrella,z,sounds/greatgatsby_english.wav,,,,,,,,,0,0,0,0,0,59,59,92,243.073621261,9.30100213736e-06,244.688296956,1.61468563718,,,,z,1,1.60063285008,2018_Nov_13_1540,59.987148155,chinese_cond1,001,1011,
images/ladder.jpg,ladder,z,sounds/greatgatsby_english.wav,,,,,,,,,0,0,0,0,0,60,60,113,245.821161478,9.621726349e-06,247.055566816,1.23441528075,,,,z,1,1.21721363789,2018_Nov_13_1540,59.987148155,chinese_cond1,001,1011,
images/camera01a.jpg,bull,x,sounds/greatgatsby_english.wav,,,,,,,,,0,0,0,0,0,61,61,138,248.195697633,9.30088572204e-06,249.289485298,1.09379760723,,,,x,1,1.08385648555,2018_Nov_13_1540,59.987148155,chinese_cond1,001,1011,
images/flower01.jpg,bus,x,sounds/greatgatsby_english.wav,,,,,,,,,0,0,0,0,0,62,62,140,250.46655343,3.11101321131e-05,252.540320299,2.07379188552,,,,z,0,2.05077201163,2018_Nov_13_1540,59.987148155,chinese_cond1,001,1011,
images/bicycle.jpg,hand bag,x,sounds/greatgatsby_english.wav,,,,,,,,,0,0,0,0,0,63,63,186,253.717065464,9.621726349e-06,254.990930603,1.2738750811,,,,x,1,1.25055565219,2018_Nov_13_1540,59.987148155,chinese_cond1,001,1011,
images/mailbox01.jpg,mail box,z,sounds/greatgatsby_english.wav,,,,,,,,,0,0,0,0,0,64,64,73,256.137723792,8.98027792573e-06,257.591604505,1.4538903347,,,,z,1,1.43393304199,2018_Nov_13_1540,59.987148155,chinese_cond1,001,1011,
images/lemon02.jpg,lemon,z,sounds/greatgatsby_english.wav,,,,,,,,,0,0,0,0,0,65,65,14,258.801859422,8.98027792573e-06,259.742161055,0.94031125505,,,,z,1,0.917142565828,2018_Nov_13_1540,59.987148155,chinese_cond1,001,1011,
images/doorhandle.jpg,doll,x,sounds/greatgatsby_english.wav,,,,,,,,,0,0,0,0,0,66,66,168,260.922785682,9.30088572204e-06,262.192775207,1.26999914681,,,,x,1,1.25054506829,2018_Nov_13_1540,59.987148155,chinese_cond1,001,1011,
images/lightswitch02a.jpg,fork,x,sounds/greatgatsby_english.wav,,,,,,,,,0,0,0,0,0,67,67,177,263.338224889,8.98016151041e-06,265.126709212,1.78849394375,,,,x,1,1.76719378517,2018_Nov_13_1540,59.987148155,chinese_cond1,001,1011,
images/skateboard.jpg,key,x,sounds/greatgatsby_english.wav,,,,,,,,,0,0,0,0,0,68,68,189,266.28487555,8.98016151041e-06,267.260768747,0.975902818376,,,,x,1,0.967167293536,2018_Nov_13_1540,59.987148155,chinese_cond1,001,1011,
images/marker01a.jpg,marker,z,sounds/greatgatsby_english.wav,,,,,,,,,0,0,0,0,0,69,69,95,268.457530538,9.30100213736e-06,269.611356215,1.15383561933,,,,z,1,1.13385940413,2018_Nov_13_1540,59.987148155,chinese_cond1,001,1011,
images/antelope.jpg,antelope,z,sounds/greatgatsby_english.wav,,,,,,,,,0,0,0,0,0,70,70,12,270.733133673,9.62160993367e-06,271.895261258,1.16213720641,,,,z,1,1.15050908318,2018_Nov_13_1540,59.987148155,chinese_cond1,001,1011,
images/ladybug03.jpg,giraffe,x,sounds/greatgatsby_english.wav,,,,,,,,,0,0,0,0,0,71,71,178,273.00017319,9.62160993367e-06,274.062333425,1.06217017677,,,,x,1,1.05033967737,2018_Nov_13_1540,59.987148155,chinese_cond1,001,1011,
images/cigar.jpg,crocodile,x,sounds/greatgatsby_english.wav,,,,,,,,,0,0,0,0,0,72,72,162,275.180459775,8.98016151041e-06,276.696490139,1.51603966439,,,,x,1,1.50060199667,2018_Nov_13_1540,59.987148155,chinese_cond1,001,1011,
images/glasses01b.jpg,calculator,x,sounds/greatgatsby_english.wav,,,,,,,,,0,0,0,0,0,73,73,142,277.847978709,8.98027792573e-06,278.913746753,1.06577766605,,,,x,1,1.05051030195,2018_Nov_13_1540,59.987148155,chinese_cond1,001,1011,
images/crocodile.jpg,triangle ruler,x,sounds/greatgatsby_english.wav,,,,,,,,,0,0,0,0,0,74,74,235,280.038526176,9.621726349e-06,281.464470015,1.42595346062,,,,x,1,1.41734333814,2018_Nov_13_1540,59.987148155,chinese_cond1,001,1011,
images/lion.jpg,lion,z,sounds/greatgatsby_english.wav,,,,,,,,,0,0,0,0,0,75,75,44,282.646093052,9.30100213736e-06,283.414898469,0.768815038493,,,,z,1,0.750432815286,2018_Nov_13_1540,59.987148155,chinese_cond1,001,1011,
images/lip.jpg,boxing glove,x,sounds/greatgatsby_english.wav,,,,,,,,,0,0,0,0,0,76,76,136,284.585427386,9.30100213736e-06,285.948884494,1.36346705118,,,,x,1,1.35058297776,2018_Nov_13_1540,59.987148155,chinese_cond1,001,1011,
images/bullet (2).jpg,rubber glove,x,sounds/greatgatsby_english.wav,,,,,,,,,0,0,0,0,0,77,77,217,287.140885156,9.62160993367e-06,288.382829082,1.24195418926,,,,x,1,1.21721524152,2018_Nov_13_1540,59.987148155,chinese_cond1,001,1011,
images/medal01.jpg,medal,z,sounds/greatgatsby_english.wav,,,,,,,,,0,0,0,0,0,78,78,115,289.522593954,9.30088572204e-06,291.100205327,1.57762195636,,,,x,0,1.5673123243,2018_Nov_13_1540,59.987148155,chinese_cond1,001,1011,
images/teapot.jpg,light switch,x,sounds/greatgatsby_english.wav,,,,,,,,,0,0,0,0,0,79,79,197,292.279650656,9.30100213736e-06,293.684186253,1.40454521833,,,,x,1,1.38392627484,2018_Nov_13_1540,59.987148155,chinese_cond1,001,1011,
images/ear.jpg,bullet,x,sounds/greatgatsby_english.wav,,,,,,,,,0,0,0,0,0,80,80,139,294.852894426,9.30100213736e-06,297.13506917,2.28218404483,,,,x,1,2.26748564281,2018_Nov_13_1540,59.987148155,chinese_cond1,001,1011,
images/cauliflower01.jpg,glue stick,x,sounds/greatgatsby_english.wav,,,,,,,,,0,0,0,0,0,81,81,181,298.375520774,9.30100213736e-06,299.352306862,0.976796031231,,,,x,1,0.967154464568,2018_Nov_13_1540,59.987148155,chinese_cond1,001,1011,
images/giraffe.jpg,lettuce,x,sounds/greatgatsby_english.wav,,,,,,,,,0,0,0,0,0,82,82,195,300.553649536,3.43173742294e-05,301.352831244,0.799198064837,,,,x,1,0.783783489023,2018_Nov_13_1540,59.987148155,chinese_cond1,001,1011,
images/dreamcatcher.jpg,dream catcher,z,sounds/greatgatsby_english.wav,,,,,,,,,0,0,0,0,0,83,83,48,302.523957667,9.30100213736e-06,304.220228111,1.69628006546,,,,z,1,1.6840079308,2018_Nov_13_1540,59.987148155,chinese_cond1,001,1011,
images/snowman.jpg,globe,x,sounds/greatgatsby_english.wav,,,,,,,,,0,0,0,0,0,84,84,180,305.404224175,9.30088572204e-06,306.454122859,1.04990798456,,,,x,1,1.03383400291,2018_Nov_13_1540,59.987148155,chinese_cond1,001,1011,
images/parkfountain.jpg,park fountain,z,sounds/greatgatsby_english.wav,,,,,,,,,0,0,0,0,0,85,85,93,307.638012122,9.30088572204e-06,309.05478746,1.41678463912,,,,z,1,1.40058653778,2018_Nov_13_1540,59.987148155,chinese_cond1,001,1011,
images/tie01.jpg,bench,x,sounds/greatgatsby_english.wav,,,,,,,,,0,0,0,0,0,86,86,130,310.221437877,9.30088572204e-06,312.172096289,1.95066835405,,,,x,1,1.9339022527,2018_Nov_13_1540,59.987148155,chinese_cond1,001,1011,
images/atm.jpg,atm,z,sounds/greatgatsby_english.wav,,,,,,,,,0,0,0,0,0,87,87,96,313.404239249,9.30100213736e-06,314.656224362,1.25199441426,,,,x,0,1.23388031521,2018_Nov_13_1540,59.987148155,chinese_cond1,001,1011,
images/table02.jpg,table,z,sounds/greatgatsby_english.wav,,,,,,,,,0,0,0,0,0,88,88,49,315.772666919,8.98027792573e-06,316.823458494,1.05080119742,,,,z,1,1.03384298307,2018_Nov_13_1540,59.987148155,chinese_cond1,001,1011,
images/electricguitar02.jpg,electric guitar,z,sounds/greatgatsby_english.wav,,,,,,,,,0,0,0,0,0,89,89,100,318.017189776,9.30100213736e-06,319.174047566,1.15686741134,,,,z,1,1.13385812135,2018_Nov_13_1540,59.987148155,chinese_cond1,001,1011,
images/knife04.jpg,tooth brush,x,sounds/greatgatsby_english.wav,,,,,,,,,0,0,0,0,0,90,90,233,320.300663126,9.62160993367e-06,321.591326759,1.29067357548,,,,x,1,1.26721944299,2018_Nov_13_1540,59.987148155,chinese_cond1,001,1011,
images/sock03.jpg,sock,z,sounds/greatgatsby_english.wav,,,,,,,,,0,0,0,0,0,91,91,90,322.771758953,9.621726349e-06,323.958635427,1.18688641733,,,,z,1,1.16722835903,2018_Nov_13_1540,59.987148155,chinese_cond1,001,1011,
images/banjo.jpg,knife,x,sounds/greatgatsby_english.wav,,,,,,,,,0,0,0,0,0,92,92,191,325.095368507,9.62160993367e-06,326.642628605,1.54727164377,,,,x,1,1.53395748115,2018_Nov_13_1540,59.987148155,chinese_cond1,001,1011,
images/ruler02b.jpg,watermelon,x,sounds/greatgatsby_english.wav,,,,,,,,,0,0,0,0,0,93,93,238,327.830902148,9.621726349e-06,328.809844135,0.978951929486,,,,x,1,0.967117902241,2018_Nov_13_1540,59.987148155,chinese_cond1,001,1011,
images/hat05.jpg,hat,z,sounds/greatgatsby_english.wav,,,,,,,,,0,0,0,0,0,94,94,15,330.003813073,9.94245056063e-06,330.877062808,0.87325967825,,,,z,1,0.850468158955,2018_Nov_13_1540,59.987148155,chinese_cond1,001,1011,
images/pen03c.jpg,pepper,x,sounds/greatgatsby_english.wav,,,,,,,,,0,0,0,0,0,95,95,211,331.995276396,9.30100213736e-06,333.32767696,1.33241018641,,,,x,1,1.31724256708,2018_Nov_13_1540,59.987148155,chinese_cond1,001,1011,
images/key03b.jpg,cigar,x,sounds/greatgatsby_english.wav,,,,,,,,,0,0,0,0,0,96,96,153,334.455060331,8.98016151041e-06,335.328188513,0.873138124356,,,,x,1,0.850454688538,2018_Nov_13_1540,59.987148155,chinese_cond1,001,1011,
images/tape01a.jpg,tie,x,sounds/greatgatsby_english.wav,,,,,,,,,0,0,0,0,0,97,97,232,336.522117039,8.98027792573e-06,337.76215491,1.24004749267,,,,z,0,1.21721941093,2018_Nov_13_1540,59.987148155,chinese_cond1,001,1011,
images/paperclip04.jpg,eye drops,x,sounds/greatgatsby_english.wav,,,,,,,,,0,0,0,0,0,98,98,174,338.930272954,9.94233414531e-06,340.646242509,1.71597949683,,,,x,1,1.70069417229,2018_Nov_13_1540,59.987148155,chinese_cond1,001,1011,
images/diaper01a.jpg,camera,x,sounds/greatgatsby_english.wav,,,,,,,,,0,0,0,0,0,99,99,143,341.835937816,9.94245056063e-06,343.030175198,1.19424732472,,,,x,1,1.18382223241,2018_Nov_13_1540,59.987148155,chinese_cond1,001,1011,
images/cat.jpg,black olive,x,sounds/greatgatsby_english.wav,,,,,,,,,0,0,0,0,0,100,100,133,344.227744248,8.98016151041e-06,345.297402338,1.06966803269,,,,x,1,1.0504868892,2018_Nov_13_1540,59.987148155,chinese_cond1,001,1011,
images/coffeepot03b.jpg,coffee pot,z,sounds/greatgatsby_english.wav,,,,,,,,,0,0,0,0,0,101,101,107,346.468054733,9.94233414531e-06,347.431288042,0.963243250852,,,,z,1,0.950473675504,2018_Nov_13_1540,59.987148155,chinese_cond1,001,1011,
images/flamingo.jpg,flamingo,z,sounds/greatgatsby_english.wav,,,,,,,,,0,0,0,0,0,102,102,52,348.600320466,9.30100213736e-06,349.498501583,0.898191380431,,,,x,0,0.883811776759,2018_Nov_13_1540,59.987148155,chinese_cond1,001,1011,
images/leek.jpg,donut,x,sounds/greatgatsby_english.wav,,,,,,,,,0,0,0,0,0,103,103,169,350.671335855,9.30088572204e-06,351.632360025,0.961033150554,,,,x,1,0.95047078887,2018_Nov_13_1540,59.987148155,chinese_cond1,001,1011,
images/lily.jpg,kiwi,x,sounds/greatgatsby_english.wav,,,,,,,,,0,0,0,0,0,104,104,190,352.812600426,8.98027792573e-06,353.849601245,1.03701076156,,,,x,1,1.01716123172,2018_Nov_13_1540,59.987148155,chinese_cond1,001,1011,
images/button07.jpg,radish,x,sounds/greatgatsby_english.wav,,,,,,,,,0,0,0,0,0,105,105,215,355.02665238,8.98027792573e-06,356.283570529,1.2569280921,,,,x,1,1.23389282345,2018_Nov_13_1540,59.987148155,chinese_cond1,001,1011,
images/lighter02b.jpg,stapler,x,sounds/greatgatsby_english.wav,,,,,,,,,0,0,0,0,0,106,106,227,357.412892348,9.30088572204e-06,359.651085422,2.23820269539,,,,x,1,2.21746925393,2018_Nov_13_1540,59.987148155,chinese_cond1,001,1011,
images/bowtie.jpg,bowtie,z,sounds/greatgatsby_english.wav,,,,,,,,,0,0,0,0,0,107,107,89,360.849356855,9.30088572204e-06,362.685212245,1.8358653324,,,,z,1,1.81738047779,2018_Nov_13_1540,59.987148155,chinese_cond1,001,1011,
images/candycane01a.jpg,lip,x,sounds/greatgatsby_english.wav,,,,,,,,,0,0,0,0,0,108,108,200,363.854967899,9.30100213736e-06,364.919114048,1.06415577116,,,,x,1,1.05051286775,2018_Nov_13_1540,59.987148155,chinese_cond1,001,1011,
images/floorlamp.jpg,floor lamp,z,sounds/greatgatsby_english.wav,,,,,,,,,0,0,0,0,0,109,109,26,366.052892951,9.30088572204e-06,366.969760016,0.916877007345,,,,z,1,0.900595197221,2018_Nov_13_1540,59.987148155,chinese_cond1,001,1011,
images/sportshorts02.jpg,tape,x,sounds/greatgatsby_english.wav,,,,,,,,,0,0,0,0,0,110,110,230,368.151096647,9.30100213736e-06,369.086855885,0.935769821168,,,,x,1,0.917154432507,2018_Nov_13_1540,59.987148155,chinese_cond1,001,1011,
images/basketball01.jpg,basket ball,z,sounds/greatgatsby_english.wav,,,,,,,,,0,0,0,0,0,111,111,33,370.344417725,9.30088572204e-06,371.370755155,1.02634737222,,,,z,1,1.01710606751,2018_Nov_13_1540,59.987148155,chinese_cond1,001,1011,
images/screw03c.jpg,screw,z,sounds/greatgatsby_english.wav,,,,,,,,,0,0,0,0,0,112,112,84,372.502128958,9.621726349e-06,374.321511707,1.81939237157,,,,z,1,1.80070000933,2018_Nov_13_1540,59.987148155,chinese_cond1,001,1011,
images/toothbrush03a.jpg,parrot,x,sounds/greatgatsby_english.wav,,,,,,,,,0,0,0,0,0,113,113,210,375.491557616,9.30088572204e-06,376.5220731,1.0305254272,,,,x,1,1.01715770387,2018_Nov_13_1540,59.987148155,chinese_cond1,001,1011,
images/elbow.jpg,elbow,z,sounds/greatgatsby_english.wav,,,,,,,,,0,0,0,0,0,114,114,105,377.691780005,8.98027792573e-06,379.089408196,1.39763749228,,,,z,1,1.38393076486,2018_Nov_13_1540,59.987148155,chinese_cond1,001,1011,
images/spoon02b.jpg,spoon,z,sounds/greatgatsby_english.wav,,,,,,,,,0,0,0,0,0,115,115,38,380.210188527,9.621726349e-06,381.189951565,0.979772979626,,,,z,1,0.967164727626,2018_Nov_13_1540,59.987148155,chinese_cond1,001,1011,
images/plate01b.jpg,plate,z,sounds/greatgatsby_english.wav,,,,,,,,,0,0,0,0,0,116,116,3,382.367957169,9.30100213736e-06,383.107111129,0.73916390154,,,,z,1,0.717095611966,2018_Nov_13_1540,59.987148155,chinese_cond1,001,1011,
images/magnifyingglass01b.jpg,magnifying glass,z,sounds/greatgatsby_english.wav,,,,,,,,,0,0,0,0,0,117,117,64,384.300878973,9.621726349e-06,385.907830061,1.60696167173,,,,z,1,1.58398381248,2018_Nov_13_1540,59.987148155,chinese_cond1,001,1011,
images/broadsword.jpg,teapot,x,sounds/greatgatsby_english.wav,,,,,,,,,0,0,0,0,0,118,118,231,387.067929716,9.30088572204e-06,388.358639533,1.29071975953,,,,x,1,1.26741412177,2018_Nov_13_1540,59.987148155,chinese_cond1,001,1011,
images/volleyball.jpg,volley ball,z,sounds/greatgatsby_english.wav,,,,,,,,,0,0,0,0,0,119,119,2,389.491025537,9.30088572204e-06,390.292266926,0.801250690361,,,,z,1,0.783766811481,2018_Nov_13_1540,59.987148155,chinese_cond1,001,1011,
images/birthdaycandle.jpg,birthday candle,z,sounds/greatgatsby_english.wav,,,,,,,,,0,0,0,0,0,120,120,55,391.475830977,9.30100213736e-06,392.642869147,1.16704779223,,,,z,1,1.15052030841,2018_Nov_13_1540,59.987148155,chinese_cond1,001,1011,
images/clothespin02a.jpg,clothes pin,z,sounds/greatgatsby_english.wav,,,,,,,,,0,0,0,0,0,121,121,79,393.814644392,9.30088572204e-06,395.376906296,1.56227120443,,,,z,1,1.55063538381,2018_Nov_13_1540,59.987148155,chinese_cond1,001,1011,
images/bottleofredwine02.jpg,pipe,x,sounds/greatgatsby_english.wav,,,,,,,,,0,0,0,0,0,122,122,213,396.536025181,9.30100213736e-06,397.660836034,1.12482047547,,,,x,1,1.10052861518,2018_Nov_13_1540,59.987148155,chinese_cond1,001,1011,
images/bench02.jpg,electric toothbrush,x,sounds/greatgatsby_english.wav,,,,,,,,,0,0,0,0,0,123,123,172,398.897257115,9.30100213736e-06,400.244838128,1.34759095544,,,,x,1,1.33391790395,2018_Nov_13_1540,59.987148155,chinese_cond1,001,1011,
images/swan.jpg,swan,z,sounds/greatgatsby_english.wav,,,,,,,,,0,0,0,0,0,124,124,54,401.357829708,9.30100213736e-06,402.395390509,1.03757074347,,,,x,0,1.01717149501,2018_Nov_13_1540,59.987148155,chinese_cond1,001,1011,
images/tent.jpg,tent,z,sounds/greatgatsby_english.wav,,,,,,,,,0,0,0,0,0,125,125,11,403.594643353,9.621726349e-06,404.512587405,0.917953994242,,,,z,1,0.900460493634,2018_Nov_13_1540,59.987148155,chinese_cond1,001,1011,
images/axe01.jpg,axe,z,sounds/greatgatsby_english.wav,,,,,,,,,0,0,0,0,0,126,126,104,405.688603567,9.30100213736e-06,406.879856303,1.19126235833,,,,z,1,1.16719083453,2018_Nov_13_1540,59.987148155,chinese_cond1,001,1011,
images/flipflop01b.jpg,flip flop,z,sounds/greatgatsby_english.wav,,,,,,,,,0,0,0,0,0,127,127,27,408.019255551,9.621726349e-06,408.880365611,0.861120322952,,,,z,1,0.850450839964,2018_Nov_13_1540,59.987148155,chinese_cond1,001,1011,
images/tulip02.jpg,sport shorts,x,sounds/greatgatsby_english.wav,,,,,,,,,0,0,0,0,0,128,128,225,410.067185318,9.621726349e-06,411.08094304,1.01376766467,,,,x,1,1.00048589497,2018_Nov_13_1540,59.987148155,chinese_cond1,001,1011,
images/parkingmeter.jpg,ear,x,sounds/greatgatsby_english.wav,,,,,,,,,0,0,0,0,0,129,129,171,412.211056724,8.98027792573e-06,413.24815857,1.03711114777,,,,x,1,1.01716732548,2018_Nov_13_1540,59.987148155,chinese_cond1,001,1011,
images/cloud.jpg,ceiling fan,x,sounds/greatgatsby_english.wav,,,,,,,,,0,0,0,0,0,130,130,149,414.423470425,9.62160993367e-06,415.448723812,1.02526365011,,,,x,1,1.00048493268,2018_Nov_13_1540,59.987148155,chinese_cond1,001,1011,
images/lantern03.jpg,lantern,z,sounds/greatgatsby_english.wav,,,,,,,,,0,0,0,0,0,131,131,5,416.630188733,9.94245056063e-06,418.916286236,2.28610712523,,,,x,0,2.2674894915,2018_Nov_13_1540,59.987148155,chinese_cond1,001,1011,
images/8ball.jpg,nail clipper,x,sounds/greatgatsby_english.wav,,,,,,,,,0,0,0,0,0,132,132,206,420.104518406,9.30100213736e-06,421.716990094,1.61248130992,,,,x,1,1.60063060501,2018_Nov_13_1540,59.987148155,chinese_cond1,001,1011,
images/computerkeyboard01a.jpg,computer keyboard,z,sounds/greatgatsby_english.wav,,,,,,,,,0,0,0,0,0,133,133,61,422.910287759,9.621726349e-06,424.000915022,1.09063720552,,,,z,1,1.06717248925,2018_Nov_13_1540,59.987148155,chinese_cond1,001,1011,
images/battery03b.jpg,battery,z,sounds/greatgatsby_english.wav,,,,,,,,,0,0,0,0,0,134,134,34,425.141632761,8.98027792573e-06,426.101465446,0.959842627752,,,,z,1,0.950484580011,2018_Nov_13_1540,59.987148155,chinese_cond1,001,1011,
images/microphone01.jpg,diaper,x,sounds/greatgatsby_english.wav,,,,,,,,,0,0,0,0,0,135,135,164,427.309489095,8.98027792573e-06,428.335401567,1.02592209389,,,,x,1,1.01719875634,2018_Nov_13_1540,59.987148155,chinese_cond1,001,1011,
images/scissors04a.jpg,leek,x,sounds/greatgatsby_english.wav,,,,,,,,,0,0,0,0,0,136,136,194,429.471320653,9.94245056063e-06,430.502612607,1.0313018969,,,,x,1,1.01717983373,2018_Nov_13_1540,59.987148155,chinese_cond1,001,1011,
images/lock02a.jpg,lock,z,sounds/greatgatsby_english.wav,,,,,,,,,0,0,0,0,0,137,137,65,431.660802679,9.30100213736e-06,432.586439907,0.925646528951,,,,z,1,0.917131981812,2018_Nov_13_1540,59.987148155,chinese_cond1,001,1011,
images/triangleruler02.jpg,bottle of red wine,x,sounds/greatgatsby_english.wav,,,,,,,,,0,0,0,0,0,138,138,134,433.820303224,9.30100213736e-06,435.037069454,1.21677617216,,,,x,1,1.20051777479,2018_Nov_13_1540,59.987148155,chinese_cond1,001,1011,
images/aquarium.jpg,computer mouse,x,sounds/greatgatsby_english.wav,,,,,,,,,0,0,0,0,0,139,139,159,436.243229383,9.94233414531e-06,437.45437174,1.21115261968,,,,x,1,1.20055305422,2018_Nov_13_1540,59.987148155,chinese_cond1,001,1011,
images/redfox.jpg,red fox,z,sounds/greatgatsby_english.wav,,,,,,,,,0,0,0,0,0,140,140,1,438.599250535,9.30100213736e-06,439.988359048,1.38911877584,,,,z,1,1.36726729479,2018_Nov_13_1540,59.987148155,chinese_cond1,001,1011,
images/leaf01a.jpg,leaf,z,sounds/greatgatsby_english.wav,,,,,,,,,0,0,0,0,0,141,141,68,441.176681662,9.30088572204e-06,442.10554953,0.928877489641,,,,z,1,0.917138717137,2018_Nov_13_1540,59.987148155,chinese_cond1,001,1011,
images/comb02a.jpg,diploma,x,sounds/greatgatsby_english.wav,,,,,,,,,0,0,0,0,0,142,142,166,443.283505743,9.621726349e-06,444.706217659,1.42272153764,,,,z,0,1.40055671043,2018_Nov_13_1540,59.987148155,chinese_cond1,001,1011,
images/ant.jpg,ant,z,sounds/greatgatsby_english.wav,,,,,,,,,0,0,0,0,0,143,143,98,445.826236915,9.30088572204e-06,446.740100412,0.91387375968,,,,z,1,0.900487113628,2018_Nov_13_1540,59.987148155,chinese_cond1,001,1011,
images/computermouse02a.jpg,world map,x,sounds/greatgatsby_english.wav,,,,,,,,,0,0,0,0,0,144,144,239,447.912833977,9.62160993367e-06,449.007311837,1.09448780259,,,,x,1,1.08383788366,2018_Nov_13_1540,59.987148155,chinese_cond1,001,1011,
images/backpack01b.jpg,swallow,x,sounds/greatgatsby_english.wav,,,,,,,,,0,0,0,0,0,145,145,228,450.158117268,9.30088572204e-06,451.524628298,1.3665206522,,,,x,1,1.35057335603,2018_Nov_13_1540,59.987148155,chinese_cond1,001,1011,
images/nailclipper03a.jpg,aquarium,x,sounds/greatgatsby_english.wav,,,,,,,,,0,0,0,0,0,146,146,123,452.649140239,9.621726349e-06,453.691867241,1.04273662437,,,,x,1,1.03384907683,2018_Nov_13_1540,59.987148155,chinese_cond1,001,1011,
images/corn01.jpg,corn,z,sounds/greatgatsby_english.wav,,,,,,,,,0,0,0,0,0,147,147,22,454.829447029,9.30100213736e-06,456.375873889,1.54643872695,,,,z,1,1.53395523608,2018_Nov_13_1540,59.987148155,chinese_cond1,001,1011,
images/coin01b.jpg,arrow,x,sounds/greatgatsby_english.wav,,,,,,,,,0,0,0,0,0,148,148,124,457.495881279,9.30100213736e-06,458.443074281,0.947202624287,,,,x,1,0.933808601694,2018_Nov_13_1540,59.987148155,chinese_cond1,001,1011,
images/graduationcap.jpg,graduation cap,z,sounds/greatgatsby_english.wav,,,,,,,,,0,0,0,0,0,149,149,35,459.631474189,9.621726349e-06,460.743661396,1.11219682882,,,,x,0,1.10050584387,2018_Nov_13_1540,59.987148155,chinese_cond1,001,1011,
images/bat.jpg,hand,x,sounds/greatgatsby_english.wav,,,,,,,,,0,0,0,0,0,150,150,185,461.912211133,9.30088572204e-06,462.827525259,0.915323747089,,,,x,1,0.900465946062,2018_Nov_13_1540,59.987148155,chinese_cond1,001,1011,
images/cocktailshrimp01.jpg,cocktail shrimp,z,sounds/greatgatsby_english.wav,,,,,,,,,0,0,0,0,0,151,151,30,464.016942178,9.621726349e-06,465.194800571,1.17786833562,,,,z,1,1.16719500395,2018_Nov_13_1540,59.987148155,chinese_cond1,001,1011,
images/paintbrush03a.jpg,paint brush,z,sounds/greatgatsby_english.wav,,,,,,,,,0,0,0,0,0,152,152,0,466.323489925,8.98016151041e-06,467.39536902,1.07188871689,,,,z,1,1.05049619009,2018_Nov_13_1540,59.987148155,chinese_cond1,001,1011,
images/saltshaker03c.jpg,salt shaker,z,sounds/greatgatsby_english.wav,,,,,,,,,0,0,0,0,0,153,153,63,468.527608133,9.62160993367e-06,469.429217777,0.90161958558,,,,z,1,0.883783873986,2018_Nov_13_1540,59.987148155,chinese_cond1,001,1011,
images/diploma01.jpg,glasses,x,sounds/greatgatsby_english.wav,,,,,,,,,0,0,0,0,0,154,154,179,470.637357206,9.94233414531e-06,471.696479876,1.05913293245,,,,x,1,1.05051735789,2018_Nov_13_1540,59.987148155,chinese_cond1,001,1011,
images/eyedrops.jpg,bicycle,x,sounds/greatgatsby_english.wav,,,,,,,,,0,0,0,0,0,155,155,131,472.82930078,8.98027792573e-06,473.763956731,0.934664931381,,,,x,1,0.917426084634,2018_Nov_13_1540,59.987148155,chinese_cond1,001,1011,
images/apple06.jpg,apple,z,sounds/greatgatsby_english.wav,,,,,,,,,0,0,0,0,0,156,156,13,474.999375553,9.621726349e-06,475.764176746,0.764810815337,,,,z,1,0.750407799031,2018_Nov_13_1540,59.987148155,chinese_cond1,001,1011,
images/charcoalbarbecue.jpg,charcoal barbecue,z,sounds/greatgatsby_english.wav,,,,,,,,,0,0,0,0,0,157,157,77,476.950383552,8.6595537141e-06,479.71518635,2.76481177751,,,,x,0,2.75089561823,2018_Nov_13_1540,59.987148155,chinese_cond1,001,1011,
images/rhinoceros01.jpg,envelope,x,sounds/greatgatsby_english.wav,,,,,,,,,0,0,0,0,0,158,158,173,480.861332321,9.30100213736e-06,482.482561985,1.62123928545,,,,x,1,1.60062835994,2018_Nov_13_1540,59.987148155,chinese_cond1,001,1011,
images/pictureframe04.jpg,picture frame,z,sounds/greatgatsby_english.wav,,,,,,,,,0,0,0,0,0,159,159,41,483.678641277,9.30088572204e-06,485.166588197,1.4879568615,,,,x,0,1.46726639685,2018_Nov_13_1540,59.987148155,chinese_cond1,001,1011,
images/belt02a.jpg,snowman,x,sounds/greatgatsby_english.wav,,,,,,,,,0,0,0,0,0,160,160,224,486.358076344,8.98016151041e-06,487.550525055,1.19245801249,,,,x,1,1.18385494605,2018_Nov_13_1540,59.987148155,chinese_cond1,001,1011,
images/beermug01b.jpg,beer mug,z,sounds/greatgatsby_english.wav,,,,,,,,,0,0,0,0,0,161,161,111,488.696152418,9.30088572204e-06,490.784686965,2.08854384825,,,,z,1,2.06742040778,2018_Nov_13_1540,59.987148155,chinese_cond1,001,1011,
images/mitten01.jpg,mitten,z,sounds/greatgatsby_english.wav,,,,,,,,,0,0,0,0,0,162,162,102,491.964707992,8.98016151041e-06,493.968844994,2.00414662412,,,,x,0,1.98407162644,2018_Nov_13_1540,59.987148155,chinese_cond1,001,1011,
images/chessknight02b (1).jpg,cockroach,x,sounds/greatgatsby_english.wav,,,,,,,,,0,0,0,0,0,163,163,155,495.154384697,9.94233414531e-06,497.169697283,2.01532284904,,,,x,1,2.00076652726,2018_Nov_13_1540,59.987148155,chinese_cond1,001,1011,
images/bed.jpg,bed,z,sounds/greatgatsby_english.wav,,,,,,,,,0,0,0,0,0,164,164,103,498.349104767,9.62160993367e-06,499.103488245,0.754393099574,,,,z,1,0.733745611738,2018_Nov_13_1540,59.987148155,chinese_cond1,001,1011,
images/pepper05a.jpg,lighter,x,sounds/greatgatsby_english.wav,,,,,,,,,0,0,0,0,0,165,165,198,500.286370759,9.621726349e-06,501.170694089,0.884333271999,,,,x,1,0.867122007417,2018_Nov_13_1540,59.987148155,chinese_cond1,001,1011,
images/lipstick04.jpg,lipstick,z,sounds/greatgatsby_english.wav,,,,,,,,,0,0,0,0,0,166,166,56,502.33995134,8.98027792573e-06,503.587971358,1.24802931922,,,,z,1,1.23387614591,2018_Nov_13_1540,59.987148155,chinese_cond1,001,1011,
images/safe.jpg,safe,z,sounds/greatgatsby_english.wav,,,,,,,,,0,0,0,0,0,167,167,78,504.731657065,9.94245056063e-06,505.821892085,1.09024496167,,,,z,1,1.06717794144,2018_Nov_13_1540,59.987148155,chinese_cond1,001,1011,
images/scooter.jpg,pen,x,sounds/greatgatsby_english.wav,,,,,,,,,0,0,0,0,0,168,168,212,506.988415495,9.30100213736e-06,507.922501522,0.934095648583,,,,x,1,0.917216331931,2018_Nov_13_1540,59.987148155,chinese_cond1,001,1011,
images/gorilla.jpg,gorilla,z,sounds/greatgatsby_english.wav,,,,,,,,,0,0,0,0,0,169,169,80,509.087783735,9.30088572204e-06,510.156319938,1.06854582392,,,,x,0,1.05050068023,2018_Nov_13_1540,59.987148155,chinese_cond1,001,1011,
images/bandaid01.jpg,door handle,x,sounds/greatgatsby_english.wav,,,,,,,,,0,0,0,0,0,170,170,170,511.28618923,8.98027792573e-06,512.873684315,1.58750438597,,,,x,1,1.56729853316,2018_Nov_13_1540,59.987148155,chinese_cond1,001,1011,
images/electrictoothbrush01a.jpg,banjo,x,sounds/greatgatsby_english.wav,,,,,,,,,0,0,0,0,0,171,171,127,514.051799607,8.98027792573e-06,514.907540769,0.855750783114,,,,x,1,0.833779672394,2018_Nov_13_1540,59.987148155,chinese_cond1,001,1011,
images/pingpongpaddle01c (1).jpg,ping pong paddle,z,sounds/greatgatsby_english.wav,,,,,,,,,0,0,0,0,0,172,172,10,516.102386562,9.30100213736e-06,517.074773939,0.972396998317,,,,z,1,0.950487787137,2018_Nov_13_1540,59.987148155,chinese_cond1,001,1011,
images/straw.jpg,straw,z,sounds/greatgatsby_english.wav,,,,,,,,,0,0,0,0,0,173,173,109,518.259913379,9.30100213736e-06,519.475376833,1.21547307575,,,,z,1,1.20053637668,2018_Nov_13_1540,59.987148155,chinese_cond1,001,1011,
images/arrow02.jpg,hammer,x,sounds/greatgatsby_english.wav,,,,,,,,,0,0,0,0,0,174,174,184,520.583397531,9.62160993367e-06,521.90933393,1.32594634045,,,,x,1,1.31722749316,2018_Nov_13_1540,59.987148155,chinese_cond1,001,1011,
images/worldmap.jpg,scooter,x,sounds/greatgatsby_english.wav,,,,,,,,,0,0,0,0,0,175,175,220,523.062158952,9.30100213736e-06,523.97636947,0.914220781648,,,,x,1,0.900300132344,2018_Nov_13_1540,59.987148155,chinese_cond1,001,1011,
images/plant01.jpg,plant,z,sounds/greatgatsby_english.wav,,,,,,,,,0,0,0,0,0,176,176,47,525.1478984,9.621726349e-06,526.01038853,0.862500392948,,,,z,1,0.850454367814,2018_Nov_13_1540,59.987148155,chinese_cond1,001,1011,
images/fryingpan01.jpg,frying pan,z,sounds/greatgatsby_english.wav,,,,,,,,,0,0,0,0,0,177,177,45,527.215327788,9.30100213736e-06,528.311004189,1.09568666422,,,,z,1,1.08387284249,2018_Nov_13_1540,59.987148155,chinese_cond1,001,1011,
images/butterfly.jpg,butterfly,z,sounds/greatgatsby_english.wav,,,,,,,,,0,0,0,0,0,178,178,91,529.508610443,9.30088572204e-06,530.411509392,0.90290857025,,,,z,1,0.883789967746,2018_Nov_13_1540,59.987148155,chinese_cond1,001,1011,
images/radish01.jpg,raisin,x,sounds/greatgatsby_english.wav,,,,,,,,,0,0,0,0,0,179,179,214,531.600366971,5.13156410307e-05,533.078862512,1.47852536815,,,,z,0,1.46727409412,2018_Nov_13_1540,59.987148155,chinese_cond1,001,1011,
images/bus.jpg,microphone,x,sounds/greatgatsby_english.wav,,,,,,,,,0,0,0,0,0,180,180,203,534.267496868,9.621726349e-06,535.962941771,1.69545516651,,,,x,1,1.68400215777,2018_Nov_13_1540,59.987148155,chinese_cond1,001,1011,
images/weight01.jpg,weight,z,sounds/greatgatsby_english.wav,,,,,,,,,0,0,0,0,0,181,181,67,537.145577009,9.621726349e-06,538.030128052,0.884560985141,,,,z,1,0.867122007417,2018_Nov_13_1540,59.987148155,chinese_cond1,001,1011,
images/feather03b.jpg,feather,z,sounds/greatgatsby_english.wav,,,,,,,,,0,0,0,0,0,182,182,114,539.214938431,9.94245056063e-06,540.047319432,0.832391263801,,,,z,1,0.817098883213,2018_Nov_13_1540,59.987148155,chinese_cond1,001,1011,
images/gamecontroller01.jpg,game controller,z,sounds/greatgatsby_english.wav,,,,,,,,,0,0,0,0,0,183,183,112,541.236837379,9.30088572204e-06,542.431263346,1.1944355889,,,,z,1,1.18386937864,2018_Nov_13_1540,59.987148155,chinese_cond1,001,1011,
images/highheelshoe02a.jpg,high heel shoe,z,sounds/greatgatsby_english.wav,,,,,,,,,0,0,0,0,0,184,184,75,543.613109285,9.621726349e-06,544.448457612,0.835357949021,,,,z,1,0.817123578978,2018_Nov_13_1540,59.987148155,chinese_cond1,001,1011,
images/baseball01a.jpg,baseball,z,sounds/greatgatsby_english.wav,,,,,,,,,0,0,0,0,0,185,185,74,545.643729005,8.98016151041e-06,546.932422759,1.28870337573,,,,z,1,1.26723066834,2018_Nov_13_1540,59.987148155,chinese_cond1,001,1011,
images/sunglasses03a.jpg,sun glasses,z,sounds/greatgatsby_english.wav,,,,,,,,,0,0,0,0,0,186,186,17,548.127979274,9.621726349e-06,548.882923054,0.754954043659,,,,z,1,0.733762930846,2018_Nov_13_1540,59.987148155,chinese_cond1,001,1011,
images/ceilingfan02.jpg,paper clip,x,sounds/greatgatsby_english.wav,,,,,,,,,0,0,0,0,0,187,187,208,550.052436563,8.98027792573e-06,551.483593429,1.43116648775,,,,x,1,1.4172759864,2018_Nov_13_1540,59.987148155,chinese_cond1,001,1011,
images/showerhead01.jpg,skateboard,x,sounds/greatgatsby_english.wav,,,,,,,,,0,0,0,0,0,188,188,223,552.617308828,9.62160993367e-06,554.601053638,1.98375443148,,,,x,1,1.96741681569,2018_Nov_13_1540,59.987148155,chinese_cond1,001,1011,
images/drink.jpg,drink,z,sounds/greatgatsby_english.wav,,,,,,,,,0,0,0,0,0,189,189,117,555.771600195,8.98016151041e-06,556.501532734,0.729941840051,,,,z,1,0.71708599024,2018_Nov_13_1540,59.987148155,chinese_cond1,001,1011,
images/parkbench03.jpg,park bench,z,sounds/greatgatsby_english.wav,,,,,,,,,0,0,0,0,0,190,190,71,557.682816125,8.98027792573e-06,558.602065519,0.919258694281,,,,z,1,0.900460493751,2018_Nov_13_1540,59.987148155,chinese_cond1,001,1011,
images/notebook02b.jpg,notebook,z,sounds/greatgatsby_english.wav,,,,,,,,,0,0,0,0,0,191,191,7,559.77924847,8.98027792573e-06,560.552581529,0.773343002074,,,,z,1,0.750442116172,2018_Nov_13_1540,59.987148155,chinese_cond1,001,1011,
images/dice05a.jpg,band aid,x,sounds/greatgatsby_english.wav,,,,,,,,,0,0,0,0,0,192,192,126,561.73955807,9.30088572204e-06,562.95318282,1.21363501367,,,,x,1,1.20054054609,2018_Nov_13_1540,59.987148155,chinese_cond1,001,1011,
,,,sounds/greatgatsby_english.wav,,,,,,,,,0,0,0,0,,,,,,,,,,,,,,,2018_Nov_13_1540,59.987148155,chinese_cond1,001,1011,
images/screwdriver02b.jpg,cola,x,sounds/animalfarm_chinese.wav,,,,,,,,,0,1,1,1,0,0,0,158,584.072114826,9.62160993367e-06,585.625688672,1.55358378787,,,573.956153675,x,1,1.53398410114,2018_Nov_13_1540,59.987148155,chinese_cond1,001,1011,
images/hairpin.jpg,hair pin,z,sounds/animalfarm_chinese.wav,,,,,,,,,0,1,1,1,0,1,1,28,586.715894185,8.98027792573e-06,587.509489544,0.793604339706,,,,z,1,0.783753341064,2018_Nov_13_1540,59.987148155,chinese_cond1,001,1011,
images/lemon02.jpg,lemon,z,sounds/animalfarm_chinese.wav,,,,,,,,,0,1,1,1,0,2,2,14,588.620219387,9.30100213736e-06,589.226580345,0.60637025896,,,,z,1,0.583699331386,2018_Nov_13_1540,59.987148155,chinese_cond1,001,1011,
images/chameleon.jpg,50 dollar bill,x,sounds/animalfarm_chinese.wav,,,,,,,,,0,1,1,1,0,3,3,120,590.408718463,8.98027792573e-06,591.327127242,0.918419042253,,,,x,1,0.900458569406,2018_Nov_13_1540,59.987148155,chinese_cond1,001,1011,
images/pipe.jpg,icecube,x,sounds/animalfarm_chinese.wav,,,,,,,,,0,1,1,1,0,4,4,188,592.434874043,9.621726349e-06,593.32765034,0.892786240205,,,,z,0,0.883808248909,2018_Nov_13_1540,59.987148155,chinese_cond1,001,1011,
images/snowman.jpg,globe,x,sounds/animalfarm_chinese.wav,,,,,,,,,0,1,1,1,0,5,5,180,594.438608538,9.62160993367e-06,595.328161893,0.889563618228,,,,x,1,0.867124573095,2018_Nov_13_1540,59.987148155,chinese_cond1,001,1011,
images/hairdryer03a.jpg,hairdryer,z,sounds/animalfarm_chinese.wav,,,,,,,,,0,1,1,1,0,6,6,119,596.489900762,9.30100213736e-06,597.412025114,0.922134615132,,,,z,1,0.90046851174,2018_Nov_13_1540,59.987148155,chinese_cond1,001,1011,
images/bowl02b (1).jpg,bowl,z,sounds/animalfarm_chinese.wav,,,,,,,,,0,1,1,1,0,7,7,24,598.528242202,9.30100213736e-06,599.17913038,0.650897799176,,,,z,1,0.633730794303,2018_Nov_13_1540,59.987148155,chinese_cond1,001,1011,
images/mattress.jpg,cat,x,sounds/animalfarm_chinese.wav,,,,,,,,,0,1,1,1,0,8,8,147,600.282628887,9.30088572204e-06,601.17964514,0.897026194725,,,,x,1,0.883797985734,2018_Nov_13_1540,59.987148155,chinese_cond1,001,1011,
images/table02.jpg,table,z,sounds/animalfarm_chinese.wav,,,,,,,,,0,1,1,1,0,9,9,49,602.292726201,9.30088572204e-06,602.996777378,0.70406047802,,,,z,1,0.683743334608,2018_Nov_13_1540,59.987148155,chinese_cond1,001,1011,
images/binder03b.jpg,dj mixer,x,sounds/animalfarm_chinese.wav,,,,,,,,,0,1,1,1,0,10,10,167,604.184493505,8.98027792573e-06,605.93088361,1.74640036852,,,,x,1,1.73394510127,2018_Nov_13_1540,59.987148155,chinese_cond1,001,1011,
images/fork01.jpg,cooking pot,x,sounds/animalfarm_chinese.wav,,,,,,,,,0,1,1,1,0,11,11,160,607.084050844,9.30088572204e-06,608.331486505,1.24744560383,,,,x,1,1.2338934649,2018_Nov_13_1540,59.987148155,chinese_cond1,001,1011,
images/coin01b.jpg,arrow,x,sounds/animalfarm_chinese.wav,,,,,,,,,0,1,1,1,0,12,12,124,609.433607188,8.98027792573e-06,610.298664062,0.865066495491,,,,x,1,0.850467838231,2018_Nov_13_1540,59.987148155,chinese_cond1,001,1011,
images/rubberglove02a.jpg,lady bug,x,sounds/animalfarm_chinese.wav,,,,,,,,,0,1,1,1,0,13,13,192,611.402603242,9.94245056063e-06,612.515885718,1.113292097,,,,x,1,1.10051322053,2018_Nov_13_1540,59.987148155,chinese_cond1,001,1011,
images/redfox.jpg,red fox,z,sounds/animalfarm_chinese.wav,,,,,,,,,0,1,1,1,0,14,14,1,613.628089923,8.98016151041e-06,614.333023408,0.7049434277,,,,z,1,0.683750711149,2018_Nov_13_1540,59.987148155,chinese_cond1,001,1011,
images/aquarium.jpg,computer mouse,x,sounds/animalfarm_chinese.wav,,,,,,,,,0,1,1,1,0,15,15,159,615.467479677,8.98027792573e-06,616.266842273,0.799372217385,,,,x,1,0.783766811481,2018_Nov_13_1540,59.987148155,chinese_cond1,001,1011,
images/flamingo.jpg,flamingo,z,sounds/animalfarm_chinese.wav,,,,,,,,,0,1,1,1,0,16,16,52,617.364279121,9.30100213736e-06,618.217342248,0.853073069011,,,,z,1,0.833773258026,2018_Nov_13_1540,59.987148155,chinese_cond1,001,1011,
images/chessknight02b (1).jpg,cockroach,x,sounds/animalfarm_chinese.wav,,,,,,,,,0,1,1,1,0,17,17,155,619.325861349,3.68831679225e-05,620.234533948,0.908698898507,,,,x,1,0.90046626667,2018_Nov_13_1540,59.987148155,chinese_cond1,001,1011,
images/corkscrew02a.jpg,masquerade mask,x,sounds/animalfarm_chinese.wav,,,,,,,,,0,1,1,1,0,18,18,201,621.337998459,8.65943729877e-06,622.968572701,1.63058386289,,,,x,1,1.61732005363,2018_Nov_13_1540,59.987148155,chinese_cond1,001,1011,
images/eyedrops.jpg,bicycle,x,sounds/animalfarm_chinese.wav,,,,,,,,,0,1,1,1,0,19,19,131,624.068162881,9.30088572204e-06,624.919064657,0.85091139772,,,,x,1,0.833783841925,2018_Nov_13_1540,59.987148155,chinese_cond1,001,1011,
images/cola.jpg,comb,x,sounds/animalfarm_chinese.wav,,,,,,,,,0,1,1,1,0,20,20,157,626.061531618,9.62160993367e-06,627.0195968,0.95807512477,,,,x,1,0.933801866486,2018_Nov_13_1540,59.987148155,chinese_cond1,001,1011,
images/screw03c.jpg,screw,z,sounds/animalfarm_chinese.wav,,,,,,,,,0,1,1,1,0,21,21,84,628.112775413,9.62160993367e-06,629.020133369,0.907368219807,,,,z,1,0.8838120976,2018_Nov_13_1540,59.987148155,chinese_cond1,001,1011,
images/cloud.jpg,ceiling fan,x,sounds/animalfarm_chinese.wav,,,,,,,,,0,1,1,1,0,22,22,149,630.124902901,9.621726349e-06,630.97045855,0.845565912081,,,,x,1,0.83362444269,2018_Nov_13_1540,59.987148155,chinese_cond1,001,1011,
images/remotecontrol01c.jpg,remote control,z,sounds/animalfarm_chinese.wav,,,,,,,,,0,1,1,1,0,23,23,85,632.079548217,8.98016151041e-06,633.187847623,1.10830934858,,,,z,1,1.08384750539,2018_Nov_13_1540,59.987148155,chinese_cond1,001,1011,
images/grasshopper.jpg,cauliflower,x,sounds/animalfarm_chinese.wav,,,,,,,,,0,1,1,1,0,24,24,148,634.351335073,9.30100213736e-06,635.671824957,1.32049918571,,,,x,1,1.3005723618,2018_Nov_13_1540,59.987148155,chinese_cond1,001,1011,
images/nailclipper03a.jpg,aquarium,x,sounds/animalfarm_chinese.wav,,,,,,,,,0,1,1,1,0,25,25,123,636.770432764,9.62160993367e-06,637.655671115,0.885247652419,,,,x,1,0.867139647133,2018_Nov_13_1540,59.987148155,chinese_cond1,001,1011,
images/doll.jpg,carrot,x,sounds/animalfarm_chinese.wav,,,,,,,,,0,1,1,1,0,26,26,146,638.766424371,8.98027792573e-06,639.539493476,0.773078405764,,,,x,1,0.750446927152,2018_Nov_13_1540,59.987148155,chinese_cond1,001,1011,
images/ant.jpg,ant,z,sounds/animalfarm_chinese.wav,,,,,,,,,0,1,1,1,0,27,27,98,640.633669216,9.621726349e-06,641.473325811,0.839667179622,,,,z,1,0.817132238531,2018_Nov_13_1540,59.987148155,chinese_cond1,001,1011,
images/paintbrush03a.jpg,paint brush,z,sounds/animalfarm_chinese.wav,,,,,,,,,0,1,1,1,0,28,28,0,642.572943895,8.98016151041e-06,643.357135664,0.784201390808,,,,z,1,0.767102699843,2018_Nov_13_1540,59.987148155,chinese_cond1,001,1011,
images/handfan01b.jpg,handfan,z,sounds/animalfarm_chinese.wav,,,,,,,,,0,1,1,1,0,29,29,69,644.537501467,9.30088572204e-06,645.874638465,1.33714661968,,,,z,1,1.31744205661,2018_Nov_13_1540,59.987148155,chinese_cond1,001,1011,
images/plate01b.jpg,plate,z,sounds/animalfarm_chinese.wav,,,,,,,,,0,1,1,1,0,30,30,3,646.972936775,9.62160993367e-06,647.758252998,0.78532616538,,,,z,1,0.767103662132,2018_Nov_13_1540,59.987148155,chinese_cond1,001,1011,
images/computermouse02a.jpg,world map,x,sounds/animalfarm_chinese.wav,,,,,,,,,0,1,1,1,0,31,31,239,648.859294769,9.621726349e-06,649.708746237,0.849461089587,,,,x,1,0.833780955407,2018_Nov_13_1540,59.987148155,chinese_cond1,001,1011,
images/8ball.jpg,nail clipper,x,sounds/animalfarm_chinese.wav,,,,,,,,,0,1,1,1,0,32,32,206,650.824084866,9.30100213736e-06,651.725931202,0.901855958276,,,,x,1,0.883791891974,2018_Nov_13_1540,59.987148155,chinese_cond1,001,1011,
images/bracelet02a.jpg,chess knight,x,sounds/animalfarm_chinese.wav,,,,,,,,,0,1,1,1,0,33,33,152,652.905005776,9.30088572204e-06,653.943190383,1.03819454904,,,,x,1,1.01717758866,2018_Nov_13_1540,59.987148155,chinese_cond1,001,1011,
images/ruler02b.jpg,watermelon,x,sounds/animalfarm_chinese.wav,,,,,,,,,0,1,1,1,0,34,34,238,655.045589132,9.30088572204e-06,656.02703436,0.981454849592,,,,x,1,0.967149974429,2018_Nov_13_1540,59.987148155,chinese_cond1,001,1011,
images/diaper01a.jpg,camera,x,sounds/animalfarm_chinese.wav,,,,,,,,,0,1,1,1,0,35,35,143,657.146544309,9.30100213736e-06,658.044216439,0.897682072711,,,,x,1,0.883787081228,2018_Nov_13_1540,59.987148155,chinese_cond1,001,1011,
images/highlighter03b.jpg,coin,x,sounds/animalfarm_chinese.wav,,,,,,,,,0,1,1,1,0,36,36,156,659.145582461,9.30100213736e-06,659.994721545,0.849149026442,,,,x,1,0.833786728326,2018_Nov_13_1540,59.987148155,chinese_cond1,001,1011,
images/sunglasses03a.jpg,sun glasses,z,sounds/animalfarm_chinese.wav,,,,,,,,,0,1,1,1,0,37,37,17,661.102447499,9.94233414531e-06,661.828542912,0.726105675567,,,,z,1,0.71710779937,2018_Nov_13_1540,59.987148155,chinese_cond1,001,1011,
images/sock03.jpg,sock,z,sounds/animalfarm_chinese.wav,,,,,,,,,0,1,1,1,0,38,38,90,662.935544032,8.98027792573e-06,663.962393015,1.02685828356,,,,z,1,1.01714679936,2018_Nov_13_1540,59.987148155,chinese_cond1,001,1011,
images/radio03a.jpg,radio,z,sounds/animalfarm_chinese.wav,,,,,,,,,0,1,1,1,0,39,39,37,665.07571975,9.30088572204e-06,665.979587602,0.903877473553,,,,z,1,0.883798627183,2018_Nov_13_1540,59.987148155,chinese_cond1,001,1011,
images/lettuce.jpg,mushroom,x,sounds/animalfarm_chinese.wav,,,,,,,,,0,1,1,1,0,40,40,205,667.179068801,9.62160993367e-06,667.946761951,0.767702772166,,,,x,1,0.750430249493,2018_Nov_13_1540,59.987148155,chinese_cond1,001,1011,
images/microphone01.jpg,diaper,x,sounds/animalfarm_chinese.wav,,,,,,,,,0,1,1,1,0,41,41,164,669.045219981,9.621726349e-06,669.880585948,0.835375588853,,,,x,1,0.817106580595,2018_Nov_13_1540,59.987148155,chinese_cond1,001,1011,
images/tissuebox03.jpg,tissue box,z,sounds/animalfarm_chinese.wav,,,,,,,,,0,1,1,1,0,42,42,58,671.00548949,9.30088572204e-06,671.764402535,0.758922345936,,,,z,1,0.750430249609,2018_Nov_13_1540,59.987148155,chinese_cond1,001,1011,
images/bandaid01.jpg,door handle,x,sounds/animalfarm_chinese.wav,,,,,,,,,0,1,1,1,0,43,43,170,672.871868383,9.621726349e-06,673.648232914,0.776374473353,,,,x,1,0.767112963018,2018_Nov_13_1540,59.987148155,chinese_cond1,001,1011,
images/eraser.jpg,eraser,z,sounds/animalfarm_chinese.wav,,,,,,,,,0,1,1,1,0,44,44,110,674.754694258,9.30088572204e-06,675.465351682,0.710667366278,,,,z,1,0.700422520051,2018_Nov_13_1540,59.987148155,chinese_cond1,001,1011,
images/mushroom01.jpg,shower head,x,sounds/animalfarm_chinese.wav,,,,,,,,,0,1,1,1,0,45,45,222,676.665544244,9.62160993367e-06,677.915971928,1.25043794687,,,,x,1,1.23384343216,2018_Nov_13_1540,59.987148155,chinese_cond1,001,1011,
images/elbow.jpg,elbow,z,sounds/animalfarm_chinese.wav,,,,,,,,,0,1,1,1,0,46,46,105,679.026728712,9.621726349e-06,679.783124404,0.756405634806,,,,z,1,0.733763251454,2018_Nov_13_1540,59.987148155,chinese_cond1,001,1011,
images/atm.jpg,atm,z,sounds/animalfarm_chinese.wav,,,,,,,,,0,1,1,1,0,47,47,96,680.919419697,9.30100213736e-06,682.00035953,1.08094913408,,,,z,1,1.06717569649,2018_Nov_13_1540,59.987148155,chinese_cond1,001,1011,
images/headphones02b.jpg,headphones,z,sounds/animalfarm_chinese.wav,,,,,,,,,0,1,1,1,0,48,48,101,683.143427205,9.30088572204e-06,684.117569576,0.97415167233,,,,z,1,0.950482014217,2018_Nov_13_1540,59.987148155,chinese_cond1,001,1011,
images/floorlamp.jpg,floor lamp,z,sounds/animalfarm_chinese.wav,,,,,,,,,0,1,1,1,0,49,49,26,685.210299818,9.30100213736e-06,685.918029685,0.707739488455,,,,z,1,0.683744617505,2018_Nov_13_1540,59.987148155,chinese_cond1,001,1011,
images/showerhead01.jpg,skateboard,x,sounds/animalfarm_chinese.wav,,,,,,,,,0,1,1,1,0,50,50,223,687.025298288,8.98027792573e-06,687.735165451,0.709876464098,,,,x,1,0.700414822786,2018_Nov_13_1540,59.987148155,chinese_cond1,001,1011,
images/spoon02b.jpg,spoon,z,sounds/animalfarm_chinese.wav,,,,,,,,,0,1,1,1,0,51,51,38,688.826507605,9.62160993367e-06,689.602302533,0.77580454899,,,,z,1,0.767098530545,2018_Nov_13_1540,59.987148155,chinese_cond1,001,1011,
images/banjo.jpg,knife,x,sounds/animalfarm_chinese.wav,,,,,,,,,0,1,1,1,0,52,52,191,690.698411589,8.98027792573e-06,691.536150904,0.837749257684,,,,x,1,0.817127106944,2018_Nov_13_1540,59.987148155,chinese_cond1,001,1011,
images/belt02a.jpg,snowman,x,sounds/animalfarm_chinese.wav,,,,,,,,,0,1,1,1,0,53,53,224,692.639191099,8.98027792573e-06,693.570002547,0.9308210694,,,,x,1,0.917148338747,2018_Nov_13_1540,59.987148155,chinese_cond1,001,1011,
images/masquerademask02b.jpg,mirror,x,sounds/animalfarm_chinese.wav,,,,,,,,,0,1,1,1,0,54,54,204,694.748986356,9.621726349e-06,696.28735185,1.53837511607,,,,x,1,1.51729048311,2018_Nov_13_1540,59.987148155,chinese_cond1,001,1011,
images/hat05.jpg,hat,z,sounds/animalfarm_chinese.wav,,,,,,,,,0,1,1,1,0,55,55,15,697.391494369,9.30100213736e-06,698.0378177,0.646332631819,,,,z,1,0.633746830514,2018_Nov_13_1540,59.987148155,chinese_cond1,001,1011,
images/bicycle.jpg,hand bag,x,sounds/animalfarm_chinese.wav,,,,,,,,,0,1,1,1,0,56,56,186,699.14730827,8.65943729877e-06,699.971640734,0.824342085398,,,,x,1,0.800389229087,2018_Nov_13_1540,59.987148155,chinese_cond1,001,1011,
images/bottleofredwine02.jpg,pipe,x,sounds/animalfarm_chinese.wav,,,,,,,,,0,1,1,1,0,57,57,213,701.069762325,9.621726349e-06,701.905459599,0.835706895334,,,,x,1,0.817113636527,2018_Nov_13_1540,59.987148155,chinese_cond1,001,1011,
images/croissant02b.jpg,croissant,z,sounds/animalfarm_chinese.wav,,,,,,,,,0,1,1,1,0,58,58,39,703.015881548,9.30100213736e-06,703.789280677,0.773409070913,,,,x,0,0.750431211665,2018_Nov_13_1540,59.987148155,chinese_cond1,001,1011,
images/thumbtack02a.jpg,thumb tack,z,sounds/animalfarm_chinese.wav,,,,,,,,,0,1,1,1,0,59,59,60,704.899409165,9.30088572204e-06,705.739792197,0.840392975137,,,,z,1,0.817124861875,2018_Nov_13_1540,59.987148155,chinese_cond1,001,1011,
images/flower01.jpg,bus,x,sounds/animalfarm_chinese.wav,,,,,,,,,0,1,1,1,0,60,60,140,706.852637848,8.98027792573e-06,707.656984475,0.804356890032,,,,z,0,0.783820692915,2018_Nov_13_1540,59.987148155,chinese_cond1,001,1011,
images/axe01.jpg,axe,z,sounds/animalfarm_chinese.wav,,,,,,,,,0,1,1,1,0,61,61,104,708.759182131,9.94245056063e-06,709.54075103,0.781578841037,,,,z,1,0.767101737787,2018_Nov_13_1540,59.987148155,chinese_cond1,001,1011,
images/flashlight05.jpg,flash light,z,sounds/animalfarm_chinese.wav,,,,,,,,,0,1,1,1,0,62,62,8,710.713721288,9.30100213736e-06,711.424563448,0.710851781885,,,,x,0,0.700410653488,2018_Nov_13_1540,59.987148155,chinese_cond1,001,1011,
images/feather03b.jpg,feather,z,sounds/animalfarm_chinese.wav,,,,,,,,,0,1,1,1,0,63,63,114,712.524931381,9.30088572204e-06,713.35839418,0.833472740836,,,,z,1,0.817093110294,2018_Nov_13_1540,59.987148155,chinese_cond1,001,1011,
images/bowtie.jpg,bowtie,z,sounds/animalfarm_chinese.wav,,,,,,,,,0,1,1,1,0,64,64,89,714.468266731,9.621726349e-06,715.125518368,0.65726157953,,,,z,1,0.633741057478,2018_Nov_13_1540,59.987148155,chinese_cond1,001,1011,
images/camera01a.jpg,bull,x,sounds/animalfarm_chinese.wav,,,,,,,,,0,1,1,1,0,65,65,138,716.235498041,9.62160993367e-06,717.026005803,0.790517383488,,,,x,1,0.767106548534,2018_Nov_13_1540,59.987148155,chinese_cond1,001,1011,
images/scooter.jpg,pen,x,sounds/animalfarm_chinese.wav,,,,,,,,,0,1,1,1,0,66,66,212,718.118506728,9.30100213736e-06,718.893146733,0.774649626459,,,,x,1,0.750429287436,2018_Nov_13_1540,59.987148155,chinese_cond1,001,1011,
images/printer03a.jpg,printer,z,sounds/animalfarm_chinese.wav,,,,,,,,,0,1,1,1,0,67,67,72,720.078082835,8.98016151041e-06,721.077044335,0.998971762951,,,,z,1,0.983822745504,2018_Nov_13_1540,59.987148155,chinese_cond1,001,1011,
images/ladder.jpg,ladder,z,sounds/animalfarm_chinese.wav,,,,,,,,,0,1,1,1,0,68,68,113,722.169013823,8.98027792573e-06,722.877346327,0.708342126454,,,,z,1,0.700257668621,2018_Nov_13_1540,59.987148155,chinese_cond1,001,1011,
images/backpack01b.jpg,swallow,x,sounds/animalfarm_chinese.wav,,,,,,,,,0,1,1,1,0,69,69,228,724.007328835,9.30088572204e-06,724.9113532,0.904033986269,,,,x,1,0.883798627183,2018_Nov_13_1540,59.987148155,chinese_cond1,001,1011,
images/doorhandle.jpg,doll,x,sounds/animalfarm_chinese.wav,,,,,,,,,0,1,1,1,0,70,70,168,726.013640979,8.98027792573e-06,726.928539127,0.914907449041,,,,x,1,0.900465625338,2018_Nov_13_1540,59.987148155,chinese_cond1,001,1011,
images/bat.jpg,hand,x,sounds/animalfarm_chinese.wav,,,,,,,,,0,1,1,1,0,71,71,185,728.026160712,8.98027792573e-06,729.029082816,1.00293172651,,,,x,1,0.983824349125,2018_Nov_13_1540,59.987148155,chinese_cond1,001,1011,
images/triangleruler02.jpg,bottle of red wine,x,sounds/animalfarm_chinese.wav,,,,,,,,,0,1,1,1,0,72,72,134,730.139579494,9.30100213736e-06,731.146288372,1.00671849982,,,,x,1,0.983823707676,2018_Nov_13_1540,59.987148155,chinese_cond1,001,1011,
images/fireextinguisher02.jpg,fire extinguisher,z,sounds/animalfarm_chinese.wav,,,,,,,,,0,1,1,1,0,73,73,175,732.324897898,9.30088572204e-06,733.813634436,1.48874648078,,,,z,1,1.46727345267,2018_Nov_13_1540,59.987148155,chinese_cond1,001,1011,
images/lantern03.jpg,lantern,z,sounds/animalfarm_chinese.wav,,,,,,,,,0,1,1,1,0,74,74,5,734.920087763,8.98027792573e-06,736.097573155,1.17749533511,,,,z,1,1.16721905803,2018_Nov_13_1540,59.987148155,chinese_cond1,001,1011,
images/clothespin02a.jpg,clothes pin,z,sounds/animalfarm_chinese.wav,,,,,,,,,0,1,1,1,0,75,75,79,737.201996948,9.62160993367e-06,738.098066106,0.896079100436,,,,z,1,0.883794137044,2018_Nov_13_1540,59.987148155,chinese_cond1,001,1011,
images/ostrich.jpg,ostrich,z,sounds/animalfarm_chinese.wav,,,,,,,,,0,1,1,1,0,76,76,76,739.197825628,8.98027792573e-06,740.248619449,1.05080376321,,,,z,1,1.03383400291,2018_Nov_13_1540,59.987148155,chinese_cond1,001,1011,
images/bullet (2).jpg,rubber glove,x,sounds/animalfarm_chinese.wav,,,,,,,,,0,1,1,1,0,77,77,217,741.352609304,9.30088572204e-06,742.532530586,1.17993122421,,,,x,1,1.16719307948,2018_Nov_13_1540,59.987148155,chinese_cond1,001,1011,
images/leek.jpg,donut,x,sounds/animalfarm_chinese.wav,,,,,,,,,0,1,1,1,0,78,78,169,743.63347133,9.30100213736e-06,744.399678892,0.766217184486,,,,x,1,0.750398818636,2018_Nov_13_1540,59.987148155,chinese_cond1,001,1011,
images/battery03b.jpg,battery,z,sounds/animalfarm_chinese.wav,,,,,,,,,0,1,1,1,0,79,79,34,745.508119096,9.30100213736e-06,746.200143171,0.692034017178,,,,z,1,0.667077298742,2018_Nov_13_1540,59.987148155,chinese_cond1,001,1011,
images/dryingmachine01.jpg,drying machine,z,sounds/animalfarm_chinese.wav,,,,,,,,,0,1,1,1,0,80,80,18,747.321183608,9.30100213736e-06,747.933931438,0.612757452182,,,,z,1,0.60038653505,2018_Nov_13_1540,59.987148155,chinese_cond1,001,1011,
images/arrow02.jpg,hammer,x,sounds/animalfarm_chinese.wav,,,,,,,,,0,1,1,1,0,81,81,184,749.030125165,9.62160993367e-06,749.884416339,0.854300795589,,,,x,1,0.833780634566,2018_Nov_13_1540,59.987148155,chinese_cond1,001,1011,
images/gps.jpg,gps,z,sounds/animalfarm_chinese.wav,,,,,,,,,0,1,1,1,0,82,82,21,751.002198554,9.30100213736e-06,751.684880938,0.682692326256,,,,z,1,0.667070563417,2018_Nov_13_1540,59.987148155,chinese_cond1,001,1011,
images/giraffe.jpg,lettuce,x,sounds/animalfarm_chinese.wav,,,,,,,,,0,1,1,1,0,83,83,195,752.785080492,9.30100213736e-06,753.802108944,1.01703807432,,,,x,1,1.00051091134,2018_Nov_13_1540,59.987148155,chinese_cond1,001,1011,
images/gluestick.jpg,squirrel,x,sounds/animalfarm_chinese.wav,,,,,,,,,0,1,1,1,0,84,84,226,754.910027011,9.30100213736e-06,755.869289131,0.959271741332,,,,x,1,0.950474637561,2018_Nov_13_1540,59.987148155,chinese_cond1,001,1011,
images/flipflop01b.jpg,flip flop,z,sounds/animalfarm_chinese.wav,,,,,,,,,0,1,1,1,0,85,85,27,756.985517124,9.621726349e-06,757.719762421,0.734254919458,,,,z,1,0.717085028067,2018_Nov_13_1540,59.987148155,chinese_cond1,001,1011,
images/lychee02a.jpg,lychee,z,sounds/animalfarm_chinese.wav,,,,,,,,,0,1,1,1,0,86,86,62,758.902802411,8.98027792573e-06,759.970349184,1.06755607354,,,,z,1,1.0505135092,2018_Nov_13_1540,59.987148155,chinese_cond1,001,1011,
images/marker01a.jpg,marker,z,sounds/animalfarm_chinese.wav,,,,,,,,,0,1,1,1,0,87,87,95,761.068780914,9.30100213736e-06,761.770832385,0.702061092597,,,,z,1,0.683775406796,2018_Nov_13_1540,59.987148155,chinese_cond1,001,1011,
images/handbag02a.jpg,candle,x,sounds/animalfarm_chinese.wav,,,,,,,,,0,1,1,1,0,88,88,144,762.886406103,1.02631747723e-05,764.438148622,1.551752461,,,,x,1,1.53395587753,2018_Nov_13_1540,59.987148155,chinese_cond1,001,1011,
images/lily.jpg,kiwi,x,sounds/animalfarm_chinese.wav,,,,,,,,,0,1,1,1,0,89,89,190,765.53760474,3.2072304748e-05,766.488669187,0.95108561439,,,,x,1,0.933800904313,2018_Nov_13_1540,59.987148155,chinese_cond1,001,1011,
images/notebook02b.jpg,notebook,z,sounds/animalfarm_chinese.wav,,,,,,,,,0,1,1,1,0,90,90,7,767.595212315,9.30088572204e-06,768.239124453,0.643921438255,,,,z,1,0.633732718648,2018_Nov_13_1540,59.987148155,chinese_cond1,001,1011,
images/diploma01.jpg,glasses,x,sounds/animalfarm_chinese.wav,,,,,,,,,0,1,1,1,0,91,91,179,769.370096069,9.30100213736e-06,770.806450889,1.4363647619,,,,x,1,1.41726893047,2018_Nov_13_1540,59.987148155,chinese_cond1,001,1011,
images/cauliflower01.jpg,glue stick,x,sounds/animalfarm_chinese.wav,,,,,,,,,0,1,1,1,0,92,92,181,771.921988686,1.12253474072e-05,772.656923859,0.734946718439,,,,x,1,0.717082782998,2018_Nov_13_1540,59.987148155,chinese_cond1,001,1011,
images/knife04.jpg,tooth brush,x,sounds/animalfarm_chinese.wav,,,,,,,,,0,1,1,1,0,93,93,233,773.753738184,9.62160993367e-06,774.657527459,0.903798896587,,,,x,1,0.883886825875,2018_Nov_13_1540,59.987148155,chinese_cond1,001,1011,
images/desktopcomputer.jpg,desktop computer,z,sounds/animalfarm_chinese.wav,,,,,,,,,0,1,1,1,0,94,94,16,775.792647624,9.30100213736e-06,776.491237855,0.698600173579,,,,z,1,0.683716714615,2018_Nov_13_1540,59.987148155,chinese_cond1,001,1011,
images/comb02a.jpg,diploma,x,sounds/animalfarm_chinese.wav,,,,,,,,,0,1,1,1,0,95,95,166,777.595342208,9.62160993367e-06,778.641799857,1.04646759189,,,,x,1,1.03384747333,2018_Nov_13_1540,59.987148155,chinese_cond1,001,1011,
images/parkfountain.jpg,park fountain,z,sounds/animalfarm_chinese.wav,,,,,,,,,0,1,1,1,0,96,96,93,779.7618839,9.30100213736e-06,780.492281808,0.730407529627,,,,z,1,0.717102026334,2018_Nov_13_1540,59.987148155,chinese_cond1,001,1011,
images/candy.jpg,candy,z,sounds/animalfarm_chinese.wav,,,,,,,,,0,1,1,1,0,97,97,31,781.662895716,9.62160993367e-06,782.57612803,0.913242577342,,,,z,1,0.900459531578,2018_Nov_13_1540,59.987148155,chinese_cond1,001,1011,
images/mailbox01.jpg,mail box,z,sounds/animalfarm_chinese.wav,,,,,,,,,0,1,1,1,0,98,98,73,783.695212059,9.621726349e-06,784.559976433,0.864773996291,,,,z,1,0.850454688654,2018_Nov_13_1540,59.987148155,chinese_cond1,001,1011,
images/cherry01.jpg,highlighter,x,sounds/animalfarm_chinese.wav,,,,,,,,,0,1,1,1,0,99,99,187,785.668709136,9.30100213736e-06,786.527142765,0.858443571138,,,,x,1,0.850406580139,2018_Nov_13_1540,59.987148155,chinese_cond1,001,1011,
images/glasses01b.jpg,calculator,x,sounds/animalfarm_chinese.wav,,,,,,,,,0,1,1,1,0,100,100,142,787.619701741,9.30088572204e-06,788.594352778,0.974660979933,,,,x,1,0.950489070034,2018_Nov_13_1540,59.987148155,chinese_cond1,001,1011,
images/orange.jpg,bat,x,sounds/animalfarm_chinese.wav,,,,,,,,,0,1,1,1,0,101,101,128,789.78564336,8.98027792573e-06,790.544844093,0.759210675722,,,,x,1,0.750427683815,2018_Nov_13_1540,59.987148155,chinese_cond1,001,1011,
images/apple06.jpg,apple,z,sounds/animalfarm_chinese.wav,,,,,,,,,0,1,1,1,0,102,102,13,791.671681915,9.30100213736e-06,792.495339578,0.8236672848,,,,z,1,0.800442469073,2018_Nov_13_1540,59.987148155,chinese_cond1,001,1011,
images/carrot02.jpg,corkscrew,x,sounds/animalfarm_chinese.wav,,,,,,,,,0,1,1,1,0,103,103,161,793.597668731,9.30100213736e-06,795.062676598,1.46501748904,,,,x,1,1.45061607636,2018_Nov_13_1540,59.987148155,chinese_cond1,001,1011,
images/squirrel.jpg,binder,x,sounds/animalfarm_chinese.wav,,,,,,,,,0,1,1,1,0,104,104,132,796.165305947,9.30100213736e-06,797.013159254,0.847862928291,,,,x,1,0.833776785876,2018_Nov_13_1540,59.987148155,chinese_cond1,001,1011,
images/baseball01a.jpg,baseball,z,sounds/animalfarm_chinese.wav,,,,,,,,,0,1,1,1,0,105,105,74,798.145019272,8.98016151041e-06,798.730272505,0.5852628547,,,,z,1,0.567041313509,2018_Nov_13_1540,59.987148155,chinese_cond1,001,1011,
images/parrot01.jpg,chameleon,x,sounds/animalfarm_chinese.wav,,,,,,,,,0,1,1,1,0,106,106,150,799.843679742,9.30100213736e-06,801.147557151,1.30388703116,,,,x,1,1.28389991145,2018_Nov_13_1540,59.987148155,chinese_cond1,001,1011,
images/envelope02a.jpg,grand piano,x,sounds/animalfarm_chinese.wav,,,,,,,,,0,1,1,1,0,107,107,182,802.270275289,8.98027792573e-06,803.681567872,1.4113018841,,,,x,1,1.40062085504,2018_Nov_13_1540,59.987148155,chinese_cond1,001,1011,
images/barrel01.jpg,barrel,z,sounds/animalfarm_chinese.wav,,,,,,,,,0,1,1,1,0,108,108,9,804.883744104,8.98016151041e-06,805.848608288,0.964873805176,,,,z,1,0.950317162671,2018_Nov_13_1540,59.987148155,chinese_cond1,001,1011,
images/aloe02.jpg,broad sword,x,sounds/animalfarm_chinese.wav,,,,,,,,,0,1,1,1,0,109,109,137,806.968842749,9.94245056063e-06,808.316058459,1.34722565219,,,,x,1,1.33391020657,2018_Nov_13_1540,59.987148155,chinese_cond1,001,1011,
images/bus.jpg,microphone,x,sounds/animalfarm_chinese.wav,,,,,,,,,0,1,1,1,0,110,110,203,809.434155624,9.30100213736e-06,810.366589928,0.932444247184,,,,x,1,0.917143527884,2018_Nov_13_1540,59.987148155,chinese_cond1,001,1011,
images/hanger02a.jpg,hanger,z,sounds/animalfarm_chinese.wav,,,,,,,,,0,1,1,1,0,111,111,88,811.528969922,9.30100213736e-06,812.500469538,0.97150891705,,,,z,1,0.950480410596,2018_Nov_13_1540,59.987148155,chinese_cond1,001,1011,
images/cat.jpg,black olive,x,sounds/animalfarm_chinese.wav,,,,,,,,,0,1,1,1,0,112,112,133,813.630700927,9.621726349e-06,814.801074934,1.17038395,,,,x,1,1.15054051403,2018_Nov_13_1540,59.987148155,chinese_cond1,001,1011,
images/worldmap.jpg,scooter,x,sounds/animalfarm_chinese.wav,,,,,,,,,0,1,1,1,0,113,113,220,815.931128001,9.94233414531e-06,816.785002877,0.853884818149,,,,x,1,0.833885511034,2018_Nov_13_1540,59.987148155,chinese_cond1,001,1011,
images/lightswitch02a.jpg,fork,x,sounds/animalfarm_chinese.wav,,,,,,,,,0,1,1,1,0,114,114,177,817.896517208,8.98016151041e-06,818.752076519,0.855569253908,,,,x,1,0.833788331947,2018_Nov_13_1540,59.987148155,chinese_cond1,001,1011,
images/cake.jpg,cake,z,sounds/animalfarm_chinese.wav,,,,,,,,,0,1,1,1,0,115,115,23,819.866187421,9.62160993367e-06,820.635887334,0.769709854969,,,,z,1,0.750428325147,2018_Nov_13_1540,59.987148155,chinese_cond1,001,1011,
images/beermug01b.jpg,beer mug,z,sounds/animalfarm_chinese.wav,,,,,,,,,0,1,1,1,0,116,116,111,821.752134249,9.30100213736e-06,822.569714538,0.817589909886,,,,z,1,0.800436696038,2018_Nov_13_1540,59.987148155,chinese_cond1,001,1011,
images/safe.jpg,safe,z,sounds/animalfarm_chinese.wav,,,,,,,,,0,1,1,1,0,117,117,78,823.680639701,9.30100213736e-06,824.420207071,0.739577954635,,,,z,1,0.717103309231,2018_Nov_13_1540,59.987148155,chinese_cond1,001,1011,
images/hairband.jpg,hairband,z,sounds/animalfarm_chinese.wav,,,,,,,,,0,1,1,1,0,118,118,66,825.529621951,9.30088572204e-06,826.237321349,0.707709019771,,,,z,1,0.683714148821,2018_Nov_13_1540,59.987148155,chinese_cond1,001,1011,
images/licenseplate.jpg,license plate,z,sounds/animalfarm_chinese.wav,,,,,,,,,0,1,1,1,0,119,119,40,827.431070271,9.62160993367e-06,828.80464554,1.37358489109,,,,z,1,1.35057944979,2018_Nov_13_1540,59.987148155,chinese_cond1,001,1011,
images/tape01a.jpg,tie,x,sounds/animalfarm_chinese.wav,,,,,,,,,0,1,1,1,0,120,120,232,829.930041072,9.30088572204e-06,830.638455682,0.708424231503,,,,z,0,0.68375231477,2018_Nov_13_1540,59.987148155,chinese_cond1,001,1011,
images/bowlingball.jpg,bowling ball,z,sounds/animalfarm_chinese.wav,,,,,,,,,0,1,1,1,0,121,121,20,831.770068744,9.30100213736e-06,833.038931249,1.26887276873,,,,z,1,1.25041998643,2018_Nov_13_1540,59.987148155,chinese_cond1,001,1011,
images/daisy.jpg,daisy,z,sounds/animalfarm_chinese.wav,,,,,,,,,0,1,1,1,0,122,122,6,834.140730247,8.98016151041e-06,834.906209128,0.765488181612,,,,z,1,0.750422872952,2018_Nov_13_1540,59.987148155,chinese_cond1,001,1011,
images/pictureframe04.jpg,picture frame,z,sounds/animalfarm_chinese.wav,,,,,,,,,0,1,1,1,0,123,123,41,836.027456111,9.30088572204e-06,836.92339281,0.895946962642,,,,z,1,0.883798306459,2018_Nov_13_1540,59.987148155,chinese_cond1,001,1011,
images/cactus.jpg,cactus,z,sounds/animalfarm_chinese.wav,,,,,,,,,0,1,1,1,0,124,124,70,838.035281425,9.30100213736e-06,838.740519276,0.705248114304,,,,z,1,0.683740768814,2018_Nov_13_1540,59.987148155,chinese_cond1,001,1011,
images/pepper05a.jpg,lighter,x,sounds/animalfarm_chinese.wav,,,,,,,,,0,1,1,1,0,125,125,198,839.861754071,9.30088572204e-06,840.557672682,0.695928232512,,,,x,1,0.683755842736,2018_Nov_13_1540,59.987148155,chinese_cond1,001,1011,
images/candle08a.jpg,screw driver,x,sounds/animalfarm_chinese.wav,,,,,,,,,0,1,1,1,0,126,126,221,841.671288709,9.30088572204e-06,842.758245621,1.08696685452,,,,x,1,1.06719846767,2018_Nov_13_1540,59.987148155,chinese_cond1,001,1011,
images/pingpongpaddle01c (1).jpg,ping pong paddle,z,sounds/animalfarm_chinese.wav,,,,,,,,,0,1,1,1,0,127,127,10,843.869537691,9.30088572204e-06,844.542008905,0.672481155838,,,,z,1,0.650403244654,2018_Nov_13_1540,59.987148155,chinese_cond1,001,1011,
images/weight01.jpg,weight,z,sounds/animalfarm_chinese.wav,,,,,,,,,0,1,1,1,0,128,128,67,845.646532763,9.621726349e-06,846.325807788,0.679285609396,,,,z,1,0.667080826592,2018_Nov_13_1540,59.987148155,chinese_cond1,001,1011,
images/tie01.jpg,bench,x,sounds/animalfarm_chinese.wav,,,,,,,,,0,1,1,1,0,129,129,130,847.424312002,9.30100213736e-06,848.559708951,1.13540689135,,,,x,1,1.11719368899,2018_Nov_13_1540,59.987148155,chinese_cond1,001,1011,
images/banana04a.jpg,banana,z,sounds/animalfarm_chinese.wav,,,,,,,,,0,1,1,1,0,130,130,118,849.665255594,8.98027792573e-06,850.460199592,0.794953620294,,,,z,1,0.78377739538,2018_Nov_13_1540,59.987148155,chinese_cond1,001,1011,
images/ashtray02b.jpg,ashtray,z,sounds/animalfarm_chinese.wav,,,,,,,,,0,1,1,1,0,131,131,43,851.573303104,9.30088572204e-06,852.344009765,0.770716282888,,,,z,1,0.750431211665,2018_Nov_13_1540,59.987148155,chinese_cond1,001,1011,
images/electricguitar02.jpg,electric guitar,z,sounds/animalfarm_chinese.wav,,,,,,,,,0,1,1,1,0,132,132,100,853.446258417,9.621726349e-06,854.194480811,0.748232015991,,,,z,1,0.733755233348,2018_Nov_13_1540,59.987148155,chinese_cond1,001,1011,
images/graduationcap.jpg,graduation cap,z,sounds/animalfarm_chinese.wav,,,,,,,,,0,1,1,1,0,133,133,35,855.29693248,8.98027792573e-06,856.628482167,1.33155866759,,,,z,1,1.31727816723,2018_Nov_13_1540,59.987148155,chinese_cond1,001,1011,
images/dice05a.jpg,band aid,x,sounds/animalfarm_chinese.wav,,,,,,,,,0,1,1,1,0,134,134,126,857.740773609,9.30100213736e-06,858.812335189,1.07157120144,,,,x,1,1.05050517037,2018_Nov_13_1540,59.987148155,chinese_cond1,001,1011,
images/watermelon01.jpg,orange,x,sounds/animalfarm_chinese.wav,,,,,,,,,0,1,1,1,0,135,135,207,860.012199651,9.621726349e-06,860.862871469,0.850681439624,,,,x,1,0.833788973512,2018_Nov_13_1540,59.987148155,chinese_cond1,001,1011,
images/seagull.jpg,seagull,z,sounds/animalfarm_chinese.wav,,,,,,,,,0,1,1,1,0,136,136,50,862.041044171,8.98027792573e-06,863.030080585,0.989046356641,,,,x,0,0.967143560061,2018_Nov_13_1540,59.987148155,chinese_cond1,001,1011,
images/electrictoothbrush01a.jpg,banjo,x,sounds/animalfarm_chinese.wav,,,,,,,,,0,1,1,1,0,137,137,127,864.125325934,8.6595537141e-06,864.963908109,0.83859211707,,,,x,1,0.817105618538,2018_Nov_13_1540,59.987148155,chinese_cond1,001,1011,
images/pen03c.jpg,pepper,x,sounds/animalfarm_chinese.wav,,,,,,,,,0,1,1,1,0,138,138,211,866.057837213,9.30100213736e-06,866.964435377,0.906607465586,,,,x,1,0.883806966012,2018_Nov_13_1540,59.987148155,chinese_cond1,001,1011,
images/leaf01a.jpg,leaf,z,sounds/animalfarm_chinese.wav,,,,,,,,,0,1,1,1,0,139,139,68,868.067241765,8.98027792573e-06,868.73154802,0.664316196693,,,,z,1,0.650394905941,2018_Nov_13_1540,59.987148155,chinese_cond1,001,1011,
images/paperclip04.jpg,eye drops,x,sounds/animalfarm_chinese.wav,,,,,,,,,0,1,1,1,0,140,140,174,869.836465405,9.621726349e-06,871.015472947,1.17901748524,,,,x,1,1.16721392656,2018_Nov_13_1540,59.987148155,chinese_cond1,001,1011,
images/hammer02a.jpg,flower,x,sounds/animalfarm_chinese.wav,,,,,,,,,0,1,1,1,0,141,141,176,872.11025357,9.62160993367e-06,873.149360254,1.03911630623,,,,x,1,1.01717598515,2018_Nov_13_1540,59.987148155,chinese_cond1,001,1011,
images/cookingpot.jpg,grasshopper,x,sounds/animalfarm_chinese.wav,,,,,,,,,0,1,1,1,0,142,142,183,874.263025673,9.30100213736e-06,875.233206477,0.970190746593,,,,x,1,0.950476561906,2018_Nov_13_1540,59.987148155,chinese_cond1,001,1011,
images/egg01b (1).jpg,egg,z,sounds/animalfarm_chinese.wav,,,,,,,,,0,1,1,1,0,143,143,19,876.345762515,9.94245056063e-06,877.033670114,0.687917540898,,,,z,1,0.667073129211,2018_Nov_13_1540,59.987148155,chinese_cond1,001,1011,
images/radish01.jpg,raisin,x,sounds/animalfarm_chinese.wav,,,,,,,,,0,1,1,1,0,144,144,214,878.144163584,9.30100213736e-06,879.550983368,1.40682908497,,,,x,1,1.38392787846,2018_Nov_13_1540,59.987148155,chinese_cond1,001,1011,
images/cockroach02.jpg,belt,x,sounds/animalfarm_chinese.wav,,,,,,,,,0,1,1,1,0,145,145,129,880.717670668,8.98027792573e-06,882.318359965,1.60069891904,,,,x,1,1.5839732287,2018_Nov_13_1540,59.987148155,chinese_cond1,001,1011,
images/dragonfly02.jpg,dragon fly,z,sounds/animalfarm_chinese.wav,,,,,,,,,0,1,1,1,0,146,146,29,883.48280413,9.30100213736e-06,884.752337267,1.26954307919,,,,z,1,1.25057329191,2018_Nov_13_1540,59.987148155,chinese_cond1,001,1011,
images/shotglass.jpg,shot glass,z,sounds/animalfarm_chinese.wav,,,,,,,,,0,1,1,1,0,147,147,86,885.887189308,9.62160993367e-06,888.219869543,2.33268953592,,,,z,1,2.31749080645,2018_Nov_13_1540,59.987148155,chinese_cond1,001,1011,
images/hand01a.jpg,cupcake,x,sounds/animalfarm_chinese.wav,,,,,,,,,0,1,1,1,0,148,148,163,889.331058019,9.30100213736e-06,890.620666154,1.28961743554,,,,x,1,1.26740706584,2018_Nov_13_1540,59.987148155,chinese_cond1,001,1011,
images/peach01.jpg,peach,z,sounds/animalfarm_chinese.wav,,,,,,,,,0,1,1,1,0,149,149,106,891.74885935,1.02631747723e-05,893.004431105,1.2555826602,,,,z,1,1.23388929549,2018_Nov_13_1540,59.987148155,chinese_cond1,001,1011,
images/corn01.jpg,corn,z,sounds/animalfarm_chinese.wav,,,,,,,,,0,1,1,1,0,150,150,22,894.104006212,9.30088572204e-06,895.088296892,0.984300943092,,,,z,1,0.967145484407,2018_Nov_13_1540,59.987148155,chinese_cond1,001,1011,
images/50dollarbill.jpg,cherry,x,sounds/animalfarm_chinese.wav,,,,,,,,,0,1,1,1,0,151,151,151,896.286853126,9.30100213736e-06,897.272187438,0.985344254179,,,,x,1,0.967142597889,2018_Nov_13_1540,59.987148155,chinese_cond1,001,1011,
images/butterfly.jpg,butterfly,z,sounds/animalfarm_chinese.wav,,,,,,,,,0,1,1,1,0,152,152,91,898.379509923,8.98016151041e-06,899.12266554,0.743165238295,,,,z,1,0.733753950452,2018_Nov_13_1540,59.987148155,chinese_cond1,001,1011,
images/swallow.jpg,mattress,x,sounds/animalfarm_chinese.wav,,,,,,,,,0,1,1,1,0,153,153,202,900.224025468,8.98027792573e-06,900.98981096,0.765794471954,,,,x,1,0.750419986434,2018_Nov_13_1540,59.987148155,chinese_cond1,001,1011,
images/nametag01a.jpg,name tag,z,sounds/animalfarm_chinese.wav,,,,,,,,,0,1,1,1,0,154,154,108,902.109460743,9.30100213736e-06,903.507120045,1.39766892302,,,,x,0,1.38392242615,2018_Nov_13_1540,59.987148155,chinese_cond1,001,1011,
images/blueberry02.jpg,blueberry,z,sounds/animalfarm_chinese.wav,,,,,,,,,0,1,1,1,0,155,155,46,904.619458633,8.98027792573e-06,905.574316267,0.954867256107,,,,z,1,0.933805394452,2018_Nov_13_1540,59.987148155,chinese_cond1,001,1011,
images/razor04a.jpg,razor,z,sounds/animalfarm_chinese.wav,,,,,,,,,0,1,1,1,0,156,156,36,906.74956077,9.621726349e-06,908.841827247,2.0922764194,,,,x,0,2.06743548182,2018_Nov_13_1540,59.987148155,chinese_cond1,001,1011,
images/fryingpan01.jpg,frying pan,z,sounds/animalfarm_chinese.wav,,,,,,,,,0,1,1,1,0,157,157,45,909.942149958,9.30100213736e-06,910.825690725,0.883550387807,,,,z,1,0.867151834653,2018_Nov_13_1540,59.987148155,chinese_cond1,001,1011,
images/puzzle.jpg,puzzle,z,sounds/animalfarm_chinese.wav,,,,,,,,,0,1,1,1,0,158,158,57,912.013951118,9.62160993367e-06,913.226277583,1.21233608655,,,,z,1,1.20053830103,2018_Nov_13_1540,59.987148155,chinese_cond1,001,1011,
images/honeycomb.jpg,honey comb,z,sounds/animalfarm_chinese.wav,,,,,,,,,0,1,1,1,0,159,159,59,914.338665883,8.98027792573e-06,915.076763702,0.738107440877,,,,z,1,0.717095932574,2018_Nov_13_1540,59.987148155,chinese_cond1,001,1011,
images/boxingglove02a.jpg,bracelet,x,sounds/animalfarm_chinese.wav,,,,,,,,,0,1,1,1,0,160,160,135,916.263437481,8.65943729877e-06,917.660749439,1.3973212596,,,,x,1,1.38392435049,2018_Nov_13_1540,59.987148155,chinese_cond1,001,1011,
images/grandpiano.jpg,tulip,x,sounds/animalfarm_chinese.wav,,,,,,,,,0,1,1,1,0,161,161,236,918.841454888,9.30100213736e-06,919.627925392,0.786480125855,,,,x,1,0.767107189982,2018_Nov_13_1540,59.987148155,chinese_cond1,001,1011,
images/puma.jpg,puma,z,sounds/animalfarm_chinese.wav,,,,,,,,,0,1,1,1,0,162,162,4,920.726217608,9.94245056063e-06,921.561750351,0.835542364628,,,,x,0,0.817111712298,2018_Nov_13_1540,59.987148155,chinese_cond1,001,1011,
images/lightbulb03b.jpg,treadmill,x,sounds/animalfarm_chinese.wav,,,,,,,,,0,1,1,1,0,163,163,234,922.685220263,8.98016151041e-06,924.512502734,1.82729177235,,,,x,1,1.81736251747,2018_Nov_13_1540,59.987148155,chinese_cond1,001,1011,
images/ear.jpg,bullet,x,sounds/animalfarm_chinese.wav,,,,,,,,,0,1,1,1,0,164,164,139,925.615941587,9.30088572204e-06,926.513016853,0.897084245458,,,,x,1,0.883780346019,2018_Nov_13_1540,59.987148155,chinese_cond1,001,1011,
images/lighter02b.jpg,stapler,x,sounds/animalfarm_chinese.wav,,,,,,,,,0,1,1,1,0,165,165,227,927.614412702,9.94233414531e-06,929.147018978,1.53261653939,,,,x,1,1.51728599286,2018_Nov_13_1540,59.987148155,chinese_cond1,001,1011,
images/sportshorts02.jpg,tape,x,sounds/animalfarm_chinese.wav,,,,,,,,,0,1,1,1,0,166,166,230,930.254111184,8.98016151041e-06,931.314284862,1.0601836202,,,,x,1,1.05053339398,2018_Nov_13_1540,59.987148155,chinese_cond1,001,1011,
images/mitten01.jpg,mitten,z,sounds/animalfarm_chinese.wav,,,,,,,,,0,1,1,1,0,167,167,102,932.434723624,9.30088572204e-06,933.414800969,0.98008728784,,,,z,1,0.967152860947,2018_Nov_13_1540,59.987148155,chinese_cond1,001,1011,
images/panda.jpg,panda,z,sounds/animalfarm_chinese.wav,,,,,,,,,0,1,1,1,0,168,168,83,934.523641435,8.6595537141e-06,935.565346935,1.04171512253,,,,z,1,1.01713685691,2018_Nov_13_1540,59.987148155,chinese_cond1,001,1011,
images/broadsword.jpg,teapot,x,sounds/animalfarm_chinese.wav,,,,,,,,,0,1,1,1,0,169,169,231,936.658194883,9.62160993367e-06,937.515840175,0.857655234518,,,,x,1,0.833745034412,2018_Nov_13_1540,59.987148155,chinese_cond1,001,1011,
images/candycane01a.jpg,lip,x,sounds/animalfarm_chinese.wav,,,,,,,,,0,1,1,1,0,170,170,200,938.609425464,9.62160993367e-06,939.499690182,0.890275301877,,,,x,1,0.867138043512,2018_Nov_13_1540,59.987148155,chinese_cond1,001,1011,
images/kiwi03.jpg,backpack,x,sounds/animalfarm_chinese.wav,,,,,,,,,0,1,1,1,0,171,171,125,940.628352595,9.30100213736e-06,941.516878675,0.888536343351,,,,x,1,0.867141892202,2018_Nov_13_1540,59.987148155,chinese_cond1,001,1011,
images/saltshaker03c.jpg,salt shaker,z,sounds/animalfarm_chinese.wav,,,,,,,,,0,1,1,1,0,172,172,63,942.62807549,1.02631747723e-05,943.400739523,0.772674295236,,,,z,1,0.750491507584,2018_Nov_13_1540,59.987148155,chinese_cond1,001,1011,
images/medal01.jpg,medal,z,sounds/animalfarm_chinese.wav,,,,,,,,,0,1,1,1,0,173,173,115,944.501400276,9.621726349e-06,945.417865796,0.916475462494,,,,z,1,0.900459852186,2018_Nov_13_1540,59.987148155,chinese_cond1,001,1011,
images/plant01.jpg,plant,z,sounds/animalfarm_chinese.wav,,,,,,,,,0,1,1,1,0,174,174,47,946.529104305,9.30100213736e-06,947.268342293,0.739247610094,,,,z,1,0.717095611966,2018_Nov_13_1540,59.987148155,chinese_cond1,001,1011,
images/wallet01.jpg,lamp,x,sounds/animalfarm_chinese.wav,,,,,,,,,0,1,1,1,0,175,175,193,948.373281167,9.621726349e-06,949.668946471,1.29567460495,,,,x,1,1.28389189334,2018_Nov_13_1540,59.987148155,chinese_cond1,001,1011,
images/globe.jpg,cloud,x,sounds/animalfarm_chinese.wav,,,,,,,,,0,1,1,1,0,176,176,154,950.796154086,8.98016151041e-06,951.586106356,0.78996157099,,,,x,1,0.767091474612,2018_Nov_13_1540,59.987148155,chinese_cond1,001,1011,
images/ceilingfan02.jpg,paper clip,x,sounds/animalfarm_chinese.wav,,,,,,,,,0,1,1,1,0,177,177,208,952.684441227,8.98016151041e-06,954.003396454,1.31896420661,,,,x,1,1.30056947528,2018_Nov_13_1540,59.987148155,chinese_cond1,001,1011,
images/computerkeyboard01a.jpg,computer keyboard,z,sounds/animalfarm_chinese.wav,,,,,,,,,0,1,1,1,0,178,178,61,955.120143055,8.98027792573e-06,955.90391564,0.783781885402,,,,z,1,0.767128357664,2018_Nov_13_1540,59.987148155,chinese_cond1,001,1011,
images/teapot.jpg,light switch,x,sounds/animalfarm_chinese.wav,,,,,,,,,0,1,1,1,0,179,179,197,957.020520161,9.30100213736e-06,957.837716865,0.817206646083,,,,x,1,0.800438620383,2018_Nov_13_1540,59.987148155,chinese_cond1,001,1011,
images/acousticguitar02.jpg,acoustic guitar,z,sounds/animalfarm_chinese.wav,,,,,,,,,0,1,1,1,0,180,180,97,958.950500937,9.30088572204e-06,959.738212317,0.787720681285,,,,z,1,0.767112963018,2018_Nov_13_1540,59.987148155,chinese_cond1,001,1011,
images/scissors04a.jpg,leek,x,sounds/animalfarm_chinese.wav,,,,,,,,,0,1,1,1,0,181,181,194,960.83228767,8.6595537141e-06,961.655362901,0.823085173033,,,,x,1,0.800444393419,2018_Nov_13_1540,59.987148155,chinese_cond1,001,1011,
images/straw.jpg,straw,z,sounds/animalfarm_chinese.wav,,,,,,,,,0,1,1,1,0,182,182,109,962.747040852,8.98027792573e-06,963.539190073,0.79215916316,,,,z,1,0.783784451196,2018_Nov_13_1540,59.987148155,chinese_cond1,001,1011,
images/apricot.jpg,apricot,z,sounds/animalfarm_chinese.wav,,,,,,,,,0,1,1,1,0,183,183,32,964.738440672,9.30100213736e-06,966.00647475,1.26804370037,,,,x,0,1.25055597292,2018_Nov_13_1540,59.987148155,chinese_cond1,001,1011,
images/antelope.jpg,antelope,z,sounds/animalfarm_chinese.wav,,,,,,,,,0,1,1,1,0,184,184,12,967.109827971,9.30088572204e-06,968.323733674,1.2139159668,,,,z,1,1.20054888481,2018_Nov_13_1540,59.987148155,chinese_cond1,001,1011,
images/lock02a.jpg,lock,z,sounds/animalfarm_chinese.wav,,,,,,,,,0,1,1,1,0,185,185,65,969.433837787,9.30100213736e-06,970.190894169,0.757066644263,,,,z,1,0.733776080422,2018_Nov_13_1540,59.987148155,chinese_cond1,001,1011,
images/coffeepot03b.jpg,coffee pot,z,sounds/animalfarm_chinese.wav,,,,,,,,,0,1,1,1,0,186,186,107,971.312058084,9.30100213736e-06,972.058025156,0.745976693812,,,,z,1,0.733756195521,2018_Nov_13_1540,59.987148155,chinese_cond1,001,1011,
images/skateboard.jpg,key,x,sounds/animalfarm_chinese.wav,,,,,,,,,0,1,1,1,0,187,187,189,973.149217854,9.30088572204e-06,973.908497805,0.759289573529,,,,x,1,0.750432494562,2018_Nov_13_1540,59.987148155,chinese_cond1,001,1011,
images/volleyball.jpg,volley ball,z,sounds/animalfarm_chinese.wav,,,,,,,,,0,1,1,1,0,188,188,2,975.041040963,9.30100213736e-06,976.125734856,1.08470383508,,,,z,1,1.06717954506,2018_Nov_13_1540,59.987148155,chinese_cond1,001,1011,
images/blackolive.jpg,tank,x,sounds/animalfarm_chinese.wav,,,,,,,,,0,1,1,1,0,189,189,229,977.307302087,9.621726349e-06,978.209595832,0.902304008021,,,,x,1,0.883787081111,2018_Nov_13_1540,59.987148155,chinese_cond1,001,1011,
images/tulip02.jpg,sport shorts,x,sounds/animalfarm_chinese.wav,,,,,,,,,0,1,1,1,0,190,190,225,979.303737895,9.30088572204e-06,980.360167135,1.05643950298,,,,x,1,1.0338526048,2018_Nov_13_1540,59.987148155,chinese_cond1,001,1011,
images/bed.jpg,bed,z,sounds/animalfarm_chinese.wav,,,,,,,,,0,1,1,1,0,191,191,103,981.47909882,9.30100213736e-06,982.143946775,0.664857576718,,,,z,1,0.650405168999,2018_Nov_13_1540,59.987148155,chinese_cond1,001,1011,
images/tank.jpg,wallet,x,sounds/animalfarm_chinese.wav,,,,,,,,,0,1,1,1,0,192,192,237,983.248447542,9.62160993367e-06,984.061116282,0.812678682618,,,,x,1,0.800461071078,2018_Nov_13_1540,59.987148155,chinese_cond1,001,1011,
images/bull.jpg,button,x,sounds/animalfarm_chinese.wav,,,,,,,,,0,1,1,1,0,193,193,141,985.23764111,9.30088572204e-06,986.545072769,1.30744160118,,,,x,1,1.28389894927,2018_Nov_13_1540,59.987148155,chinese_cond1,001,1011,
images/button07.jpg,radish,x,sounds/animalfarm_chinese.wav,,,,,,,,,0,1,1,1,0,194,194,215,987.656863242,9.621726349e-06,988.628947215,0.972093915334,,,,x,1,0.950490032323,2018_Nov_13_1540,59.987148155,chinese_cond1,001,1011,
images/magnifyingglass01b.jpg,magnifying glass,z,sounds/animalfarm_chinese.wav,,,,,,,,,0,1,1,1,0,195,195,64,989.735852439,8.98016151041e-06,990.496097767,0.760254948866,,,,z,1,0.750442437013,2018_Nov_13_1540,59.987148155,chinese_cond1,001,1011,
images/parkingmeter.jpg,ear,x,sounds/animalfarm_chinese.wav,,,,,,,,,0,1,1,1,0,196,196,171,991.597494257,8.98027792573e-06,992.429909575,0.832424939726,,,,x,1,0.817112674355,2018_Nov_13_1540,59.987148155,chinese_cond1,001,1011,
images/donut.jpg,rhinoceros,x,sounds/animalfarm_chinese.wav,,,,,,,,,0,1,1,1,0,197,197,216,993.555462582,8.65943729877e-06,994.563786619,1.00833333866,,,,x,1,0.983821462723,2018_Nov_13_1540,59.987148155,chinese_cond1,001,1011,
images/treadmill.jpg,lily,x,sounds/animalfarm_chinese.wav,,,,,,,,,0,1,1,1,0,198,198,199,995.745370528,8.98016151041e-06,996.864484384,1.11912315688,,,,x,1,1.10061970039,2018_Nov_13_1540,59.987148155,chinese_cond1,001,1011,
images/rhinoceros01.jpg,envelope,x,sounds/animalfarm_chinese.wav,,,,,,,,,0,1,1,1,0,199,199,173,997.97616549,8.98016151041e-06,998.731524607,0.755368096638,,,,x,1,0.733759723487,2018_Nov_13_1540,59.987148155,chinese_cond1,001,1011,
images/lipstick04.jpg,lipstick,z,sounds/animalfarm_chinese.wav,,,,,,,,,0,1,1,1,0,200,200,56,999.831158406,8.98027792573e-06,1000.74872433,0.917575541418,,,,z,1,0.900477171293,2018_Nov_13_1540,59.987148155,chinese_cond1,001,1011,
images/lamp04b.jpg,parking meter,x,sounds/animalfarm_chinese.wav,,,,,,,,,0,1,1,1,0,201,201,209,1001.940038,9.621726349e-06,1003.09933007,1.15930233826,,,,x,1,1.15054917359,2018_Nov_13_1540,59.987148155,chinese_cond1,001,1011,
images/umbrella01.jpg,umbrella,z,sounds/animalfarm_chinese.wav,,,,,,,,,0,1,1,1,0,202,202,53,1004.21195218,9.621726349e-06,1005.23318723,1.02124499436,,,,z,1,1.00049038511,2018_Nov_13_1540,59.987148155,chinese_cond1,001,1011,
images/toothbrush03a.jpg,parrot,x,sounds/animalfarm_chinese.wav,,,,,,,,,0,1,1,1,0,203,203,210,1006.32590817,8.98016151041e-06,1008.20061624,1.87471768376,,,,x,1,1.85070741817,2018_Nov_13_1540,59.987148155,chinese_cond1,001,1011,
images/dolphin01.jpg,dolphin,z,sounds/animalfarm_chinese.wav,,,,,,,,,0,1,1,1,0,204,204,99,1009.32565031,9.30088572204e-06,1010.21780024,0.892159227282,,,,z,1,0.883774572983,2018_Nov_13_1540,59.987148155,chinese_cond1,001,1011,
images/parkbench03.jpg,park bench,z,sounds/animalfarm_chinese.wav,,,,,,,,,0,1,1,1,0,205,205,71,1011.32311211,8.98016151041e-06,1012.31833944,0.995236626011,,,,z,1,0.983806709293,2018_Nov_13_1540,59.987148155,chinese_cond1,001,1011,
images/birthdaycandle.jpg,birthday candle,z,sounds/animalfarm_chinese.wav,,,,,,,,,0,1,1,1,0,206,206,55,1013.41434907,8.98016151041e-06,1014.28551667,0.871177225607,,,,z,1,0.850460782298,2018_Nov_13_1540,59.987148155,chinese_cond1,001,1011,
images/swan.jpg,swan,z,sounds/animalfarm_chinese.wav,,,,,,,,,0,1,1,1,0,207,207,54,1015.37703234,8.98027792573e-06,1016.38604721,1.00902385474,,,,z,1,1.00049006438,2018_Nov_13_1540,59.987148155,chinese_cond1,001,1011,
images/stapler03a.jpg,candy cane,x,sounds/animalfarm_chinese.wav,,,,,,,,,0,1,1,1,0,208,208,145,1017.49636942,9.62160993367e-06,1019.15342381,1.65706465568,,,,x,1,1.63398544816,2018_Nov_13_1540,59.987148155,chinese_cond1,001,1011,
images/cigar.jpg,crocodile,x,sounds/animalfarm_chinese.wav,,,,,,,,,0,1,1,1,0,209,209,162,1020.25182892,9.30100213736e-06,1021.25397295,1.00215365319,,,,x,1,0.983831084333,2018_Nov_13_1540,59.987148155,chinese_cond1,001,1011,
images/beachumbrella01.jpg,beach umbrella,z,sounds/animalfarm_chinese.wav,,,,,,,,,0,1,1,1,0,210,210,92,1022.35949137,9.30100213736e-06,1023.13778056,0.778298809775,,,,z,1,0.767099171877,2018_Nov_13_1540,59.987148155,chinese_cond1,001,1011,
images/lip.jpg,boxing glove,x,sounds/animalfarm_chinese.wav,,,,,,,,,0,1,1,1,0,211,211,136,1024.24018669,9.30088572204e-06,1025.1883255,0.948148435564,,,,x,1,0.933825920685,2018_Nov_13_1540,59.987148155,chinese_cond1,001,1011,
images/calculator02b.jpg,dice,x,sounds/animalfarm_chinese.wav,,,,,,,,,0,1,1,1,0,212,212,165,1026.28997536,9.621726349e-06,1027.42221063,1.13224552735,,,,x,1,1.11718951957,2018_Nov_13_1540,59.987148155,chinese_cond1,001,1011,
images/dreamcatcher.jpg,dream catcher,z,sounds/animalfarm_chinese.wav,,,,,,,,,0,1,1,1,0,213,213,48,1028.52049579,8.98016151041e-06,1029.30604421,0.785558689386,,,,z,1,0.76711841533,2018_Nov_13_1540,59.987148155,chinese_cond1,001,1011,
images/highheelshoe02a.jpg,high heel shoe,z,sounds/animalfarm_chinese.wav,,,,,,,,,0,1,1,1,0,214,214,75,1030.41272333,8.98027792573e-06,1031.17317648,0.760462777223,,,,z,1,0.750418382813,2018_Nov_13_1540,59.987148155,chinese_cond1,001,1011,
images/raisin.jpg,ruler,x,sounds/animalfarm_chinese.wav,,,,,,,,,0,1,1,1,0,215,215,218,1032.34991491,8.65943729877e-06,1033.5071008,1.15719551058,,,,x,1,1.13385555544,2018_Nov_13_1540,59.987148155,chinese_cond1,001,1011,
images/djmixer01.jpg,light bulb,x,sounds/animalfarm_chinese.wav,,,,,,,,,0,1,1,1,0,216,216,196,1034.6512692,9.621726349e-06,1036.42451726,1.77325801062,,,,x,1,1.75068201683,2018_Nov_13_1540,59.987148155,chinese_cond1,001,1011,
images/dresser02.jpg,dresser,z,sounds/animalfarm_chinese.wav,,,,,,,,,0,1,1,1,0,217,217,87,1037.6204022,9.62160993367e-06,1038.57506034,0.954667766462,,,,z,1,0.933798979968,2018_Nov_13_1540,59.987148155,chinese_cond1,001,1011,
images/bench02.jpg,electric toothbrush,x,sounds/animalfarm_chinese.wav,,,,,,,,,0,1,1,1,0,218,218,172,1039.68363172,9.30088572204e-06,1041.75921549,2.07559338515,,,,x,1,2.05076239002,2018_Nov_13_1540,59.987148155,chinese_cond1,001,1011,
images/lion.jpg,lion,z,sounds/animalfarm_chinese.wav,,,,,,,,,0,1,1,1,0,219,219,44,1042.87137479,9.30088572204e-06,1043.57634356,0.70497870713,,,,z,1,0.683739806642,2018_Nov_13_1540,59.987148155,chinese_cond1,001,1011,
images/key03b.jpg,cigar,x,sounds/animalfarm_chinese.wav,,,,,,,,,0,1,1,1,0,220,220,153,1044.6773106,9.94233414531e-06,1045.52685187,0.849551533349,,,,x,1,0.833781917579,2018_Nov_13_1540,59.987148155,chinese_cond1,001,1011,
images/nailpolish02b.jpg,nail polish,z,sounds/animalfarm_chinese.wav,,,,,,,,,0,1,1,1,0,221,221,94,1046.63552043,9.62160993367e-06,1047.61073369,0.975223206915,,,,z,1,0.950495163794,2018_Nov_13_1540,59.987148155,chinese_cond1,001,1011,
images/gorilla.jpg,gorilla,z,sounds/animalfarm_chinese.wav,,,,,,,,,0,1,1,1,0,222,222,80,1048.72124416,8.98016151041e-06,1049.59457055,0.873336330988,,,,x,0,0.850465272553,2018_Nov_13_1540,59.987148155,chinese_cond1,001,1011,
images/tent.jpg,tent,z,sounds/animalfarm_chinese.wav,,,,,,,,,0,1,1,1,0,223,223,11,1050.72086378,9.30088572204e-06,1051.47837174,0.757517580409,,,,z,1,0.733756836969,2018_Nov_13_1540,59.987148155,chinese_cond1,001,1011,
images/drink.jpg,drink,z,sounds/animalfarm_chinese.wav,,,,,,,,,0,1,1,1,0,224,224,117,1052.57819701,9.621726349e-06,1053.19553823,0.617351163877,,,,z,1,0.600442340714,2018_Nov_13_1540,59.987148155,chinese_cond1,001,1011,
,,,sounds/animalfarm_chinese.wav,,,,,,,,,0,1,1,1,,,,,,,,,,,,,,,2018_Nov_13_1540,59.987148155,chinese_cond1,001,1011,
