images,name,corrAns,sounds,trials_3.thisRepN,trials_3.thisTrialN,trials_3.thisN,trials_3.thisIndex,trials_4.thisRepN,trials_4.thisTrialN,trials_4.thisN,trials_4.thisIndex,trials_2.thisRepN,trials_2.thisTrialN,trials_2.thisN,trials_2.thisIndex,trials.thisRepN,trials.thisTrialN,trials.thisN,trials.thisIndex,begin_global,begin_routine,end_global,end_routine,key_resp_2.keys,key_resp_2.corr,begin_book,key_resp_1.keys,key_resp_1.corr,key_resp_1.rt,date,frameRate,expName,session,participant,
images/volleyball.jpg,volley ball,z,,0,0,0,0,,,,,,,,,,,,,,,,,,,,,,,2018_Nov_14_1236,59.7098510092,chinese_cond2,001,1012,
images/puma.jpg,puma,z,,,,,,0,0,0,0,,,,,,,,,48.2379281247,1.02632227481e-05,51.0039875828,2.76607292854,None,0,,,,,2018_Nov_14_1236,59.7098510092,chinese_cond2,001,1012,
images/dragonfly02.jpg,dragon fly,z,sounds/greatgatsby_chinese.wav,,,,,,,,,0,0,0,0,0,0,0,29,93.2631711627,9.94249717223e-06,96.0159432752,2.75278365864,,,83.0011238229,None,0,,2018_Nov_14_1236,59.7098510092,chinese_cond2,001,1012,
images/lantern03.jpg,lantern,z,sounds/greatgatsby_chinese.wav,,,,,,,,,0,0,0,0,0,1,1,5,97.2043879126,9.30104579311e-06,99.2503729238,2.04599559515,,,,z,1,2.03413740339,2018_Nov_14_1236,59.7098510092,chinese_cond2,001,1012,
images/bat.jpg,hand,x,sounds/greatgatsby_chinese.wav,,,,,,,,,0,0,0,0,0,2,2,185,100.431482244,9.94249694486e-06,101.934412554,1.50294057369,,,,x,1,1.48398472191,2018_Nov_14_1236,59.7098510092,chinese_cond2,001,1012,
images/notebook02b.jpg,notebook,z,sounds/greatgatsby_chinese.wav,,,,,,,,,0,0,0,0,0,3,3,7,103.121863262,9.62177136898e-06,104.90187012,1.78001679961,,,,z,1,1.76729906294,2018_Nov_14_1236,59.7098510092,chinese_cond2,001,1012,
images/cactus.jpg,cactus,z,sounds/greatgatsby_chinese.wav,,,,,,,,,0,0,0,0,0,4,4,70,106.095612184,9.62177136898e-06,107.886007026,1.79040510544,,,,x,0,1.76740201589,2018_Nov_14_1236,59.7098510092,chinese_cond2,001,1012,
images/lipstick04.jpg,lipstick,z,sounds/greatgatsby_chinese.wav,,,,,,,,,0,0,0,0,0,5,5,56,109.089217554,9.30104579311e-06,109.786515665,0.697308694329,,,,z,1,0.683789464096,2018_Nov_14_1236,59.7098510092,chinese_cond2,001,1012,
images/mailbox01.jpg,mail box,z,sounds/greatgatsby_chinese.wav,,,,,,,,,0,0,0,0,0,6,6,73,110.989207259,9.30104579311e-06,111.953731788,0.964534792165,,,,z,1,0.950506570226,2018_Nov_14_1236,59.7098510092,chinese_cond2,001,1012,
images/cocktailshrimp01.jpg,cocktail shrimp,z,sounds/greatgatsby_chinese.wav,,,,,,,,,0,0,0,0,0,7,7,30,113.195371671,9.30104579311e-06,115.187929231,1.99256814379,,,,z,1,1.98410194716,2018_Nov_14_1236,59.7098510092,chinese_cond2,001,1012,
images/radio03a.jpg,radio,z,sounds/greatgatsby_chinese.wav,,,,,,,,,0,0,0,0,0,8,8,37,116.36336363,3.56005541562e-05,117.488547687,1.1251994513,,,,z,1,1.11722621009,2018_Nov_14_1236,59.7098510092,chinese_cond2,001,1012,
images/pipe.jpg,icecube,x,sounds/greatgatsby_chinese.wav,,,,,,,,,0,0,0,0,0,9,9,188,118.645029762,9.30104579311e-06,119.989202769,1.34418327037,,,,z,0,1.33393704603,2018_Nov_14_1236,59.7098510092,chinese_cond2,001,1012,
images/bicycle.jpg,hand bag,x,sounds/greatgatsby_chinese.wav,,,,,,,,,0,0,0,0,0,10,10,186,121.190828271,9.62177136898e-06,122.423200464,1.23238181498,,,,x,1,1.21725991836,2018_Nov_14_1236,59.7098510092,chinese_cond2,001,1012,
images/hand01a.jpg,cupcake,x,sounds/greatgatsby_chinese.wav,,,,,,,,,0,0,0,0,0,11,11,163,123.57547975,1.02632227481e-05,125.057211053,1.481741887,,,,x,1,1.46729832527,2018_Nov_14_1236,59.7098510092,chinese_cond2,001,1012,
images/mushroom01.jpg,shower head,x,sounds/greatgatsby_chinese.wav,,,,,,,,,0,0,0,0,0,12,12,222,126.251654864,9.94249694486e-06,128.108027155,1.85638255393,,,,x,1,1.83407223192,2018_Nov_14_1236,59.7098510092,chinese_cond2,001,1012,
images/bandaid01.jpg,door handle,x,sounds/greatgatsby_chinese.wav,,,,,,,,,0,0,0,0,0,13,13,170,129.307179541,8.98031998986e-06,130.592027913,1.28485831461,,,,x,1,1.2672655471,2018_Nov_14_1236,59.7098510092,chinese_cond2,001,1012,
images/pouch01b.jpg,pouch,z,sounds/greatgatsby_chinese.wav,,,,,,,,,0,0,0,0,0,14,14,25,131.797846583,9.30104579311e-06,133.876216873,2.07838087397,,,,z,1,2.06747235104,2018_Nov_14_1236,59.7098510092,chinese_cond2,001,1012,
images/watermelon01.jpg,orange,x,sounds/greatgatsby_chinese.wav,,,,,,,,,0,0,0,0,0,15,15,207,135.085684761,8.98031998986e-06,136.193534875,1.10786037783,,,,x,1,1.08390473292,2018_Nov_14_1236,59.7098510092,chinese_cond2,001,1012,
images/kiwi03.jpg,backpack,x,sounds/greatgatsby_chinese.wav,,,,,,,,,0,0,0,0,0,16,16,125,137.349939655,9.62177136898e-06,138.677504844,1.32757481007,,,,x,1,1.31726925148,2018_Nov_14_1236,59.7098510092,chinese_cond2,001,1012,
images/ladybug03.jpg,giraffe,x,sounds/greatgatsby_chinese.wav,,,,,,,,,0,0,0,0,0,17,17,178,139.801690802,8.98031998986e-06,141.594937537,1.79325667775,,,,x,1,1.78406467883,2018_Nov_14_1236,59.7098510092,chinese_cond2,001,1012,
images/chameleon.jpg,50 dollar bill,x,sounds/greatgatsby_chinese.wav,,,,,,,,,0,0,0,0,0,18,18,120,142.763314046,9.62177136898e-06,143.745511203,0.982207420374,,,,x,1,0.967174364779,2018_Nov_14_1236,59.7098510092,chinese_cond2,001,1012,
images/hammer02a.jpg,flower,x,sounds/greatgatsby_chinese.wav,,,,,,,,,0,0,0,0,0,19,19,176,144.913171211,9.30104556573e-06,145.896083907,0.982922959439,,,,z,0,0.967175968407,2018_Nov_14_1236,59.7098510092,chinese_cond2,001,1012,
images/bull.jpg,button,x,sounds/greatgatsby_chinese.wav,,,,,,,,,0,0,0,0,0,20,20,141,147.077762836,9.30104579311e-06,147.996635908,0.918883335701,,,,x,1,0.900481056496,2018_Nov_14_1236,59.7098510092,chinese_cond2,001,1012,
images/coin01b.jpg,arrow,x,sounds/greatgatsby_chinese.wav,,,,,,,,,0,0,0,0,0,21,21,124,149.171810198,9.30104556573e-06,150.197228032,1.02542777594,,,,x,1,1.01720019923,2018_Nov_14_1236,59.7098510092,chinese_cond2,001,1012,
images/blackolive.jpg,tank,x,sounds/greatgatsby_chinese.wav,,,,,,,,,0,0,0,0,0,22,22,229,151.348120499,9.30104556573e-06,153.097992289,1.74988141167,,,,x,1,1.73404942832,2018_Nov_14_1236,59.7098510092,chinese_cond2,001,1012,
images/candle08a.jpg,screw driver,x,sounds/greatgatsby_chinese.wav,,,,,,,,,0,0,0,0,0,23,23,221,154.292080416,1.02632227481e-05,155.615323826,1.32325367255,,,,x,1,1.30058638282,2018_Nov_14_1236,59.7098510092,chinese_cond2,001,1012,
images/tape01a.jpg,tie,x,sounds/greatgatsby_chinese.wav,,,,,,,,,0,0,0,0,0,24,24,232,156.774752728,9.30104556573e-06,159.01624155,2.24149844336,,,,x,1,2.21751265022,2018_Nov_14_1236,59.7098510092,chinese_cond2,001,1012,
images/acousticguitar02.jpg,acoustic guitar,z,sounds/greatgatsby_chinese.wav,,,,,,,,,0,0,0,0,0,25,25,97,160.214330089,9.94249694486e-06,161.700265144,1.48594563892,,,,z,1,1.46729640091,2018_Nov_14_1236,59.7098510092,chinese_cond2,001,1012,
images/ladder.jpg,ladder,z,sounds/greatgatsby_chinese.wav,,,,,,,,,0,0,0,0,0,26,26,113,162.852295546,9.30104556573e-06,164.300792289,1.4485073265,,,,z,1,1.43378922355,2018_Nov_14_1236,59.7098510092,chinese_cond2,001,1012,
images/tie01.jpg,bench,x,sounds/greatgatsby_chinese.wav,,,,,,,,,0,0,0,0,0,27,27,130,165.472258669,9.62177136898e-06,167.135056956,1.66280887089,,,,x,1,1.65066715759,2018_Nov_14_1236,59.7098510092,chinese_cond2,001,1012,
images/leek.jpg,donut,x,sounds/greatgatsby_chinese.wav,,,,,,,,,0,0,0,0,0,28,28,169,168.31685776,9.62177136898e-06,169.335634647,1.01878682933,,,,x,1,1.00051668912,2018_Nov_14_1236,59.7098510092,chinese_cond2,001,1012,
images/rhinoceros01.jpg,envelope,x,sounds/greatgatsby_chinese.wav,,,,,,,,,0,0,0,0,0,29,29,173,170.506799225,1.12253999305e-05,172.153050631,1.64626231066,,,,x,1,1.63392623758,2018_Nov_14_1236,59.7098510092,chinese_cond2,001,1012,
images/electricguitar02.jpg,electric guitar,z,sounds/greatgatsby_chinese.wav,,,,,,,,,0,0,0,0,0,30,30,100,173.341773658,9.62177159636e-06,175.353894524,2.01213112935,,,,z,1,2.00076621373,2018_Nov_14_1236,59.7098510092,chinese_cond2,001,1012,
images/beachumbrella01.jpg,beach umbrella,z,sounds/greatgatsby_chinese.wav,,,,,,,,,0,0,0,0,0,31,31,92,176.555311555,9.62177136898e-06,178.72145902,2.16615804914,,,,z,1,2.15080907872,2018_Nov_14_1236,59.7098510092,chinese_cond2,001,1012,
images/puma.jpg,puma,z,sounds/greatgatsby_chinese.wav,,,,,,,,,0,0,0,0,0,32,32,4,179.819572543,9.94249717223e-06,181.255468614,1.43590633398,,,,z,1,1.41728499911,2018_Nov_14_1236,59.7098510092,chinese_cond2,001,1012,
images/battery03b.jpg,battery,z,sounds/greatgatsby_chinese.wav,,,,,,,,,0,0,0,0,0,33,33,34,182.453273952,9.62177136898e-06,183.322682139,0.869417809065,,,,z,1,0.850473824131,2018_Nov_14_1236,59.7098510092,chinese_cond2,001,1012,
images/magnifyingglass01b.jpg,magnifying glass,z,sounds/greatgatsby_chinese.wav,,,,,,,,,0,0,0,0,0,34,34,64,184.503498957,1.15461257337e-05,187.506967606,3.00348019471,,,,None,0,,2018_Nov_14_1236,59.7098510092,chinese_cond2,001,1012,
images/ear.jpg,bullet,x,sounds/greatgatsby_chinese.wav,,,,,,,,,0,0,0,0,0,35,35,139,188.682629399,9.94249694486e-06,189.707717847,1.02509935281,,,,x,1,1.0005189342,2018_Nov_14_1236,59.7098510092,chinese_cond2,001,1012,
images/butterfly.jpg,butterfly,z,sounds/greatgatsby_chinese.wav,,,,,,,,,0,0,0,0,0,36,36,91,190.840101555,9.62177136898e-06,191.658228908,0.818137295621,,,,z,1,0.800460497978,2018_Nov_14_1236,59.7098510092,chinese_cond2,001,1012,
images/beermug01b.jpg,beer mug,z,sounds/greatgatsby_chinese.wav,,,,,,,,,0,0,0,0,0,37,37,111,192.856115389,8.98031998986e-06,194.075557205,1.21945207861,,,,z,1,1.20058506784,2018_Nov_14_1236,59.7098510092,chinese_cond2,001,1012,
images/flashlight05.jpg,flash light,z,sounds/greatgatsby_chinese.wav,,,,,,,,,0,0,0,0,0,38,38,8,195.251031374,9.30104556573e-06,196.709582547,1.45856175686,,,,z,1,1.4506452841,2018_Nov_14_1236,59.7098510092,chinese_cond2,001,1012,
images/teapot.jpg,light switch,x,sounds/greatgatsby_chinese.wav,,,,,,,,,0,0,0,0,0,39,39,197,197.901669025,8.98031998986e-06,200.610627439,2.70896867761,,,,x,1,2.70087131554,2018_Nov_14_1236,59.7098510092,chinese_cond2,001,1012,
images/nametag01a.jpg,name tag,z,sounds/greatgatsby_chinese.wav,,,,,,,,,0,0,0,0,0,40,40,108,201.813069829,9.62177136898e-06,202.794526431,0.981466864704,,,,z,1,0.967180458567,2018_Nov_14_1236,59.7098510092,chinese_cond2,001,1012,
images/toucan.jpg,toucan,z,sounds/greatgatsby_chinese.wav,,,,,,,,,0,0,0,0,0,41,41,81,203.961997531,9.62177136898e-06,205.061787488,1.09980021995,,,,x,0,1.0838646422,2018_Nov_14_1236,59.7098510092,chinese_cond2,001,1012,
images/electrictoothbrush01a.jpg,banjo,x,sounds/greatgatsby_chinese.wav,,,,,,,,,0,0,0,0,0,42,42,127,206.247689091,9.30104556573e-06,207.662473071,1.41479360178,,,,x,1,1.4006127144,2018_Nov_14_1236,59.7098510092,chinese_cond2,001,1012,
images/tissuebox03.jpg,tissue box,z,sounds/greatgatsby_chinese.wav,,,,,,,,,0,0,0,0,0,43,43,58,208.870569535,9.30104556573e-06,210.72995761,1.85939833781,,,,z,1,1.85067716423,2018_Nov_14_1236,59.7098510092,chinese_cond2,001,1012,
images/lemon02.jpg,lemon,z,sounds/greatgatsby_chinese.wav,,,,,,,,,0,0,0,0,0,44,44,14,211.930668723,9.94249717223e-06,212.730485845,0.799827385422,,,,z,1,0.78378564746,2018_Nov_14_1236,59.7098510092,chinese_cond2,001,1012,
images/feather03b.jpg,feather,z,sounds/greatgatsby_chinese.wav,,,,,,,,,0,0,0,0,0,45,45,114,213.904293202,8.98031998986e-06,214.731039738,0.826756157693,,,,z,1,0.817151384781,2018_Nov_14_1236,59.7098510092,chinese_cond2,001,1012,
images/giraffe.jpg,lettuce,x,sounds/greatgatsby_chinese.wav,,,,,,,,,0,0,0,0,0,46,46,195,215.924462359,9.30104579311e-06,216.798240114,0.873787696898,,,,x,1,0.85047542776,2018_Nov_14_1236,59.7098510092,chinese_cond2,001,1012,
images/sportshorts02.jpg,tape,x,sounds/greatgatsby_chinese.wav,,,,,,,,,0,0,0,0,0,47,47,230,217.995013036,9.62177136898e-06,219.465609063,1.47060629027,,,,x,1,1.45062315402,2018_Nov_14_1236,59.7098510092,chinese_cond2,001,1012,
images/grasshopper.jpg,cauliflower,x,sounds/greatgatsby_chinese.wav,,,,,,,,,0,0,0,0,0,48,48,148,220.653217248,9.30104556573e-06,221.882928059,1.2297213952,,,,x,1,1.21725093804,2018_Nov_14_1236,59.7098510092,chinese_cond2,001,1012,
images/scooter.jpg,pen,x,sounds/greatgatsby_chinese.wav,,,,,,,,,0,0,0,0,0,49,49,212,223.00291668,9.62177136898e-06,224.333578795,1.33067205828,,,,x,1,1.31727277946,2018_Nov_14_1236,59.7098510092,chinese_cond2,001,1012,
images/basketball01.jpg,basket ball,z,sounds/greatgatsby_chinese.wav,,,,,,,,,0,0,0,0,0,50,50,33,225.545650013,9.62177136898e-06,226.767551474,1.22191140337,,,,z,1,1.20056293777,2018_Nov_14_1236,59.7098510092,chinese_cond2,001,1012,
images/fryingpan01.jpg,frying pan,z,sounds/greatgatsby_chinese.wav,,,,,,,,,0,0,0,0,0,51,51,45,227.903145966,9.94249694486e-06,228.801426203,0.898290179154,,,,z,1,0.883817110653,2018_Nov_14_1236,59.7098510092,chinese_cond2,001,1012,
images/cheetah.jpg,cheetah,z,sounds/greatgatsby_chinese.wav,,,,,,,,,0,0,0,0,0,52,52,82,229.974801222,9.30104556573e-06,230.901985581,0.927194301089,,,,x,0,0.917162642254,2018_Nov_14_1236,59.7098510092,chinese_cond2,001,1012,
images/skateboard.jpg,key,x,sounds/greatgatsby_chinese.wav,,,,,,,,,0,0,0,0,0,53,53,189,232.059549464,9.30104556573e-06,233.469332688,1.40979348792,,,,x,1,1.40060533771,2018_Nov_14_1236,59.7098510092,chinese_cond2,001,1012,
images/swallow.jpg,mattress,x,sounds/greatgatsby_chinese.wav,,,,,,,,,0,0,0,0,0,54,54,202,234.665705345,9.30104579311e-06,236.036692625,1.37099754356,,,,x,1,1.3506138209,2018_Nov_14_1236,59.7098510092,chinese_cond2,001,1012,
images/snowman.jpg,globe,x,sounds/greatgatsby_chinese.wav,,,,,,,,,0,0,0,0,0,55,55,180,237.265968853,1.02632227481e-05,238.170579253,0.904620663267,,,,x,1,0.88381133759,2018_Nov_14_1236,59.7098510092,chinese_cond2,001,1012,
images/tent.jpg,tent,z,sounds/greatgatsby_chinese.wav,,,,,,,,,0,0,0,0,0,56,56,11,239.377376457,9.30104556573e-06,240.087770761,0.710404566621,,,,z,1,0.7004354493,2018_Nov_14_1236,59.7098510092,chinese_cond2,001,1012,
images/gorilla.jpg,gorilla,z,sounds/greatgatsby_chinese.wav,,,,,,,,,0,0,0,0,0,57,57,80,241.279148755,8.98031998986e-06,242.688455061,1.40931656879,,,,x,0,1.40052708064,2018_Nov_14_1236,59.7098510092,chinese_cond2,001,1012,
images/diploma01.jpg,glasses,x,sounds/greatgatsby_chinese.wav,,,,,,,,,0,0,0,0,0,58,58,179,243.895878963,9.94249694486e-06,244.705662637,0.809793936937,,,,x,1,0.800475572086,2018_Nov_14_1236,59.7098510092,chinese_cond2,001,1012,
images/comb02a.jpg,diploma,x,sounds/greatgatsby_chinese.wav,,,,,,,,,0,0,0,0,0,59,59,166,245.882651273,9.62177136898e-06,246.822876659,0.94023565001,,,,x,1,0.917156869191,2018_Nov_14_1236,59.7098510092,chinese_cond2,001,1012,
images/antelope.jpg,antelope,z,sounds/greatgatsby_chinese.wav,,,,,,,,,0,0,0,0,0,60,60,12,248.032927947,9.62177136898e-06,249.706986272,1.6740689092,,,,x,0,1.65069377782,2018_Nov_14_1236,59.7098510092,chinese_cond2,001,1012,
images/squirrel.jpg,binder,x,sounds/greatgatsby_chinese.wav,,,,,,,,,0,0,0,0,0,61,61,132,250.889152704,9.94249694486e-06,252.240993621,1.3518511807,,,,x,1,1.3339104258,2018_Nov_14_1236,59.7098510092,chinese_cond2,001,1012,
images/shotglass.jpg,shot glass,z,sounds/greatgatsby_chinese.wav,,,,,,,,,0,0,0,0,0,62,62,86,253.380431049,9.62177136898e-06,254.925035817,1.5446147106,,,,x,0,1.53398714339,2018_Nov_14_1236,59.7098510092,chinese_cond2,001,1012,
images/8ball.jpg,nail clipper,x,sounds/greatgatsby_chinese.wav,,,,,,,,,0,0,0,0,0,63,63,206,256.067933555,9.62177136898e-06,257.509050719,1.44112646568,,,,x,1,1.41729013072,2018_Nov_14_1236,59.7098510092,chinese_cond2,001,1012,
images/orange.jpg,bat,x,sounds/greatgatsby_chinese.wav,,,,,,,,,0,0,0,0,0,64,64,128,258.706487864,9.62177136898e-06,260.576543917,1.87006631646,,,,x,1,1.85075189332,2018_Nov_14_1236,59.7098510092,chinese_cond2,001,1012,
images/camera01a.jpg,bull,x,sounds/greatgatsby_chinese.wav,,,,,,,,,0,0,0,0,0,65,65,138,261.766173316,9.62177136898e-06,263.727374485,1.96121143233,,,,x,1,1.95067944139,2018_Nov_14_1236,59.7098510092,chinese_cond2,001,1012,
images/drink.jpg,drink,z,sounds/greatgatsby_chinese.wav,,,,,,,,,0,0,0,0,0,66,66,117,264.899467563,9.62177136898e-06,265.677883621,0.778426962256,,,,z,1,0.767113042022,2018_Nov_14_1236,59.7098510092,chinese_cond2,001,1012,
images/binder03b.jpg,dj mixer,x,sounds/greatgatsby_chinese.wav,,,,,,,,,0,0,0,0,0,67,67,167,266.863768546,8.98031998986e-06,268.19521195,1.33145302539,,,,x,1,1.31725802608,2018_Nov_14_1236,59.7098510092,chinese_cond2,001,1012,
images/dreamcatcher.jpg,dream catcher,z,sounds/greatgatsby_chinese.wav,,,,,,,,,0,0,0,0,0,68,68,48,269.327937872,9.30104556573e-06,270.9792994,1.65137147126,,,,z,1,1.63402021021,2018_Nov_14_1236,59.7098510092,chinese_cond2,001,1012,
images/candycane01a.jpg,lip,x,sounds/greatgatsby_chinese.wav,,,,,,,,,0,0,0,0,0,69,69,200,272.144033748,9.62177136898e-06,273.363255546,1.21923238149,,,,x,1,1.20056197559,2018_Nov_14_1236,59.7098510092,chinese_cond2,001,1012,
images/licenseplate.jpg,license plate,z,sounds/greatgatsby_chinese.wav,,,,,,,,,0,0,0,0,0,70,70,40,274.517083615,9.94249694486e-06,275.597193842,1.08012145241,,,,z,1,1.06720165854,2018_Nov_14_1236,59.7098510092,chinese_cond2,001,1012,
images/bus.jpg,microphone,x,sounds/greatgatsby_chinese.wav,,,,,,,,,0,0,0,0,0,71,71,203,276.75070279,9.62177136898e-06,278.981456281,2.23076375376,,,,x,1,2.21754311917,2018_Nov_14_1236,59.7098510092,chinese_cond2,001,1012,
images/dice05a.jpg,band aid,x,sounds/greatgatsby_chinese.wav,,,,,,,,,0,0,0,0,0,72,72,126,280.18160452,8.98031998986e-06,281.732167089,1.55057283216,,,,x,1,1.53400382113,2018_Nov_14_1236,59.7098510092,chinese_cond2,001,1012,
images/sock03.jpg,sock,z,sounds/greatgatsby_chinese.wav,,,,,,,,,0,0,0,0,0,73,73,90,282.920447515,9.94249694486e-06,283.99924854,1.07881192933,,,,z,1,1.0670265423,2018_Nov_14_1236,59.7098510092,chinese_cond2,001,1012,
images/handfan01b.jpg,handfan,z,sounds/greatgatsby_chinese.wav,,,,,,,,,0,0,0,0,0,74,74,69,285.189519069,9.30104579311e-06,286.700156739,1.51064793329,,,,z,1,1.5006679113,2018_Nov_14_1236,59.7098510092,chinese_cond2,001,1012,
images/dryingmachine01.jpg,drying machine,z,sounds/greatgatsby_chinese.wav,,,,,,,,,0,0,0,0,0,75,75,18,287.90706748,8.98031998986e-06,288.984101306,1.07704376848,,,,z,1,1.06722090208,2018_Nov_14_1236,59.7098510092,chinese_cond2,001,1012,
images/masquerademask02b.jpg,mirror,x,sounds/greatgatsby_chinese.wav,,,,,,,,,0,0,0,0,0,76,76,204,290.160799364,9.62177136898e-06,291.684801033,1.52401193228,,,,x,1,1.50065444082,2018_Nov_14_1236,59.7098510092,chinese_cond2,001,1012,
images/volleyball.jpg,volley ball,z,sounds/greatgatsby_chinese.wav,,,,,,,,,0,0,0,0,0,77,77,2,292.815542625,9.62177136898e-06,293.551950028,0.736417666983,,,,z,1,0.716967897601,2018_Nov_14_1236,59.7098510092,chinese_cond2,001,1012,
images/bowtie.jpg,bowtie,z,sounds/greatgatsby_chinese.wav,,,,,,,,,0,0,0,0,0,78,78,89,294.737215312,9.30104556573e-06,296.302517793,1.56531242373,,,,x,0,1.55046089889,2018_Nov_14_1236,59.7098510092,chinese_cond2,001,1012,
images/bracelet02a.jpg,chess knight,x,sounds/greatgatsby_chinese.wav,,,,,,,,,0,0,0,0,0,79,79,152,297.446241079,9.30104579311e-06,300.170375913,2.72414477687,,,,x,1,2.70096272237,2018_Nov_14_1236,59.7098510092,chinese_cond2,001,1012,
images/backpack01b.jpg,swallow,x,sounds/greatgatsby_chinese.wav,,,,,,,,,0,0,0,0,0,80,80,228,301.372399756,8.98031976249e-06,303.971389663,2.59899952821,,,,x,1,2.58426570971,2018_Nov_14_1236,59.7098510092,chinese_cond2,001,1012,
images/daisy.jpg,daisy,z,sounds/greatgatsby_chinese.wav,,,,,,,,,0,0,0,0,0,81,81,6,305.14722529,8.98031998986e-06,306.205320904,1.05810555661,,,,z,1,1.03386414508,2018_Nov_14_1236,59.7098510092,chinese_cond2,001,1012,
images/axe01.jpg,axe,z,sounds/greatgatsby_chinese.wav,,,,,,,,,0,0,0,0,0,82,82,104,307.342762135,9.62177136898e-06,309.772926837,2.43017560695,,,,z,1,2.4175268263,2018_Nov_14_1236,59.7098510092,chinese_cond2,001,1012,
images/dolphin01.jpg,dolphin,z,sounds/greatgatsby_chinese.wav,,,,,,,,,0,0,0,0,0,83,83,99,310.949283002,1.02632229755e-05,312.557010118,1.6077383417,,,,z,1,1.58401041204,2018_Nov_14_1236,59.7098510092,chinese_cond2,001,1012,
images/eyedrops.jpg,bicycle,x,sounds/greatgatsby_chinese.wav,,,,,,,,,0,0,0,0,0,84,84,131,313.735582177,9.30104556573e-06,315.10767564,1.37210340582,,,,x,1,1.3506013126,2018_Nov_14_1236,59.7098510092,chinese_cond2,001,1012,
images/gluestick.jpg,squirrel,x,sounds/greatgatsby_chinese.wav,,,,,,,,,0,0,0,0,0,85,85,226,316.247423851,9.94249694486e-06,319.158752813,2.91134018767,,,,z,0,2.90101185755,2018_Nov_14_1236,59.7098510092,chinese_cond2,001,1012,
images/bowlingball.jpg,bowling ball,z,sounds/greatgatsby_chinese.wav,,,,,,,,,0,0,0,0,0,86,86,20,320.366720345,1.05839485514e-05,322.409623503,2.04291438323,,,,z,1,2.03413163032,2018_Nov_14_1236,59.7098510092,chinese_cond2,001,1012,
images/donut.jpg,rhinoceros,x,sounds/greatgatsby_chinese.wav,,,,,,,,,0,0,0,0,0,87,87,216,323.611578391,9.30104556573e-06,324.960298647,1.34873051952,,,,x,1,1.33393800821,2018_Nov_14_1236,59.7098510092,chinese_cond2,001,1012,
images/razor04a.jpg,razor,z,sounds/greatgatsby_chinese.wav,,,,,,,,,0,0,0,0,0,88,88,36,326.129808921,9.30104556573e-06,327.260903632,1.13110497385,,,,z,1,1.11720311784,2018_Nov_14_1236,59.7098510092,chinese_cond2,001,1012,
images/glasses01b.jpg,calculator,x,sounds/greatgatsby_chinese.wav,,,,,,,,,0,0,0,0,0,89,89,142,328.376747193,9.30104556573e-06,329.328121968,0.951385037953,,,,z,0,0.933814721246,2018_Nov_14_1236,59.7098510092,chinese_cond2,001,1012,
images/cookingpot.jpg,grasshopper,x,sounds/greatgatsby_chinese.wav,,,,,,,,,0,0,0,0,0,90,90,183,330.543407178,9.94249694486e-06,332.128858932,1.58546201661,,,,x,1,1.56731856306,2018_Nov_14_1236,59.7098510092,chinese_cond2,001,1012,
images/computerkeyboard01a.jpg,computer keyboard,z,sounds/greatgatsby_chinese.wav,,,,,,,,,0,0,0,0,0,91,91,61,333.329472865,9.94249717223e-06,334.079402385,0.749940745925,,,,z,1,0.733793168478,2018_Nov_14_1236,59.7098510092,chinese_cond2,001,1012,
images/pineapple01a.jpg,pineapple,z,sounds/greatgatsby_chinese.wav,,,,,,,,,0,0,0,0,0,92,92,51,335.30937106,9.30104556573e-06,336.063362892,0.754002416347,,,,z,1,0.733877840066,2018_Nov_14_1236,59.7098510092,chinese_cond2,001,1012,
images/mattress.jpg,cat,x,sounds/greatgatsby_chinese.wav,,,,,,,,,0,0,0,0,0,93,93,147,337.240372055,9.30104556573e-06,337.980478709,0.740117238077,,,,x,1,0.717154559966,2018_Nov_14_1236,59.7098510092,chinese_cond2,001,1012,
images/stapler03a.jpg,candy cane,x,sounds/greatgatsby_chinese.wav,,,,,,,,,0,0,0,0,0,94,94,145,339.16523051,9.62177136898e-06,340.164334723,0.999114476308,,,,x,1,0.983841517879,2018_Nov_14_1236,59.7098510092,chinese_cond2,001,1012,
images/diaper01a.jpg,camera,x,sounds/greatgatsby_chinese.wav,,,,,,,,,0,0,0,0,0,95,95,143,341.35903255,8.98031998986e-06,342.214879492,0.85585688449,,,,x,1,0.833802501596,2018_Nov_14_1236,59.7098510092,chinese_cond2,001,1012,
images/pingpongpaddle01c (1).jpg,ping pong paddle,z,sounds/greatgatsby_chinese.wav,,,,,,,,,0,0,0,0,0,96,96,10,343.394979488,9.62177136898e-06,344.13207132,0.73710241638,,,,z,1,0.717114789978,2018_Nov_14_1236,59.7098510092,chinese_cond2,001,1012,
images/printer03a.jpg,printer,z,sounds/greatgatsby_chinese.wav,,,,,,,,,0,0,0,0,0,97,97,72,345.31577467,9.30104556573e-06,346.599380871,1.28361614392,,,,z,1,1.26724854864,2018_Nov_14_1236,59.7098510092,chinese_cond2,001,1012,
images/tulip02.jpg,sport shorts,x,sounds/greatgatsby_chinese.wav,,,,,,,,,0,0,0,0,0,98,98,225,347.722945583,9.62177136898e-06,350.083655529,2.36072020883,,,,x,1,2.35083351802,2018_Nov_14_1236,59.7098510092,chinese_cond2,001,1012,
images/flower01.jpg,bus,x,sounds/greatgatsby_chinese.wav,,,,,,,,,0,0,0,0,0,99,99,140,351.28919613,9.94249694486e-06,352.200867306,0.911681439827,,,,x,1,0.900488112462,2018_Nov_14_1236,59.7098510092,chinese_cond2,001,1012,
images/gps.jpg,gps,z,sounds/greatgatsby_chinese.wav,,,,,,,,,0,0,0,0,0,100,100,21,353.388658305,1.02632229755e-05,354.884917521,1.4962697996,,,,x,0,1.48398921207,2018_Nov_14_1236,59.7098510092,chinese_cond2,001,1012,
images/globe.jpg,cloud,x,sounds/greatgatsby_chinese.wav,,,,,,,,,0,0,0,0,0,101,101,154,356.093492187,9.94249694486e-06,356.985474653,0.891993050515,,,,x,1,0.883822883716,2018_Nov_14_1236,59.7098510092,chinese_cond2,001,1012,
images/paintbrush03a.jpg,paint brush,z,sounds/greatgatsby_chinese.wav,,,,,,,,,0,0,0,0,0,102,102,0,358.151870681,9.62177136898e-06,360.436385498,2.28452508059,,,,z,1,2.26751635461,2018_Nov_14_1236,59.7098510092,chinese_cond2,001,1012,
images/honeycomb.jpg,honey comb,z,sounds/greatgatsby_chinese.wav,,,,,,,,,0,0,0,0,0,103,103,59,361.631819711,9.62177136898e-06,364.187383356,2.55557358747,,,,z,1,2.53425270428,2018_Nov_14_1236,59.7098510092,chinese_cond2,001,1012,
images/microphone01.jpg,diaper,x,sounds/greatgatsby_chinese.wav,,,,,,,,,0,0,0,0,0,104,104,164,365.358096673,8.98031998986e-06,368.17178903,2.8137026212,,,,x,1,2.80101503273,2018_Nov_14_1236,59.7098510092,chinese_cond2,001,1012,
images/lamp04b.jpg,parking meter,x,sounds/greatgatsby_chinese.wav,,,,,,,,,0,0,0,0,0,105,105,209,369.374950167,9.94249717223e-06,371.422647212,2.04770730828,,,,x,1,2.03413291323,2018_Nov_14_1236,59.7098510092,chinese_cond2,001,1012,
images/wallet01.jpg,lamp,x,sounds/greatgatsby_chinese.wav,,,,,,,,,0,0,0,0,0,106,106,193,372.608501027,9.94249717223e-06,373.989986943,1.38149585831,,,,x,1,1.36728001183,2018_Nov_14_1236,59.7098510092,chinese_cond2,001,1012,
images/hat05.jpg,hat,z,sounds/greatgatsby_chinese.wav,,,,,,,,,0,0,0,0,0,107,107,15,375.15784548,1.02632227481e-05,375.990521914,0.832687338294,,,,z,1,0.817134386319,2018_Nov_14_1236,59.7098510092,chinese_cond2,001,1012,
images/lettuce.jpg,mushroom,x,sounds/greatgatsby_chinese.wav,,,,,,,,,0,0,0,0,0,108,108,205,377.182791526,8.98031998986e-06,378.757917836,1.57513689375,,,,x,1,1.55065461722,2018_Nov_14_1236,59.7098510092,chinese_cond2,001,1012,
images/highheelshoe02a.jpg,high heel shoe,z,sounds/greatgatsby_chinese.wav,,,,,,,,,0,0,0,0,0,109,109,75,379.948433399,9.30104579311e-06,381.625348428,1.67692561312,,,,z,1,1.66736445891,2018_Nov_14_1236,59.7098510092,chinese_cond2,001,1012,
images/cockroach02.jpg,belt,x,sounds/greatgatsby_chinese.wav,,,,,,,,,0,0,0,0,0,110,110,129,382.756268344,9.30104556573e-06,384.542783367,1.78652464504,,,,x,1,1.76738181017,2018_Nov_14_1236,59.7098510092,chinese_cond2,001,1012,
images/scissors04a.jpg,leek,x,sounds/greatgatsby_chinese.wav,,,,,,,,,0,0,0,0,0,111,111,194,385.637996568,9.30104556573e-06,387.243502338,1.60551571251,,,,x,1,1.58399694156,2018_Nov_14_1236,59.7098510092,chinese_cond2,001,1012,
images/ashtray02b.jpg,ashtray,z,sounds/greatgatsby_chinese.wav,,,,,,,,,0,0,0,0,0,112,112,43,388.442334319,9.94249694486e-06,389.444089971,1.00176591577,,,,x,0,0.983835424091,2018_Nov_14_1236,59.7098510092,chinese_cond2,001,1012,
images/nailpolish02b.jpg,nail polish,z,sounds/greatgatsby_chinese.wav,,,,,,,,,0,0,0,0,0,113,113,94,390.605283828,9.62177136898e-06,391.444621093,0.839346886988,,,,z,1,0.817130858336,2018_Nov_14_1236,59.7098510092,chinese_cond2,001,1012,
images/doorhandle.jpg,doll,x,sounds/greatgatsby_chinese.wav,,,,,,,,,0,0,0,0,0,114,114,168,392.619837719,9.30104579311e-06,393.461818726,0.841990949762,,,,x,1,0.833806350305,2018_Nov_14_1236,59.7098510092,chinese_cond2,001,1012,
images/pictureframe04.jpg,picture frame,z,sounds/greatgatsby_chinese.wav,,,,,,,,,0,0,0,0,0,115,115,41,394.666643468,9.30104579311e-06,395.679073834,1.01244062966,,,,z,1,1.00050610517,2018_Nov_14_1236,59.7098510092,chinese_cond2,001,1012,
images/desktopcomputer.jpg,desktop computer,z,sounds/greatgatsby_chinese.wav,,,,,,,,,0,0,0,0,0,116,116,16,396.878904234,9.30104556573e-06,398.29642625,1.41753163719,,,,z,1,1.40060950714,2018_Nov_14_1236,59.7098510092,chinese_cond2,001,1012,
images/spoon02b.jpg,spoon,z,sounds/greatgatsby_chinese.wav,,,,,,,,,0,0,0,0,0,117,117,38,399.464565101,8.98031998986e-06,400.447006651,0.982451171916,,,,z,1,0.967162818653,2018_Nov_14_1236,59.7098510092,chinese_cond2,001,1012,
images/lip.jpg,boxing glove,x,sounds/greatgatsby_chinese.wav,,,,,,,,,0,0,0,0,0,118,118,136,401.625480567,9.30104556573e-06,402.897656104,1.27218580025,,,,x,1,1.25057145304,2018_Nov_14_1236,59.7098510092,chinese_cond2,001,1012,
images/egg01b (1).jpg,egg,z,sounds/greatgatsby_chinese.wav,,,,,,,,,0,0,0,0,0,119,119,19,404.04032741,9.30104556573e-06,404.648126689,0.607808901357,,,,z,1,0.583734908653,2018_Nov_14_1236,59.7098510092,chinese_cond2,001,1012,
images/hairdryer03a.jpg,hairdryer,z,sounds/greatgatsby_chinese.wav,,,,,,,,,0,0,0,0,0,120,120,119,405.81848849,9.62177136898e-06,406.71534246,0.896864232637,,,,z,1,0.883811658316,2018_Nov_14_1236,59.7098510092,chinese_cond2,001,1012,
images/clothespin02a.jpg,clothes pin,z,sounds/greatgatsby_chinese.wav,,,,,,,,,0,0,0,0,0,121,121,79,407.895869021,9.62177136898e-06,409.149330212,1.2534711342,,,,z,1,1.23391712897,2018_Nov_14_1236,59.7098510092,chinese_cond2,001,1012,
images/floorlamp.jpg,floor lamp,z,sounds/greatgatsby_chinese.wav,,,,,,,,,0,0,0,0,0,122,122,26,410.276692638,9.30104556573e-06,411.100037557,0.823355502964,,,,z,1,0.800655819937,2018_Nov_14_1236,59.7098510092,chinese_cond2,001,1012,
images/bottleofredwine02.jpg,pipe,x,sounds/greatgatsby_chinese.wav,,,,,,,,,0,0,0,0,0,123,123,213,412.261952726,9.62177136898e-06,413.333768665,1.07182652331,,,,x,1,1.05052424221,2018_Nov_14_1236,59.7098510092,chinese_cond2,001,1012,
images/birthdaycandle.jpg,birthday candle,z,sounds/greatgatsby_chinese.wav,,,,,,,,,0,0,0,0,0,124,124,55,414.454116178,9.94249694486e-06,415.350972713,0.896866798442,,,,z,1,0.883823204441,2018_Nov_14_1236,59.7098510092,chinese_cond2,001,1012,
images/treadmill.jpg,lily,x,sounds/greatgatsby_chinese.wav,,,,,,,,,0,0,0,0,0,125,125,199,416.534720002,9.62177136898e-06,417.768281767,1.2335720281,,,,x,1,1.21724548571,2018_Nov_14_1236,59.7098510092,chinese_cond2,001,1012,
images/atm.jpg,atm,z,sounds/greatgatsby_chinese.wav,,,,,,,,,0,0,0,0,0,126,126,96,418.929993274,9.30104556573e-06,419.702129843,0.77214683208,,,,z,1,0.750446209647,2018_Nov_14_1236,59.7098510092,chinese_cond2,001,1012,
images/apple06.jpg,apple,z,sounds/greatgatsby_chinese.wav,,,,,,,,,0,0,0,0,0,127,127,13,420.891680022,9.30104556573e-06,421.519473343,0.627803262999,,,,z,1,0.617276082938,2018_Nov_14_1236,59.7098510092,chinese_cond2,001,1012,
images/dresser02.jpg,dresser,z,sounds/greatgatsby_chinese.wav,,,,,,,,,0,0,0,0,0,128,128,87,422.708140243,9.30104579311e-06,423.569833373,0.861703393503,,,,z,1,0.850472861954,2018_Nov_14_1236,59.7098510092,chinese_cond2,001,1012,
images/panda.jpg,panda,z,sounds/greatgatsby_chinese.wav,,,,,,,,,0,0,0,0,0,129,129,83,424.753660843,9.30104556573e-06,425.403636196,0.649985615452,,,,z,1,0.633744706823,2018_Nov_14_1236,59.7098510092,chinese_cond2,001,1012,
images/remotecontrol01c.jpg,remote control,z,sounds/greatgatsby_chinese.wav,,,,,,,,,0,0,0,0,0,130,130,85,426.569768266,9.30104579311e-06,427.504198781,0.934440136385,,,,z,1,0.9171607179,2018_Nov_14_1236,59.7098510092,chinese_cond2,001,1012,
images/aloe02.jpg,broad sword,x,sounds/greatgatsby_chinese.wav,,,,,,,,,0,0,0,0,0,131,131,137,428.735055866,9.62177136898e-06,429.771493835,1.03644823214,,,,x,1,1.01721591479,2018_Nov_14_1236,59.7098510092,chinese_cond2,001,1012,
images/charcoalbarbecue.jpg,charcoal barbecue,z,sounds/greatgatsby_chinese.wav,,,,,,,,,0,0,0,0,0,132,132,77,430.936625241,9.62177136898e-06,432.455503316,1.51888865975,,,,z,1,1.50064257397,2018_Nov_14_1236,59.7098510092,chinese_cond2,001,1012,
images/weight01.jpg,weight,z,sounds/greatgatsby_chinese.wav,,,,,,,,,0,0,0,0,0,133,133,67,433.655547641,9.30104579311e-06,434.656110514,1.00057281612,,,,z,1,0.983838631348,2018_Nov_14_1236,59.7098510092,chinese_cond2,001,1012,
images/boxingglove02a.jpg,bracelet,x,sounds/greatgatsby_chinese.wav,,,,,,,,,0,0,0,0,0,134,134,135,435.842517581,9.30104556573e-06,437.640231384,1.7977240662,,,,x,1,1.78406724464,2018_Nov_14_1236,59.7098510092,chinese_cond2,001,1012,
images/cauliflower01.jpg,glue stick,x,sounds/greatgatsby_chinese.wav,,,,,,,,,0,0,0,0,0,135,135,181,438.83205615,9.30104579311e-06,440.724382114,1.8923359063,,,,x,1,1.88409293477,2018_Nov_14_1236,59.7098510092,chinese_cond2,001,1012,
images/cake.jpg,cake,z,sounds/greatgatsby_chinese.wav,,,,,,,,,0,0,0,0,0,136,136,23,441.973373351,1.02632229755e-05,443.358537029,1.3851742615,,,,z,1,1.36740862284,2018_Nov_14_1236,59.7098510092,chinese_cond2,001,1012,
images/eraser.jpg,eraser,z,sounds/greatgatsby_chinese.wav,,,,,,,,,0,0,0,0,0,137,137,110,444.535100382,1.02632227481e-05,445.225571846,0.690482047539,,,,z,1,0.667098577293,2018_Nov_14_1236,59.7098510092,chinese_cond2,001,1012,
images/ant.jpg,ant,z,sounds/greatgatsby_chinese.wav,,,,,,,,,0,0,0,0,0,138,138,98,446.384295473,9.62177136898e-06,447.159430827,0.775145617492,,,,z,1,0.767139662257,2018_Nov_14_1236,59.7098510092,chinese_cond2,001,1012,
images/graduationcap.jpg,graduation cap,z,sounds/greatgatsby_chinese.wav,,,,,,,,,0,0,0,0,0,139,139,35,448.321532658,1.21875771129e-05,449.276677885,0.955156451606,,,,z,1,0.933856736315,2018_Nov_14_1236,59.7098510092,chinese_cond2,001,1012,
images/envelope02a.jpg,grand piano,x,sounds/greatgatsby_chinese.wav,,,,,,,,,0,0,0,0,0,140,140,182,450.501473895,9.62177136898e-06,452.310791234,1.8093282432,,,,x,1,1.80073600136,2018_Nov_14_1236,59.7098510092,chinese_cond2,001,1012,
images/paperclip04.jpg,eye drops,x,sounds/greatgatsby_chinese.wav,,,,,,,,,0,0,0,0,0,141,141,174,453.490608349,1.02632227481e-05,454.91147393,1.42087584419,,,,x,1,1.40061880819,2018_Nov_14_1236,59.7098510092,chinese_cond2,001,1012,
images/fork01.jpg,cooking pot,x,sounds/greatgatsby_chinese.wav,,,,,,,,,0,0,0,0,0,142,142,160,456.093391158,9.62177136898e-06,456.912001524,0.818620949996,,,,z,0,0.800460177252,2018_Nov_14_1236,59.7098510092,chinese_cond2,001,1012,
images/showerhead01.jpg,skateboard,x,sounds/greatgatsby_chinese.wav,,,,,,,,,0,0,0,0,0,143,143,223,458.086182527,9.30104579311e-06,458.995885731,0.909713466856,,,,x,1,0.900478169965,2018_Nov_14_1236,59.7098510092,chinese_cond2,001,1012,
images/bowl02b (1).jpg,bowl,z,sounds/greatgatsby_chinese.wav,,,,,,,,,0,0,0,0,0,144,144,24,460.182674461,9.94249717223e-06,460.829703948,0.647040391234,,,,z,1,0.633735726503,2018_Nov_14_1236,59.7098510092,chinese_cond2,001,1012,
images/mirror02.jpg,8 ball,x,sounds/greatgatsby_chinese.wav,,,,,,,,,0,0,0,0,0,145,145,121,462.003465441,9.62177136898e-06,462.980285311,0.976830453804,,,,x,1,0.967177572036,2018_Nov_14_1236,59.7098510092,chinese_cond2,001,1012,
images/doll.jpg,carrot,x,sounds/greatgatsby_chinese.wav,,,,,,,,,0,0,0,0,0,146,146,146,464.181686305,9.62177136898e-06,465.230708268,1.04903254692,,,,x,1,1.03367074747,2018_Nov_14_1236,59.7098510092,chinese_cond2,001,1012,
images/candy.jpg,candy,z,sounds/greatgatsby_chinese.wav,,,,,,,,,0,0,0,0,0,147,147,31,466.407683113,9.62177136898e-06,467.03136922,0.623696370251,,,,z,1,0.600420022393,2018_Nov_14_1236,59.7098510092,chinese_cond2,001,1012,
images/leaf01a.jpg,leaf,z,sounds/greatgatsby_chinese.wav,,,,,,,,,0,0,0,0,0,148,148,68,468.206704194,9.62177136898e-06,468.781830183,0.575136252301,,,,z,1,0.55040220608,2018_Nov_14_1236,59.7098510092,chinese_cond2,001,1012,
images/flamingo.jpg,flamingo,z,sounds/greatgatsby_chinese.wav,,,,,,,,,0,0,0,0,0,149,149,52,469.948036341,9.62177136898e-06,470.648980782,0.700954062777,,,,z,1,0.683740713788,2018_Nov_14_1236,59.7098510092,chinese_cond2,001,1012,
images/ostrich.jpg,ostrich,z,sounds/greatgatsby_chinese.wav,,,,,,,,,0,0,0,0,0,150,150,76,471.814172805,9.30104556573e-06,472.299420224,0.485256720086,,,,z,1,0.467022180428,2018_Nov_14_1236,59.7098510092,chinese_cond2,001,1012,
images/cigar.jpg,crocodile,x,sounds/greatgatsby_chinese.wav,,,,,,,,,0,0,0,0,0,151,151,162,473.459093841,9.30104579311e-06,475.383579934,1.92449603567,,,,x,1,1.90075559771,2018_Nov_14_1236,59.7098510092,chinese_cond2,001,1012,
images/medal01.jpg,medal,z,sounds/greatgatsby_chinese.wav,,,,,,,,,0,0,0,0,0,152,152,115,476.562124731,8.98031976249e-06,478.567770145,2.00565503576,,,,z,1,1.98411637981,2018_Nov_14_1236,59.7098510092,chinese_cond2,001,1012,
images/broom02.jpg,broom,z,sounds/greatgatsby_chinese.wav,,,,,,,,,0,0,0,0,0,153,153,116,479.663063527,9.30104556573e-06,482.018666236,2.35561265186,,,,z,1,2.33420068257,2018_Nov_14_1236,59.7098510092,chinese_cond2,001,1012,
images/djmixer01.jpg,light bulb,x,sounds/greatgatsby_chinese.wav,,,,,,,,,0,0,0,0,0,154,154,196,483.206719909,2.59787827872e-05,484.302605672,1.09591270359,,,,x,1,1.08386881164,2018_Nov_14_1236,59.7098510092,chinese_cond2,001,1012,
images/plant01.jpg,plant,z,sounds/greatgatsby_chinese.wav,,,,,,,,,0,0,0,0,0,155,155,47,485.443272121,9.30104579311e-06,486.386514254,0.943252075336,,,,z,1,0.933849359623,2018_Nov_14_1236,59.7098510092,chinese_cond2,001,1012,
images/carrot02.jpg,corkscrew,x,sounds/greatgatsby_chinese.wav,,,,,,,,,0,0,0,0,0,156,156,161,487.554248349,9.30104556573e-06,488.970542305,1.41630357843,,,,x,1,1.40064029681,2018_Nov_14_1236,59.7098510092,chinese_cond2,001,1012,
images/rubberglove02a.jpg,lady bug,x,sounds/greatgatsby_chinese.wav,,,,,,,,,0,0,0,0,0,157,157,192,490.15121608,8.98031998986e-06,491.137760674,0.986554215956,,,,x,1,0.967154479785,2018_Nov_14_1236,59.7098510092,chinese_cond2,001,1012,
images/hairpin.jpg,hair pin,z,sounds/greatgatsby_chinese.wav,,,,,,,,,0,0,0,0,0,158,158,28,492.297701134,9.94249694486e-06,493.638428264,1.34073739331,,,,z,1,1.31726893076,2018_Nov_14_1236,59.7098510092,chinese_cond2,001,1012,
images/raisin.jpg,ruler,x,sounds/greatgatsby_chinese.wav,,,,,,,,,0,0,0,0,0,159,159,218,494.787572135,9.94249694486e-06,495.605657794,0.818114524096,,,,x,1,0.80040052227,2018_Nov_14_1236,59.7098510092,chinese_cond2,001,1012,
images/lion.jpg,lion,z,sounds/greatgatsby_chinese.wav,,,,,,,,,0,0,0,0,0,160,160,44,496.751459061,9.62177136898e-06,497.356083477,0.604634678981,,,,z,1,0.583738436635,2018_Nov_14_1236,59.7098510092,chinese_cond2,001,1012,
images/tank.jpg,wallet,x,sounds/greatgatsby_chinese.wav,,,,,,,,,0,0,0,0,0,161,161,237,498.530895989,9.62177136898e-06,499.489973312,0.959087586664,,,,x,1,0.950503362969,2018_Nov_14_1236,59.7098510092,chinese_cond2,001,1012,
images/bench02.jpg,electric toothbrush,x,sounds/greatgatsby_chinese.wav,,,,,,,,,0,0,0,0,0,162,162,172,500.634549087,9.30104556573e-06,502.023986755,1.38944793162,,,,x,1,1.36727103151,2018_Nov_14_1236,59.7098510092,chinese_cond2,001,1012,
images/chessknight02b (1).jpg,cockroach,x,sounds/greatgatsby_chinese.wav,,,,,,,,,0,0,0,0,0,163,163,155,503.166658381,9.62177136898e-06,505.024783438,1.85813531995,,,,x,1,1.83406004434,2018_Nov_14_1236,59.7098510092,chinese_cond2,001,1012,
images/coffeepot03b.jpg,coffee pot,z,sounds/greatgatsby_chinese.wav,,,,,,,,,0,0,0,0,0,164,164,107,506.227751498,9.30104556573e-06,507.59213696,1.3643957255,,,,z,1,1.35060484058,2018_Nov_14_1236,59.7098510092,chinese_cond2,001,1012,
images/grandpiano.jpg,tulip,x,sounds/greatgatsby_chinese.wav,,,,,,,,,0,0,0,0,0,165,165,236,508.826512727,9.62177136898e-06,509.909421286,1.0829191428,,,,x,1,1.06720326217,2018_Nov_14_1236,59.7098510092,chinese_cond2,001,1012,
images/hairband.jpg,hairband,z,sounds/greatgatsby_chinese.wav,,,,,,,,,0,0,0,0,0,166,166,66,511.048551779,9.30104556573e-06,511.859924328,0.811382491391,,,,z,1,0.800454404189,2018_Nov_14_1236,59.7098510092,chinese_cond2,001,1012,
images/screwdriver02b.jpg,cola,x,sounds/greatgatsby_chinese.wav,,,,,,,,,0,0,0,0,0,167,167,158,513.021366747,9.62177136898e-06,513.827116333,0.805760169651,,,,x,1,0.783784685283,2018_Nov_14_1236,59.7098510092,chinese_cond2,001,1012,
images/fireextinguisher02.jpg,fire extinguisher,x,sounds/greatgatsby_chinese.wav,,,,,,,,,0,0,0,0,0,168,168,175,515.008511098,9.62177136898e-06,515.977688716,0.969187560076,,,,z,0,0.950494061924,2018_Nov_14_1236,59.7098510092,chinese_cond2,001,1012,
images/seagull.jpg,seagull,z,sounds/greatgatsby_chinese.wav,,,,,,,,,0,0,0,0,0,169,169,50,517.191118848,9.30104579311e-06,518.695108837,1.50400025145,,,,z,1,1.48395649805,2018_Nov_14_1236,59.7098510092,chinese_cond2,001,1012,
images/banana04a.jpg,banana,z,sounds/greatgatsby_chinese.wav,,,,,,,,,0,0,0,0,0,170,170,118,519.870972046,8.98031998986e-06,520.52889434,0.657931915704,,,,z,1,0.633732519246,2018_Nov_14_1236,59.7098510092,chinese_cond2,001,1012,
images/calculator02b.jpg,dice,x,sounds/greatgatsby_chinese.wav,,,,,,,,,0,0,0,0,0,171,171,165,521.659973014,9.94249694486e-06,522.56279152,0.902829410163,,,,x,1,0.883840202904,2018_Nov_14_1236,59.7098510092,chinese_cond2,001,1012,
images/pen03c.jpg,pepper,x,sounds/greatgatsby_chinese.wav,,,,,,,,,0,0,0,0,0,172,172,211,523.716596177,9.30104579311e-06,524.54665645,0.830069895755,,,,x,1,0.817155874941,2018_Nov_14_1236,59.7098510092,chinese_cond2,001,1012,
images/corn01.jpg,corn,z,sounds/greatgatsby_chinese.wav,,,,,,,,,0,0,0,0,0,173,173,22,525.718678649,9.30104579311e-06,526.813897943,1.09522955783,,,,z,1,1.08387362252,2018_Nov_14_1236,59.7098510092,chinese_cond2,001,1012,
images/lychee02a.jpg,lychee,z,sounds/greatgatsby_chinese.wav,,,,,,,,,0,0,0,0,0,174,174,62,527.999670935,9.94249717223e-06,528.831288333,0.83162766054,,,,z,1,0.817321690135,2018_Nov_14_1236,59.7098510092,chinese_cond2,001,1012,
images/gamecontroller01.jpg,game controller,z,sounds/greatgatsby_chinese.wav,,,,,,,,,0,0,0,0,0,175,175,112,530.030440398,9.62177136898e-06,531.198399322,1.16796886651,,,,z,1,1.15054961162,2018_Nov_14_1236,59.7098510092,chinese_cond2,001,1012,
images/safe.jpg,safe,z,sounds/greatgatsby_chinese.wav,,,,,,,,,0,0,0,0,0,176,176,78,532.370776243,8.98031998986e-06,533.315630664,0.944864363493,,,,z,1,0.933835247692,2018_Nov_14_1236,59.7098510092,chinese_cond2,001,1012,
images/arrow02.jpg,hammer,x,sounds/greatgatsby_chinese.wav,,,,,,,,,0,0,0,0,0,177,177,184,534.479387119,9.30104579311e-06,535.566230982,1.08685476802,,,,x,1,1.06720454507,2018_Nov_14_1236,59.7098510092,chinese_cond2,001,1012,
images/marker01a.jpg,marker,z,sounds/greatgatsby_chinese.wav,,,,,,,,,0,0,0,0,0,178,178,95,536.691523444,9.30104579311e-06,537.400039578,0.708526396849,,,,z,1,0.7004354493,2018_Nov_14_1236,59.7098510092,chinese_cond2,001,1012,
images/key03b.jpg,cigar,x,sounds/greatgatsby_chinese.wav,,,,,,,,,0,0,0,0,0,179,179,153,538.575618303,9.30104579311e-06,539.684023915,1.10841555404,,,,x,1,1.08390377074,2018_Nov_14_1236,59.7098510092,chinese_cond2,001,1012,
images/croissant02b.jpg,croissant,z,sounds/greatgatsby_chinese.wav,,,,,,,,,0,0,0,0,0,180,180,39,540.836003642,9.94249717223e-06,542.05127891,1.21528521015,,,,z,1,1.20056967301,2018_Nov_14_1236,59.7098510092,chinese_cond2,001,1012,
images/bullet (2).jpg,rubber glove,x,sounds/greatgatsby_chinese.wav,,,,,,,,,0,0,0,0,0,181,181,217,543.223940956,9.62177136898e-06,544.551951311,1.32802093954,,,,x,1,1.31725225302,2018_Nov_14_1236,59.7098510092,chinese_cond2,001,1012,
images/parrot01.jpg,chameleon,x,sounds/greatgatsby_chinese.wav,,,,,,,,,0,0,0,0,0,182,182,150,545.754568497,9.30104556573e-06,547.302687778,1.54812890223,,,,z,0,1.53399035065,2018_Nov_14_1236,59.7098510092,chinese_cond2,001,1012,
images/flipflop01b.jpg,flip flop,z,sounds/greatgatsby_chinese.wav,,,,,,,,,0,0,0,0,0,183,183,27,548.485415159,9.62177136898e-06,550.320152576,1.834748001,,,,z,1,1.81738968399,2018_Nov_14_1236,59.7098510092,chinese_cond2,001,1012,
images/baseball01a.jpg,baseball,z,sounds/greatgatsby_chinese.wav,,,,,,,,,0,0,0,0,0,184,184,74,551.533898944,9.62177136898e-06,552.120619167,0.586730166081,,,,z,1,0.567050757089,2018_Nov_14_1236,59.7098510092,chinese_cond2,001,1012,
images/ceilingfan02.jpg,paper clip,x,sounds/greatgatsby_chinese.wav,,,,,,,,,0,0,0,0,0,185,185,208,553.282761731,9.30104556573e-06,554.504586859,1.2218357121,,,,x,1,1.20054722221,2018_Nov_14_1236,59.7098510092,chinese_cond2,001,1012,
images/cola.jpg,comb,x,sounds/greatgatsby_chinese.wav,,,,,,,,,0,0,0,0,0,186,186,157,555.691788684,9.30104579311e-06,556.67184179,0.980063368986,,,,x,1,0.967181100019,2018_Nov_14_1236,59.7098510092,chinese_cond2,001,1012,
images/cat.jpg,black olive,x,sounds/greatgatsby_chinese.wav,,,,,,,,,0,0,0,0,0,187,187,133,557.881147069,9.62177136898e-06,559.172516116,1.29137963052,,,,x,1,1.26726683,2018_Nov_14_1236,59.7098510092,chinese_cond2,001,1012,
images/handbag02a.jpg,candle,x,sounds/greatgatsby_chinese.wav,,,,,,,,,0,0,0,0,0,188,188,144,560.31181499,9.30104556573e-06,561.35641158,1.04460653209,,,,x,1,1.03384233573,2018_Nov_14_1236,59.7098510092,chinese_cond2,001,1012,
images/belt02a.jpg,snowman,x,sounds/greatgatsby_chinese.wav,,,,,,,,,0,0,0,0,0,189,189,224,562.498633548,1.02632227481e-05,563.39028246,0.891659495774,,,,x,1,0.867133921266,2018_Nov_14_1236,59.7098510092,chinese_cond2,001,1012,
,,,sounds/greatgatsby_chinese.wav,,,,,,,,,0,0,0,0,,,,,,,,,,,,,,,2018_Nov_14_1236,59.7098510092,chinese_cond2,001,1012,
images/globe.jpg,cloud,x,sounds/animalfarm_english.wav,,,,,,,,,0,1,1,1,0,0,0,154,584.545952458,9.30104556573e-06,586.513111427,1.96716923317,,,574.393364955,x,1,1.95076988604,2018_Nov_14_1236,59.7098510092,chinese_cond2,001,1012,
images/corn01.jpg,corn,z,sounds/animalfarm_english.wav,,,,,,,,,0,1,1,1,0,1,1,22,587.612390468,8.98031998986e-06,588.396917633,0.784537107804,,,,z,1,0.767112721297,2018_Nov_14_1236,59.7098510092,chinese_cond2,001,1012,
images/safe.jpg,safe,z,sounds/animalfarm_english.wav,,,,,,,,,0,1,1,1,0,2,2,78,589.507222903,9.62177136898e-06,591.247681714,1.74046875346,,,,z,1,1.71737842651,2018_Nov_14_1236,59.7098510092,chinese_cond2,001,1012,
images/flamingo.jpg,flamingo,z,sounds/animalfarm_english.wav,,,,,,,,,0,1,1,1,0,3,3,52,592.344932486,9.62177136898e-06,594.081793716,1.73687181459,,,,z,1,1.7173957457,2018_Nov_14_1236,59.7098510092,chinese_cond2,001,1012,
images/glasses01b.jpg,calculator,x,sounds/animalfarm_english.wav,,,,,,,,,0,1,1,1,0,4,4,142,595.174086068,9.30104556573e-06,596.499075508,1.3249993826,,,,x,1,1.30059055225,2018_Nov_14_1236,59.7098510092,chinese_cond2,001,1012,
images/parkfountain.jpg,park fountain,z,sounds/animalfarm_english.wav,,,,,,,,,0,1,1,1,0,5,5,93,597.686609285,9.94249717223e-06,599.349831571,1.66323254955,,,,z,1,1.65068704258,2018_Nov_14_1236,59.7098510092,chinese_cond2,001,1012,
images/screw03c.jpg,screw,z,sounds/animalfarm_english.wav,,,,,,,,,0,1,1,1,0,6,6,84,600.516408488,8.98031998986e-06,601.367054862,0.850656317062,,,,x,0,0.833829442556,2018_Nov_14_1236,59.7098510092,chinese_cond2,001,1012,
images/cockroach02.jpg,belt,x,sounds/animalfarm_english.wav,,,,,,,,,0,1,1,1,0,7,7,129,602.465879435,9.94249717223e-06,603.467606863,1.00173833336,,,,x,1,0.983856271262,2018_Nov_14_1236,59.7098510092,chinese_cond2,001,1012,
images/electrictoothbrush01a.jpg,banjo,x,sounds/animalfarm_english.wav,,,,,,,,,0,1,1,1,0,8,8,127,604.561953784,9.30104579311e-06,606.935179409,2.37323524686,,,,z,0,2.35087296728,2018_Nov_14_1236,59.7098510092,chinese_cond2,001,1012,
images/snowman.jpg,globe,x,sounds/animalfarm_english.wav,,,,,,,,,0,1,1,1,0,9,9,180,608.045332655,9.30104556573e-06,610.852879588,2.80755719582,,,,x,1,2.78431292053,2018_Nov_14_1236,59.7098510092,chinese_cond2,001,1012,
images/cookingpot.jpg,grasshopper,x,sounds/animalfarm_english.wav,,,,,,,,,0,1,1,1,0,10,10,183,611.966040599,8.98031998986e-06,612.8534152,0.887384542753,,,,x,1,0.867145146666,2018_Nov_14_1236,59.7098510092,chinese_cond2,001,1012,
images/antelope.jpg,antelope,z,sounds/animalfarm_english.wav,,,,,,,,,0,1,1,1,0,11,11,12,613.95636206,9.30104579311e-06,614.820625165,0.864273047911,,,,z,1,0.850478314291,2018_Nov_14_1236,59.7098510092,chinese_cond2,001,1012,
images/key03b.jpg,cigar,x,sounds/animalfarm_english.wav,,,,,,,,,0,1,1,1,0,12,12,153,615.921579035,9.62177136898e-06,616.871157105,0.949588011786,,,,z,0,0.933836209869,2018_Nov_14_1236,59.7098510092,chinese_cond2,001,1012,
images/carrot02.jpg,corkscrew,x,sounds/animalfarm_english.wav,,,,,,,,,0,1,1,1,0,13,13,161,617.973048456,9.62177136898e-06,620.338792513,2.36575464034,,,,x,1,2.35092428339,2018_Nov_14_1236,59.7098510092,chinese_cond2,001,1012,
images/camera01a.jpg,bull,x,sounds/animalfarm_english.wav,,,,,,,,,0,1,1,1,0,14,14,138,621.449323573,9.62177136898e-06,622.672692675,1.22337968568,,,,x,1,1.20056293777,2018_Nov_14_1236,59.7098510092,chinese_cond2,001,1012,
images/ashtray02b.jpg,ashtray,z,sounds/animalfarm_english.wav,,,,,,,,,0,1,1,1,0,15,15,43,623.785292738,9.30104579311e-06,624.706564838,0.921282364031,,,,x,0,0.900493244073,2018_Nov_14_1236,59.7098510092,chinese_cond2,001,1012,
images/button07.jpg,radish,x,sounds/animalfarm_english.wav,,,,,,,,,0,1,1,1,0,16,16,215,625.901562223,9.62177136898e-06,627.440630303,1.53907866407,,,,x,1,1.51732095247,2018_Nov_14_1236,59.7098510092,chinese_cond2,001,1012,
images/broom02.jpg,broom,z,sounds/animalfarm_english.wav,,,,,,,,,0,1,1,1,0,17,17,116,628.53322542,9.30104556573e-06,629.807968366,1.27475288886,,,,z,1,1.25062918367,2018_Nov_14_1236,59.7098510092,chinese_cond2,001,1012,
images/tie01.jpg,bench,x,sounds/animalfarm_english.wav,,,,,,,,,0,1,1,1,0,18,18,130,630.906001708,9.30104579311e-06,632.00850757,1.10251612529,,,,x,1,1.08387747123,2018_Nov_14_1236,59.7098510092,chinese_cond2,001,1012,
images/handfan01b.jpg,handfan,z,sounds/animalfarm_english.wav,,,,,,,,,0,1,1,1,0,19,19,69,633.122252303,9.30104579311e-06,634.342459049,1.22021668871,,,,z,1,1.20056871083,2018_Nov_14_1236,59.7098510092,chinese_cond2,001,1012,
images/dolphin01.jpg,dolphin,z,sounds/animalfarm_english.wav,,,,,,,,,0,1,1,1,0,20,20,99,635.441670096,9.62177159636e-06,636.909824438,1.46816492614,,,,z,1,1.45063630378,2018_Nov_14_1236,59.7098510092,chinese_cond2,001,1012,
images/hairband.jpg,hairband,z,sounds/animalfarm_english.wav,,,,,,,,,0,1,1,1,0,21,21,66,638.018619731,8.98031998986e-06,639.143768187,1.12515871914,,,,z,1,1.10056867876,2018_Nov_14_1236,59.7098510092,chinese_cond2,001,1012,
images/sock03.jpg,sock,z,sounds/animalfarm_english.wav,,,,,,,,,0,1,1,1,0,22,22,90,640.248894378,8.65959418661e-06,642.928075014,2.6791905781,,,,z,1,2.66762713327,2018_Nov_14_1236,59.7098510092,chinese_cond2,001,1012,
images/remotecontrol01c.jpg,remote control,z,sounds/animalfarm_english.wav,,,,,,,,,0,1,1,1,0,23,23,85,644.037439595,8.98031998986e-06,644.995281804,0.95785215122,,,,z,1,0.933822097937,2018_Nov_14_1236,59.7098510092,chinese_cond2,001,1012,
images/showerhead01.jpg,skateboard,x,sounds/animalfarm_english.wav,,,,,,,,,0,1,1,1,0,24,24,223,646.102045941,9.30104556573e-06,647.379280606,1.27724460692,,,,x,1,1.26727997976,2018_Nov_14_1236,59.7098510092,chinese_cond2,001,1012,
images/ear.jpg,bullet,x,sounds/animalfarm_english.wav,,,,,,,,,0,1,1,1,0,25,25,139,648.482129644,1.02632227481e-05,649.646535248,1.16441650852,,,,x,1,1.15057366605,2018_Nov_14_1236,59.7098510092,chinese_cond2,001,1012,
images/fryingpan01.jpg,frying pan,z,sounds/animalfarm_english.wav,,,,,,,,,0,1,1,1,0,26,26,45,650.746307565,8.98031998986e-06,653.530897593,2.78459964932,,,,x,0,2.767641598,2018_Nov_14_1236,59.7098510092,chinese_cond2,001,1012,
images/candle08a.jpg,screw driver,x,sounds/animalfarm_english.wav,,,,,,,,,0,1,1,1,0,27,27,221,654.644275736,9.30104556573e-06,655.631450877,0.987185083432,,,,x,1,0.96716827099,2018_Nov_14_1236,59.7098510092,chinese_cond2,001,1012,
images/mushroom01.jpg,shower head,x,sounds/animalfarm_english.wav,,,,,,,,,0,1,1,1,0,28,28,222,656.747496816,9.30104579311e-06,657.648654924,0.901167730247,,,,x,1,0.883824487344,2018_Nov_14_1236,59.7098510092,chinese_cond2,001,1012,
images/rubberglove02a.jpg,lady bug,x,sounds/animalfarm_english.wav,,,,,,,,,0,1,1,1,0,29,29,192,658.752635483,9.62177136898e-06,659.715871336,0.963245795527,,,,x,1,0.950518437078,2018_Nov_14_1236,59.7098510092,chinese_cond2,001,1012,
images/rhinoceros01.jpg,envelope,x,sounds/animalfarm_english.wav,,,,,,,,,0,1,1,1,0,30,30,173,660.827201966,9.30104579311e-06,661.633039752,0.805848048497,,,,z,0,0.783786288912,2018_Nov_14_1236,59.7098510092,chinese_cond2,001,1012,
images/comb02a.jpg,diploma,x,sounds/animalfarm_english.wav,,,,,,,,,0,1,1,1,0,31,31,166,662.736905491,9.62177136898e-06,664.300405814,1.56351058667,,,,x,1,1.55065557939,2018_Nov_14_1236,59.7098510092,chinese_cond2,001,1012,
images/dryingmachine01.jpg,drying machine,z,sounds/animalfarm_english.wav,,,,,,,,,0,1,1,1,0,32,32,18,665.421253338,9.94249717223e-06,666.067565041,0.646321965638,,,,z,1,0.63376587472,2018_Nov_14_1236,59.7098510092,chinese_cond2,001,1012,
images/mattress.jpg,cat,x,sounds/animalfarm_english.wav,,,,,,,,,0,1,1,1,0,33,33,147,667.171178048,8.98031998986e-06,667.768223715,0.597055288943,,,,x,1,0.583959737377,2018_Nov_14_1236,59.7098510092,chinese_cond2,001,1012,
images/stapler03a.jpg,candy cane,x,sounds/animalfarm_english.wav,,,,,,,,,0,1,1,1,0,34,34,145,668.87875221,9.30104556573e-06,669.801873295,0.923131027037,,,,x,1,0.900483943028,2018_Nov_14_1236,59.7098510092,chinese_cond2,001,1012,
images/dice05a.jpg,band aid,x,sounds/animalfarm_english.wav,,,,,,,,,0,1,1,1,0,35,35,126,670.914889659,9.62177136898e-06,672.169173512,1.25429443711,,,,x,1,1.23391712897,2018_Nov_14_1236,59.7098510092,chinese_cond2,001,1012,
images/pen03c.jpg,pepper,x,sounds/animalfarm_english.wav,,,,,,,,,0,1,1,1,0,36,36,211,673.262079733,9.94249694486e-06,674.33642267,1.0743535212,,,,x,1,1.05052520439,2018_Nov_14_1236,59.7098510092,chinese_cond2,001,1012,
images/egg01b (1).jpg,egg,z,sounds/animalfarm_english.wav,,,,,,,,,0,1,1,1,0,37,37,19,675.447955037,9.30104556573e-06,676.286950408,0.839005314104,,,,z,1,0.817151384781,2018_Nov_14_1236,59.7098510092,chinese_cond2,001,1012,
images/grandpiano.jpg,tulip,x,sounds/animalfarm_english.wav,,,,,,,,,0,1,1,1,0,38,38,236,677.400559795,9.62177136898e-06,678.0875408,0.68699158961,,,,x,1,0.667227829755,2018_Nov_14_1236,59.7098510092,chinese_cond2,001,1012,
images/knife04.jpg,tooth brush,x,sounds/animalfarm_english.wav,,,,,,,,,0,1,1,1,0,39,39,233,679.250090364,9.30104579311e-06,679.904558122,0.654478341232,,,,x,1,0.633748555532,2018_Nov_14_1236,59.7098510092,chinese_cond2,001,1012,
images/lightbulb03b.jpg,treadmill,x,sounds/animalfarm_english.wav,,,,,,,,,0,1,1,1,0,40,40,234,681.009322534,9.30104579311e-06,684.005484089,2.99617245935,,,,None,0,,2018_Nov_14_1236,59.7098510092,chinese_cond2,001,1012,
images/chameleon.jpg,50 dollar bill,x,sounds/animalfarm_english.wav,,,,,,,,,0,1,1,1,0,41,41,120,685.114620955,9.30104556573e-06,686.839731116,1.72512074521,,,,x,1,1.70070197237,2018_Nov_14_1236,59.7098510092,chinese_cond2,001,1012,
images/sportshorts02.jpg,tape,x,sounds/animalfarm_english.wav,,,,,,,,,0,1,1,1,0,42,42,230,687.946969607,8.40301368044e-05,688.873595903,0.926692686075,,,,x,1,0.917149813225,2018_Nov_14_1236,59.7098510092,chinese_cond2,001,1012,
images/hairdryer03a.jpg,hairdryer,z,sounds/animalfarm_english.wav,,,,,,,,,0,1,1,1,0,43,43,119,689.972207193,9.94249694486e-06,690.790777468,0.818580859282,,,,z,1,0.800458573624,2018_Nov_14_1236,59.7098510092,chinese_cond2,001,1012,
images/ladder.jpg,ladder,z,sounds/animalfarm_english.wav,,,,,,,,,0,1,1,1,0,44,44,113,691.883005675,9.62177136898e-06,692.757974604,0.874979513645,,,,z,1,0.850478955743,2018_Nov_14_1236,59.7098510092,chinese_cond2,001,1012,
images/diploma01.jpg,glasses,x,sounds/animalfarm_english.wav,,,,,,,,,0,1,1,1,0,45,45,179,693.88857219,9.62177136898e-06,695.275305499,1.38674325169,,,,z,0,1.36727872893,2018_Nov_14_1236,59.7098510092,chinese_cond2,001,1012,
images/acousticguitar02.jpg,acoustic guitar,z,sounds/animalfarm_english.wav,,,,,,,,,0,1,1,1,0,46,46,97,696.388273113,9.30104556573e-06,698.242765951,1.85450278053,,,,x,0,1.83407415627,2018_Nov_14_1236,59.7098510092,chinese_cond2,001,1012,
images/straw.jpg,straw,z,sounds/animalfarm_english.wav,,,,,,,,,0,1,1,1,0,47,47,109,699.41400622,9.62177136898e-06,700.476693023,1.06269706591,,,,z,1,1.05047132247,2018_Nov_14_1236,59.7098510092,chinese_cond2,001,1012,
images/beachumbrella01.jpg,beach umbrella,z,sounds/animalfarm_english.wav,,,,,,,,,0,1,1,1,0,48,48,92,701.582152127,9.62177136898e-06,702.260555003,0.678413459704,,,,z,1,0.667158873727,2018_Nov_14_1236,59.7098510092,chinese_cond2,001,1012,
images/highheelshoe02a.jpg,high heel shoe,z,sounds/animalfarm_english.wav,,,,,,,,,0,1,1,1,0,49,49,75,703.367070899,9.30104556573e-06,703.927597774,0.560537138594,,,,z,1,0.550385207617,2018_Nov_14_1236,59.7098510092,chinese_cond2,001,1012,
images/gorilla.jpg,gorilla,z,sounds/animalfarm_english.wav,,,,,,,,,0,1,1,1,0,50,50,80,705.037022331,8.98031998986e-06,705.744752687,0.707741260305,,,,z,1,0.683760919508,2018_Nov_14_1236,59.7098510092,chinese_cond2,001,1012,
images/lighter02b.jpg,stapler,x,sounds/animalfarm_english.wav,,,,,,,,,0,1,1,1,0,51,51,227,706.925032931,1.02632227481e-05,708.395465387,1.47044304088,,,,x,1,1.4506452841,2018_Nov_14_1236,59.7098510092,chinese_cond2,001,1012,
images/teapot.jpg,light switch,x,sounds/animalfarm_english.wav,,,,,,,,,0,1,1,1,0,52,52,197,709.512043411,9.30104556573e-06,712.513060753,3.00102824663,,,,None,0,,2018_Nov_14_1236,59.7098510092,chinese_cond2,001,1012,
images/elbow.jpg,elbow,z,sounds/animalfarm_english.wav,,,,,,,,,0,1,1,1,0,53,53,105,713.698943113,9.62177136898e-06,714.963885964,1.26495343544,,,,z,1,1.25059999763,2018_Nov_14_1236,59.7098510092,chinese_cond2,001,1012,
images/shotglass.jpg,shot glass,z,sounds/animalfarm_english.wav,,,,,,,,,0,1,1,1,0,54,54,86,716.072258541,9.30104556573e-06,717.014401226,0.942152627593,,,,z,1,0.933820173583,2018_Nov_14_1236,59.7098510092,chinese_cond2,001,1012,
images/volleyball.jpg,volley ball,z,sounds/animalfarm_english.wav,,,,,,,,,0,1,1,1,0,55,55,2,718.146850361,9.30104556573e-06,718.881587105,0.734747006747,,,,z,1,0.717113186349,2018_Nov_14_1236,59.7098510092,chinese_cond2,001,1012,
images/dreamcatcher.jpg,dream catcher,z,sounds/animalfarm_english.wav,,,,,,,,,0,1,1,1,0,56,56,48,719.979744568,9.30104556573e-06,720.698715077,0.718980451447,,,,z,1,0.700386698991,2018_Nov_14_1236,59.7098510092,chinese_cond2,001,1012,
images/weight01.jpg,weight,z,sounds/animalfarm_english.wav,,,,,,,,,0,1,1,1,0,57,57,67,721.803327786,9.62177136898e-06,722.399163996,0.595846794459,,,,z,1,0.58371342003,2018_Nov_14_1236,59.7098510092,chinese_cond2,001,1012,
images/kiwi03.jpg,backpack,x,sounds/animalfarm_english.wav,,,,,,,,,0,1,1,1,0,58,58,125,723.527664036,8.65959418661e-06,724.466397407,0.938742992544,,,,x,1,0.917159755722,2018_Nov_14_1236,59.7098510092,chinese_cond2,001,1012,
images/masquerademask02b.jpg,mirror,x,sounds/animalfarm_english.wav,,,,,,,,,0,1,1,1,0,59,59,204,725.569740363,8.98031998986e-06,726.483591833,0.913861412495,,,,z,0,0.900487791736,2018_Nov_14_1236,59.7098510092,chinese_cond2,001,1012,
images/arrow02.jpg,hammer,x,sounds/animalfarm_english.wav,,,,,,,,,0,1,1,1,0,60,60,184,727.580146629,9.30104579311e-06,728.217385643,0.637249276683,,,,x,1,0.617081402431,2018_Nov_14_1236,59.7098510092,chinese_cond2,001,1012,
images/flipflop01b.jpg,flip flop,z,sounds/animalfarm_english.wav,,,,,,,,,0,1,1,1,0,61,61,27,729.332571396,9.30104556573e-06,730.884871978,1.552324636,,,,z,1,1.5340022175,2018_Nov_14_1236,59.7098510092,chinese_cond2,001,1012,
images/thumbtack02a.jpg,thumb tack,z,sounds/animalfarm_english.wav,,,,,,,,,0,1,1,1,0,62,62,60,732.072871448,9.30104556573e-06,734.252356933,2.17949574862,,,,z,1,2.16747142093,2018_Nov_14_1236,59.7098510092,chinese_cond2,001,1012,
images/saltshaker03c.jpg,salt shaker,z,sounds/animalfarm_english.wav,,,,,,,,,0,1,1,1,0,63,63,63,735.440053317,9.62177136898e-06,736.219506923,0.779463227033,,,,z,1,0.767114645651,2018_Nov_14_1236,59.7098510092,chinese_cond2,001,1012,
images/apple06.jpg,apple,z,sounds/animalfarm_english.wav,,,,,,,,,0,1,1,1,0,64,64,13,737.345265399,9.30104579311e-06,737.886620895,0.541365759131,,,,z,1,0.517055712301,2018_Nov_14_1236,59.7098510092,chinese_cond2,001,1012,
images/boxingglove02a.jpg,bracelet,x,sounds/animalfarm_english.wav,,,,,,,,,0,1,1,1,0,65,65,135,738.996498958,9.94249694486e-06,740.203902975,1.20741460117,,,,x,1,1.18389129451,2018_Nov_14_1236,59.7098510092,chinese_cond2,001,1012,
images/wallet01.jpg,lamp,x,sounds/animalfarm_english.wav,,,,,,,,,0,1,1,1,0,66,66,193,741.307724454,9.62177136898e-06,743.088002325,1.78028781284,,,,x,1,1.76738630033,2018_Nov_14_1236,59.7098510092,chinese_cond2,001,1012,
images/charcoalbarbecue.jpg,charcoal barbecue,z,sounds/animalfarm_english.wav,,,,,,,,,0,1,1,1,0,67,67,77,744.20344113,9.30104579311e-06,745.121873205,0.918442658573,,,,z,1,0.900483622302,2018_Nov_14_1236,59.7098510092,chinese_cond2,001,1012,
images/electricguitar02.jpg,electric guitar,z,sounds/animalfarm_english.wav,,,,,,,,,0,1,1,1,0,68,68,100,746.221502799,9.30104533836e-06,747.289131664,1.06763944913,,,,x,0,1.05051622407,2018_Nov_14_1236,59.7098510092,chinese_cond2,001,1012,
images/redfox.jpg,red fox,z,sounds/animalfarm_english.wav,,,,,,,,,0,1,1,1,0,69,69,1,748.481325906,1.09046741272e-05,749.256313085,0.774998725115,,,,z,1,0.750451020533,2018_Nov_14_1236,59.7098510092,chinese_cond2,001,1012,
images/hand01a.jpg,cupcake,x,sounds/animalfarm_english.wav,,,,,,,,,0,1,1,1,0,70,70,163,750.366212637,9.62177136898e-06,751.040126635,0.673924582632,,,,x,1,0.650431103467,2018_Nov_14_1236,59.7098510092,chinese_cond2,001,1012,
images/medal01.jpg,medal,z,sounds/animalfarm_english.wav,,,,,,,,,0,1,1,1,0,71,71,115,752.139059613,9.62177136898e-06,753.07401259,0.934962919297,,,,z,1,0.91718092362,2018_Nov_14_1236,59.7098510092,chinese_cond2,001,1012,
images/licenseplate.jpg,license plate,z,sounds/animalfarm_english.wav,,,,,,,,,0,1,1,1,0,72,72,40,754.189693543,9.94249739961e-06,754.92449347,0.734810510438,,,,z,1,0.71711607288,2018_Nov_14_1236,59.7098510092,chinese_cond2,001,1012,
images/tissuebox03.jpg,tissue box,z,sounds/animalfarm_english.wav,,,,,,,,,0,1,1,1,0,73,73,58,756.048403925,8.98032021723e-06,756.79163573,0.743241747968,,,,z,1,0.733769434776,2018_Nov_14_1236,59.7098510092,chinese_cond2,001,1012,
images/doorhandle.jpg,doll,x,sounds/animalfarm_english.wav,,,,,,,,,0,1,1,1,0,74,74,168,757.893099554,9.30104579311e-06,758.825513987,0.932424375283,,,,x,1,0.917154624111,2018_Nov_14_1236,59.7098510092,chinese_cond2,001,1012,
images/eyedrops.jpg,bicycle,x,sounds/animalfarm_english.wav,,,,,,,,,0,1,1,1,0,75,75,131,759.92474973,9.30104579311e-06,760.592704965,0.667966140345,,,,z,0,0.650469269826,2018_Nov_14_1236,59.7098510092,chinese_cond2,001,1012,
images/magnifyingglass01b.jpg,magnifying glass,z,sounds/animalfarm_english.wav,,,,,,,,,0,1,1,1,0,76,76,64,761.698364844,9.94249694486e-06,762.559852068,0.861497487595,,,,z,1,0.850490501868,2018_Nov_14_1236,59.7098510092,chinese_cond2,001,1012,
images/aquarium.jpg,computer mouse,x,sounds/animalfarm_english.wav,,,,,,,,,0,1,1,1,0,77,77,159,763.775131826,9.30104579311e-06,765.293921703,1.51880046018,,,,z,0,1.50065444082,2018_Nov_14_1236,59.7098510092,chinese_cond2,001,1012,
images/cherry01.jpg,highlighter,x,sounds/animalfarm_english.wav,,,,,,,,,0,1,1,1,0,78,78,187,766.48241477,1.09046741272e-05,767.327765,0.845361456274,,,,z,0,0.833789672567,2018_Nov_14_1236,59.7098510092,chinese_cond2,001,1012,
images/feather03b.jpg,feather,z,sounds/animalfarm_english.wav,,,,,,,,,0,1,1,1,0,79,79,114,768.426282959,9.62177136898e-06,769.294966306,0.868693610406,,,,z,1,0.850474465583,2018_Nov_14_1236,59.7098510092,chinese_cond2,001,1012,
images/flashlight05.jpg,flash light,z,sounds/animalfarm_english.wav,,,,,,,,,0,1,1,1,0,80,80,8,770.395548455,9.62177136898e-06,771.428861594,1.03332340153,,,,z,1,1.01718576658,2018_Nov_14_1236,59.7098510092,chinese_cond2,001,1012,
images/grasshopper.jpg,cauliflower,x,sounds/animalfarm_english.wav,,,,,,,,,0,1,1,1,0,81,81,148,772.520728663,9.62177136898e-06,773.312704683,0.791985962477,,,,x,1,0.783808739711,2018_Nov_14_1236,59.7098510092,chinese_cond2,001,1012,
images/watermelon01.jpg,orange,x,sounds/animalfarm_english.wav,,,,,,,,,0,1,1,1,0,82,82,207,774.441638985,9.30104579311e-06,775.17987196,0.738242917013,,,,z,0,0.717108375463,2018_Nov_14_1236,59.7098510092,chinese_cond2,001,1012,
images/peach01.jpg,peach,z,sounds/animalfarm_english.wav,,,,,,,,,0,1,1,1,0,83,83,106,776.383058434,9.62177136898e-06,777.097023377,0.713975205978,,,,z,1,0.700425186077,2018_Nov_14_1236,59.7098510092,chinese_cond2,001,1012,
images/radio03a.jpg,radio,z,sounds/animalfarm_english.wav,,,,,,,,,0,1,1,1,0,84,84,37,778.210453477,9.94249739961e-06,778.81415292,0.603709064575,,,,z,1,0.583733946476,2018_Nov_14_1236,59.7098510092,chinese_cond2,001,1012,
images/battery03b.jpg,battery,z,sounds/animalfarm_english.wav,,,,,,,,,0,1,1,1,0,85,85,34,779.923188116,9.30104533836e-06,780.481264006,0.558086152699,,,,z,1,0.533728638465,2018_Nov_14_1236,59.7098510092,chinese_cond2,001,1012,
images/cola.jpg,comb,x,sounds/animalfarm_english.wav,,,,,,,,,0,1,1,1,0,86,86,157,781.604368797,9.30104579311e-06,782.381840318,0.777507120913,,,,x,1,0.767125871051,2018_Nov_14_1236,59.7098510092,chinese_cond2,001,1012,
images/honeycomb.jpg,honey comb,z,sounds/animalfarm_english.wav,,,,,,,,,0,1,1,1,0,87,87,59,783.495176125,9.62177136898e-06,784.215587975,0.720422113525,,,,z,1,0.700430317689,2018_Nov_14_1236,59.7098510092,chinese_cond2,001,1012,
images/gps.jpg,gps,z,sounds/animalfarm_english.wav,,,,,,,,,0,1,1,1,0,88,88,21,785.333827999,9.30104579311e-06,786.532879678,1.19906194144,,,,z,1,1.18390765152,2018_Nov_14_1236,59.7098510092,chinese_cond2,001,1012,
images/coffeepot03b.jpg,coffee pot,z,sounds/animalfarm_english.wav,,,,,,,,,0,1,1,1,0,89,89,107,787.654209573,9.62177136898e-06,788.633433924,0.979234934471,,,,z,1,0.96717725131,2018_Nov_14_1236,59.7098510092,chinese_cond2,001,1012,
images/leaf01a.jpg,leaf,z,sounds/animalfarm_english.wav,,,,,,,,,0,1,1,1,0,90,90,68,789.734690559,9.30104533836e-06,790.417235928,0.68255563228,,,,z,1,0.667087993344,2018_Nov_14_1236,59.7098510092,chinese_cond2,001,1012,
images/crocodile.jpg,triangle ruler,x,sounds/animalfarm_english.wav,,,,,,,,,0,1,1,1,0,91,91,235,791.620118996,9.30104533836e-06,792.684506607,1.06439819508,,,,x,1,1.05052809092,2018_Nov_14_1236,59.7098510092,chinese_cond2,001,1012,
images/raisin.jpg,ruler,x,sounds/animalfarm_english.wav,,,,,,,,,0,1,1,1,0,92,92,218,793.788259771,9.62177136898e-06,795.135179153,1.34692996537,,,,x,1,1.3339315937,2018_Nov_14_1236,59.7098510092,chinese_cond2,001,1012,
images/notebook02b.jpg,notebook,z,sounds/animalfarm_english.wav,,,,,,,,,0,1,1,1,0,93,93,7,796.240351528,9.62177136898e-06,797.135695521,0.895354897434,,,,z,1,0.883723138018,2018_Nov_14_1236,59.7098510092,chinese_cond2,001,1012,
images/paperclip04.jpg,eye drops,x,sounds/animalfarm_english.wav,,,,,,,,,0,1,1,1,0,94,94,174,798.240646917,9.62177136898e-06,799.186232592,0.945595297391,,,,x,1,0.933814721246,2018_Nov_14_1236,59.7098510092,chinese_cond2,001,1012,
images/giraffe.jpg,lettuce,x,sounds/animalfarm_english.wav,,,,,,,,,0,1,1,1,0,95,95,195,800.285575778,9.62177136898e-06,801.020056582,0.734491388354,,,,x,1,0.717108054738,2018_Nov_14_1236,59.7098510092,chinese_cond2,001,1012,
images/parrot01.jpg,chameleon,x,sounds/animalfarm_english.wav,,,,,,,,,0,1,1,1,0,96,96,150,802.131685167,9.30104533836e-06,803.22064614,1.088971237,,,,x,1,1.06721128031,2018_Nov_14_1236,59.7098510092,chinese_cond2,001,1012,
images/chessknight02b (1).jpg,cockroach,x,sounds/animalfarm_english.wav,,,,,,,,,0,1,1,1,0,97,97,155,804.327824655,9.30104579311e-06,805.921372488,1.59355809577,,,,x,1,1.5840248447,2018_Nov_14_1236,59.7098510092,chinese_cond2,001,1012,
images/banjo.jpg,knife,x,sounds/animalfarm_english.wav,,,,,,,,,0,1,1,1,0,98,98,191,807.07919231,9.62177136898e-06,807.805184788,0.726003061648,,,,x,1,0.717100678046,2018_Nov_14_1236,59.7098510092,chinese_cond2,001,1012,
images/bull.jpg,button,x,sounds/animalfarm_english.wav,,,,,,,,,0,1,1,1,0,99,99,141,808.909286581,8.98032021723e-06,809.772393149,0.863116510992,,,,x,1,0.850480238646,2018_Nov_14_1236,59.7098510092,chinese_cond2,001,1012,
images/hammer02a.jpg,flower,x,sounds/animalfarm_english.wav,,,,,,,,,0,1,1,1,0,100,100,176,810.865822474,9.62177136898e-06,811.622698272,0.756885419777,,,,x,1,0.733605864662,2018_Nov_14_1236,59.7098510092,chinese_cond2,001,1012,
images/panda.jpg,panda,z,sounds/animalfarm_english.wav,,,,,,,,,0,1,1,1,0,101,101,83,812.730577572,9.94249694486e-06,814.24023318,1.50966651261,,,,z,1,1.5006480263,2018_Nov_14_1236,59.7098510092,chinese_cond2,001,1012,
images/seagull.jpg,seagull,z,sounds/animalfarm_english.wav,,,,,,,,,0,1,1,1,0,102,102,50,815.34652553,9.30104533836e-06,816.707550749,1.36103516148,,,,z,1,1.35059650172,2018_Nov_14_1236,59.7098510092,chinese_cond2,001,1012,
images/cactus.jpg,cactus,z,sounds/animalfarm_english.wav,,,,,,,,,0,1,1,1,0,103,103,70,817.81793139,9.62177136898e-06,819.191555998,1.3736348711,,,,x,0,1.3505775789,2018_Nov_14_1236,59.7098510092,chinese_cond2,001,1012,
images/radish01.jpg,raisin,x,sounds/animalfarm_english.wav,,,,,,,,,0,1,1,1,0,104,104,214,820.386188717,9.94249694486e-06,821.525494968,1.13931683499,,,,x,1,1.1172063251,2018_Nov_14_1236,59.7098510092,chinese_cond2,001,1012,
images/skateboard.jpg,key,x,sounds/animalfarm_english.wav,,,,,,,,,0,1,1,1,0,105,105,189,822.614937992,9.62177136898e-06,823.175956861,0.561029452563,,,,z,0,0.5504111864,2018_Nov_14_1236,59.7098510092,chinese_cond2,001,1012,
images/toothbrush03a.jpg,parrot,x,sounds/animalfarm_english.wav,,,,,,,,,0,1,1,1,0,106,106,210,824.336980092,9.62177136898e-06,825.126470487,0.789500979657,,,,x,1,0.767136134274,2018_Nov_14_1236,59.7098510092,chinese_cond2,001,1012,
images/bowlingball.jpg,bowling ball,z,sounds/animalfarm_english.wav,,,,,,,,,0,1,1,1,0,107,107,20,826.256653054,9.62177136898e-06,826.976940142,0.720297351223,,,,z,1,0.7004242239,2018_Nov_14_1236,59.7098510092,chinese_cond2,001,1012,
images/tent.jpg,tent,z,sounds/animalfarm_english.wav,,,,,,,,,0,1,1,1,0,108,108,11,828.10184196,9.62177136898e-06,828.827432568,0.72560119233,,,,z,1,0.717073416361,2018_Nov_14_1236,59.7098510092,chinese_cond2,001,1012,
images/bench02.jpg,electric toothbrush,x,sounds/animalfarm_english.wav,,,,,,,,,0,1,1,1,0,109,109,172,829.934830139,9.94249694486e-06,831.061419295,1.12659973976,,,,x,1,1.11726662153,2018_Nov_14_1236,59.7098510092,chinese_cond2,001,1012,
images/spoon02b.jpg,spoon,z,sounds/animalfarm_english.wav,,,,,,,,,0,1,1,1,0,110,110,38,832.15137965,9.62177136898e-06,832.695133853,0.54376703254,,,,z,1,0.533712602179,2018_Nov_14_1236,59.7098510092,chinese_cond2,001,1012,
images/bandaid01.jpg,door handle,x,sounds/animalfarm_english.wav,,,,,,,,,0,1,1,1,0,111,111,170,833.800680516,9.30104579311e-06,835.262490262,1.46181968865,,,,x,1,1.45064079394,2018_Nov_14_1236,59.7098510092,chinese_cond2,001,1012,
images/djmixer01.jpg,light bulb,x,sounds/animalfarm_english.wav,,,,,,,,,0,1,1,1,0,112,112,196,836.382514804,9.30104533836e-06,837.329996289,0.947491748529,,,,z,0,0.934131918976,2018_Nov_14_1236,59.7098510092,chinese_cond2,001,1012,
images/desktopcomputer.jpg,desktop computer,z,sounds/animalfarm_english.wav,,,,,,,,,0,1,1,1,0,113,113,16,838.464385174,9.94249739961e-06,839.130184812,0.665809580654,,,,z,1,0.650422443872,2018_Nov_14_1236,59.7098510092,chinese_cond2,001,1012,
images/hanger02a.jpg,hanger,z,sounds/animalfarm_english.wav,,,,,,,,,0,1,1,1,0,114,114,88,840.300546613,9.30104579311e-06,840.980671786,0.680135115328,,,,z,1,0.667103708904,2018_Nov_14_1236,59.7098510092,chinese_cond2,001,1012,
images/lock02a.jpg,lock,z,sounds/animalfarm_english.wav,,,,,,,,,0,1,1,1,0,115,115,65,842.166338618,9.30104579311e-06,843.581190271,1.41486191636,,,,z,1,1.40044657848,2018_Nov_14_1236,59.7098510092,chinese_cond2,001,1012,
images/orange.jpg,bat,x,sounds/animalfarm_english.wav,,,,,,,,,0,1,1,1,0,116,116,128,844.704418221,9.62177136898e-06,845.465211684,0.760803405081,,,,z,0,0.750474112785,2018_Nov_14_1236,59.7098510092,chinese_cond2,001,1012,
images/icecube02 (2).jpg,aloe,x,sounds/animalfarm_english.wav,,,,,,,,,0,1,1,1,0,117,117,122,846.646988434,8.98031976249e-06,847.549081458,0.90210328715,,,,x,1,0.88382256299,2018_Nov_14_1236,59.7098510092,chinese_cond2,001,1012,
images/toucan.jpg,toucan,z,sounds/animalfarm_english.wav,,,,,,,,,0,1,1,1,0,118,118,81,848.648317521,9.62177136898e-06,849.732824256,1.08451731903,,,,x,0,1.06702590085,2018_Nov_14_1236,59.7098510092,chinese_cond2,001,1012,
images/mitten01.jpg,mitten,z,sounds/animalfarm_english.wav,,,,,,,,,0,1,1,1,0,119,119,102,850.921561716,9.62177136898e-06,852.150314199,1.22876306677,,,,x,0,1.21721854475,2018_Nov_14_1236,59.7098510092,chinese_cond2,001,1012,
images/aloe02.jpg,broad sword,x,sounds/animalfarm_english.wav,,,,,,,,,0,1,1,1,0,120,120,137,853.270919575,9.62177136898e-06,854.784341465,1.5134321532,,,,x,1,1.50065155429,2018_Nov_14_1236,59.7098510092,chinese_cond2,001,1012,
images/floorlamp.jpg,floor lamp,z,sounds/animalfarm_english.wav,,,,,,,,,0,1,1,1,0,121,121,26,855.875229038,9.62177136898e-06,856.484795196,0.609576420759,,,,z,1,0.600420022393,2018_Nov_14_1236,59.7098510092,chinese_cond2,001,1012,
images/corkscrew02a.jpg,masquerade mask,x,sounds/animalfarm_english.wav,,,,,,,,,0,1,1,1,0,122,122,201,857.666118119,9.30104579311e-06,858.752071968,1.08596411272,,,,x,1,1.06721128031,2018_Nov_14_1236,59.7098510092,chinese_cond2,001,1012,
images/dragonfly02.jpg,dragon fly,z,sounds/animalfarm_english.wav,,,,,,,,,0,1,1,1,0,123,123,29,859.84880124,9.62177136898e-06,860.485851987,0.637061652141,,,,z,1,0.617057027277,2018_Nov_14_1236,59.7098510092,chinese_cond2,001,1012,
images/tape01a.jpg,tie,x,sounds/animalfarm_english.wav,,,,,,,,,0,1,1,1,0,124,124,232,861.610070338,9.30104579311e-06,862.31965962,0.709598903631,,,,z,0,0.700410111969,2018_Nov_14_1236,59.7098510092,chinese_cond2,001,1012,
images/fork01.jpg,cooking pot,x,sounds/animalfarm_english.wav,,,,,,,,,0,1,1,1,0,125,125,160,863.41246802,9.94249694486e-06,865.420481352,2.00802391588,,,,x,1,1.98410226788,2018_Nov_14_1236,59.7098510092,chinese_cond2,001,1012,
images/gluestick.jpg,squirrel,x,sounds/animalfarm_english.wav,,,,,,,,,0,1,1,1,0,126,126,226,866.526044371,9.30104579311e-06,867.537725843,1.01169109367,,,,z,0,1.0005163684,2018_Nov_14_1236,59.7098510092,chinese_cond2,001,1012,
images/backpack01b.jpg,swallow,x,sounds/animalfarm_english.wav,,,,,,,,,0,1,1,1,0,127,127,228,868.66912813,9.30104533836e-06,869.971707181,1.30258963562,,,,x,1,1.28392339915,2018_Nov_14_1236,59.7098510092,chinese_cond2,001,1012,
images/lipstick04.jpg,lipstick,z,sounds/animalfarm_english.wav,,,,,,,,,0,1,1,1,0,128,128,56,871.070342205,9.62177136898e-06,871.722156919,0.651824977413,,,,z,1,0.633733160697,2018_Nov_14_1236,59.7098510092,chinese_cond2,001,1012,
images/nailpolish02b.jpg,nail polish,z,sounds/animalfarm_english.wav,,,,,,,,,0,1,1,1,0,129,129,94,872.828900851,9.30104579311e-06,873.405944138,0.577052909159,,,,z,1,0.567051077815,2018_Nov_14_1236,59.7098510092,chinese_cond2,001,1012,
images/computerkeyboard01a.jpg,computer keyboard,z,sounds/animalfarm_english.wav,,,,,,,,,0,1,1,1,0,130,130,61,874.521376529,8.98032021723e-06,875.289784662,0.768417754221,,,,z,1,0.750451661984,2018_Nov_14_1236,59.7098510092,chinese_cond2,001,1012,
images/graduationcap.jpg,graduation cap,z,sounds/animalfarm_english.wav,,,,,,,,,0,1,1,1,0,131,131,35,876.390540003,9.30104579311e-06,877.190278226,0.799748807622,,,,z,1,0.783784685283,2018_Nov_14_1236,59.7098510092,chinese_cond2,001,1012,
images/lollipop03b.jpg,lollipop,z,sounds/animalfarm_english.wav,,,,,,,,,0,1,1,1,0,132,132,42,878.357184849,9.62177136898e-06,879.174134177,0.816959911531,,,,z,1,0.800455687092,2018_Nov_14_1236,59.7098510092,chinese_cond2,001,1012,
images/50dollarbill.jpg,cherry,x,sounds/animalfarm_english.wav,,,,,,,,,0,1,1,1,0,133,133,151,880.370273986,9.30104579311e-06,881.324719068,0.954455665925,,,,x,1,0.933832040435,2018_Nov_14_1236,59.7098510092,chinese_cond2,001,1012,
images/hairpin.jpg,hair pin,z,sounds/animalfarm_english.wav,,,,,,,,,0,1,1,1,0,134,134,28,882.413695437,9.62177136898e-06,883.008493779,0.594808284602,,,,z,1,0.58374036099,2018_Nov_14_1236,59.7098510092,chinese_cond2,001,1012,
images/cauliflower01.jpg,glue stick,x,sounds/animalfarm_english.wav,,,,,,,,,0,1,1,1,0,135,135,181,884.122623062,9.30104579311e-06,885.159060389,1.03644759069,,,,x,1,1.01717389973,2018_Nov_14_1236,59.7098510092,chinese_cond2,001,1012,
images/broadsword.jpg,teapot,x,sounds/animalfarm_english.wav,,,,,,,,,0,1,1,1,0,136,136,231,886.327612656,9.30104579311e-06,887.3429767,1.01537398703,,,,x,1,1.00050995388,2018_Nov_14_1236,59.7098510092,chinese_cond2,001,1012,
images/tank.jpg,wallet,x,sounds/animalfarm_english.wav,,,,,,,,,0,1,1,1,0,137,137,237,888.4460294,8.98032021723e-06,889.460209646,1.01419050915,,,,x,1,1.0005163684,2018_Nov_14_1236,59.7098510092,chinese_cond2,001,1012,
images/cheetah.jpg,cheetah,z,sounds/animalfarm_english.wav,,,,,,,,,0,1,1,1,0,138,138,82,890.5610859,9.62177136898e-06,891.410736101,0.849660463724,,,,x,0,0.833813406271,2018_Nov_14_1236,59.7098510092,chinese_cond2,001,1012,
images/pipe.jpg,icecube,x,sounds/animalfarm_english.wav,,,,,,,,,0,1,1,1,0,139,139,188,892.518378706,9.30104579311e-06,893.544631068,1.02626198352,,,,x,1,1.01708858669,2018_Nov_14_1236,59.7098510092,chinese_cond2,001,1012,
images/pouch01b.jpg,pouch,z,sounds/animalfarm_english.wav,,,,,,,,,0,1,1,1,0,140,140,25,894.65672278,9.94249739961e-06,895.778547555,1.1218353593,,,,z,1,1.1005317953,2018_Nov_14_1236,59.7098510092,chinese_cond2,001,1012,
images/razor04a.jpg,razor,z,sounds/animalfarm_english.wav,,,,,,,,,0,1,1,1,0,141,141,36,896.87633458,9.30104579311e-06,897.779086374,0.902761416312,,,,z,1,0.883819035007,2018_Nov_14_1236,59.7098510092,chinese_cond2,001,1012,
images/sunglasses03a.jpg,sun glasses,z,sounds/animalfarm_english.wav,,,,,,,,,0,1,1,1,0,142,142,17,898.965604412,9.62177136898e-06,899.529540602,0.563946452918,,,,z,1,0.550390659954,2018_Nov_14_1236,59.7098510092,chinese_cond2,001,1012,
images/cat.jpg,black olive,x,sounds/animalfarm_english.wav,,,,,,,,,0,1,1,1,0,143,143,133,900.65865419,9.30104579311e-06,901.963530921,1.30488731462,,,,x,1,1.28390960795,2018_Nov_14_1236,59.7098510092,chinese_cond2,001,1012,
images/parkingmeter.jpg,ear,x,sounds/animalfarm_english.wav,,,,,,,,,0,1,1,1,0,144,144,171,903.138211293,9.62177136898e-06,904.964325358,1.82612432804,,,,x,1,1.81738872181,2018_Nov_14_1236,59.7098510092,chinese_cond2,001,1012,
images/croissant02b.jpg,croissant,z,sounds/animalfarm_english.wav,,,,,,,,,0,1,1,1,0,145,145,39,906.073795458,9.30104579311e-06,906.948184837,0.874399320831,,,,z,1,0.85047318268,2018_Nov_14_1236,59.7098510092,chinese_cond2,001,1012,
images/treadmill.jpg,lily,x,sounds/animalfarm_english.wav,,,,,,,,,0,1,1,1,0,146,146,199,908.053171512,9.62177136898e-06,908.848684816,0.79552324636,,,,x,1,0.783794307054,2018_Nov_14_1236,59.7098510092,chinese_cond2,001,1012,
images/doll.jpg,carrot,x,sounds/animalfarm_english.wav,,,,,,,,,0,1,1,1,0,147,147,146,909.95801091,9.62177136898e-06,910.832551671,0.874551344819,,,,x,1,0.850477031388,2018_Nov_14_1236,59.7098510092,chinese_cond2,001,1012,
images/swan.jpg,swan,z,sounds/animalfarm_english.wav,,,,,,,,,0,1,1,1,0,148,148,54,912.003698609,9.62177136898e-06,913.449744045,1.44605601988,,,,z,1,1.43377414944,2018_Nov_14_1236,59.7098510092,chinese_cond2,001,1012,
images/cocktailshrimp01.jpg,cocktail shrimp,z,sounds/animalfarm_english.wav,,,,,,,,,0,1,1,1,0,149,149,30,914.563002878,9.30104579311e-06,915.800531378,1.23753812226,,,,z,1,1.21723618466,2018_Nov_14_1236,59.7098510092,chinese_cond2,001,1012,
images/puzzle.jpg,puzzle,z,sounds/animalfarm_english.wav,,,,,,,,,0,1,1,1,0,150,150,57,916.987328448,9.30104533836e-06,917.684363884,0.697045378519,,,,x,0,0.683762202411,2018_Nov_14_1236,59.7098510092,chinese_cond2,001,1012,
images/bracelet02a.jpg,chess knight,x,sounds/animalfarm_english.wav,,,,,,,,,0,1,1,1,0,151,151,152,918.791736117,9.62177136898e-06,919.534858234,0.743132059774,,,,x,1,0.733778735821,2018_Nov_14_1236,59.7098510092,chinese_cond2,001,1012,
images/cake.jpg,cake,z,sounds/animalfarm_english.wav,,,,,,,,,0,1,1,1,0,152,152,23,920.64677483,9.30104579311e-06,921.352008336,0.705242807004,,,,z,1,0.683761881685,2018_Nov_14_1236,59.7098510092,chinese_cond2,001,1012,
images/plate01b.jpg,plate,z,sounds/animalfarm_english.wav,,,,,,,,,0,1,1,1,0,153,153,3,922.501584545,9.62177136898e-06,923.302529981,0.800955377752,,,,z,1,0.78379687286,2018_Nov_14_1236,59.7098510092,chinese_cond2,001,1012,
images/envelope02a.jpg,grand piano,x,sounds/animalfarm_english.wav,,,,,,,,,0,1,1,1,0,154,154,182,924.423978224,8.98031976249e-06,925.169725481,0.745757199731,,,,x,1,0.733796696461,2018_Nov_14_1236,59.7098510092,chinese_cond2,001,1012,
images/squirrel.jpg,binder,x,sounds/animalfarm_english.wav,,,,,,,,,0,1,1,1,0,155,155,132,926.27116044,9.62177136898e-06,927.603669936,1.33252007983,,,,x,1,1.31725481882,2018_Nov_14_1236,59.7098510092,chinese_cond2,001,1012,
images/bowl02b (1).jpg,bowl,z,sounds/animalfarm_english.wav,,,,,,,,,0,1,1,1,0,156,156,24,928.719696953,8.98031976249e-06,929.570864507,0.851177175619,,,,z,1,0.833802501596,2018_Nov_14_1236,59.7098510092,chinese_cond2,001,1012,
images/barrel01.jpg,barrel,z,sounds/animalfarm_english.wav,,,,,,,,,0,1,1,1,0,157,157,9,930.773801777,9.30104533836e-06,931.688088792,0.914296958013,,,,x,0,0.900482660124,2018_Nov_14_1236,59.7098510092,chinese_cond2,001,1012,
images/nailclipper03a.jpg,aquarium,x,sounds/animalfarm_english.wav,,,,,,,,,0,1,1,1,0,158,158,123,932.861730014,9.30104579311e-06,933.605268433,0.743549003201,,,,x,1,0.733783225981,2018_Nov_14_1236,59.7098510092,chinese_cond2,001,1012,
images/bicycle.jpg,hand bag,x,sounds/animalfarm_english.wav,,,,,,,,,0,1,1,1,0,159,159,186,934.714251992,9.62177136898e-06,936.072580549,1.35833849969,,,,z,0,1.33393351805,2018_Nov_14_1236,59.7098510092,chinese_cond2,001,1012,
images/bottleofredwine02.jpg,pipe,x,sounds/animalfarm_english.wav,,,,,,,,,0,1,1,1,0,160,160,213,937.169574419,9.62177136898e-06,937.939748788,0.770184311445,,,,x,1,0.750448454728,2018_Nov_14_1236,59.7098510092,chinese_cond2,001,1012,
images/lion.jpg,lion,z,sounds/animalfarm_english.wav,,,,,,,,,0,1,1,1,0,161,161,44,939.05033309,9.62177136898e-06,939.906933096,0.856610269188,,,,z,1,0.833806350305,2018_Nov_14_1236,59.7098510092,chinese_cond2,001,1012,
images/leek.jpg,donut,x,sounds/animalfarm_english.wav,,,,,,,,,0,1,1,1,0,162,162,169,941.00670862,9.62177136898e-06,942.274238445,1.26754008831,,,,x,1,1.25058235771,2018_Nov_14_1236,59.7098510092,chinese_cond2,001,1012,
images/lily.jpg,kiwi,x,sounds/animalfarm_english.wav,,,,,,,,,0,1,1,1,0,163,163,190,943.448132719,9.62177136898e-06,944.82491423,1.37679145356,,,,x,1,1.36728193618,2018_Nov_14_1236,59.7098510092,chinese_cond2,001,1012,
images/lychee02a.jpg,lychee,z,sounds/animalfarm_english.wav,,,,,,,,,0,1,1,1,0,164,164,62,945.947481165,9.30104579311e-06,947.158857049,1.21138550621,,,,z,1,1.20056357922,2018_Nov_14_1236,59.7098510092,chinese_cond2,001,1012,
images/beermug01b.jpg,beer mug,z,sounds/animalfarm_english.wav,,,,,,,,,0,1,1,1,0,165,165,111,948.27439528,9.30104579311e-06,950.409726777,2.13534143978,,,,x,0,2.11747990413,2018_Nov_14_1236,59.7098510092,chinese_cond2,001,1012,
images/candy.jpg,candy,z,sounds/animalfarm_english.wav,,,,,,,,,0,1,1,1,0,166,166,31,951.510379165,9.30104579311e-06,952.143533095,0.633164514009,,,,z,1,0.61708525114,2018_Nov_14_1236,59.7098510092,chinese_cond2,001,1012,
images/bed.jpg,bed,z,sounds/animalfarm_english.wav,,,,,,,,,0,1,1,1,0,167,167,103,953.339652378,1.02632225207e-05,954.160730087,0.821088613628,,,,z,1,0.800471081926,2018_Nov_14_1236,59.7098510092,chinese_cond2,001,1012,
images/atm.jpg,atm,z,sounds/animalfarm_english.wav,,,,,,,,,0,1,1,1,0,168,168,96,955.298761454,9.62177136898e-06,955.911185277,0.612433766131,,,,z,1,0.600412324976,2018_Nov_14_1236,59.7098510092,chinese_cond2,001,1012,
images/computermouse02a.jpg,world map,x,sounds/animalfarm_english.wav,,,,,,,,,0,1,1,1,0,169,169,239,957.08984746,9.62177136898e-06,959.145382079,2.05554584469,,,,x,1,2.03413066815,2018_Nov_14_1236,59.7098510092,chinese_cond2,001,1012,
images/bullet (2).jpg,rubber glove,x,sounds/animalfarm_english.wav,,,,,,,,,0,1,1,1,0,170,170,217,960.248923885,1.02632229755e-05,961.045879813,0.796965870615,,,,x,1,0.783789175443,2018_Nov_14_1236,59.7098510092,chinese_cond2,001,1012,
images/tulip02.jpg,sport shorts,x,sounds/animalfarm_english.wav,,,,,,,,,0,1,1,1,0,171,171,225,962.139192073,9.30104533836e-06,963.829953793,1.69077198358,,,,x,1,1.66735836512,2018_Nov_14_1236,59.7098510092,chinese_cond2,001,1012,
images/bat.jpg,hand,x,sounds/animalfarm_english.wav,,,,,,,,,0,1,1,1,0,172,172,185,964.926142962,9.62177136898e-06,965.813832836,0.887700778305,,,,x,1,0.86716278658,2018_Nov_14_1236,59.7098510092,chinese_cond2,001,1012,
images/handbag02a.jpg,candle,x,sounds/animalfarm_english.wav,,,,,,,,,0,1,1,1,0,173,173,144,966.928530765,9.30104579311e-06,967.69764257,0.76912174716,,,,z,0,0.750442360939,2018_Nov_14_1236,59.7098510092,chinese_cond2,001,1012,
images/pictureframe04.jpg,picture frame,z,sounds/animalfarm_english.wav,,,,,,,,,0,1,1,1,0,174,174,41,968.818187008,9.62177136898e-06,969.764866038,0.946688651345,,,,z,1,0.933840379303,2018_Nov_14_1236,59.7098510092,chinese_cond2,001,1012,
images/birthdaycandle.jpg,birthday candle,z,sounds/animalfarm_english.wav,,,,,,,,,0,1,1,1,0,175,175,55,970.859922724,9.30104579311e-06,971.748734176,0.88882171467,,,,z,1,0.867153164809,2018_Nov_14_1236,59.7098510092,chinese_cond2,001,1012,
images/ant.jpg,ant,z,sounds/animalfarm_english.wav,,,,,,,,,0,1,1,1,0,176,176,98,972.841859452,8.98031976249e-06,973.599047958,0.757198768798,,,,z,1,0.733604902485,2018_Nov_14_1236,59.7098510092,chinese_cond2,001,1012,
images/bus.jpg,microphone,x,sounds/animalfarm_english.wav,,,,,,,,,0,1,1,1,0,177,177,203,974.716578537,9.30104579311e-06,975.316340751,0.599772156454,,,,x,1,0.583731701395,2018_Nov_14_1236,59.7098510092,chinese_cond2,001,1012,
images/nametag01a.jpg,name tag,z,sounds/animalfarm_english.wav,,,,,,,,,0,1,1,1,0,178,178,108,976.436851192,9.94249694486e-06,977.350214517,0.913373588686,,,,z,1,0.900491640445,2018_Nov_14_1236,59.7098510092,chinese_cond2,001,1012,
images/triangleruler02.jpg,bottle of red wine,x,sounds/animalfarm_english.wav,,,,,,,,,0,1,1,1,0,179,179,134,978.540152774,9.30104579311e-06,979.734179002,1.1940358488,,,,x,1,1.18390251991,2018_Nov_14_1236,59.7098510092,chinese_cond2,001,1012,
images/cigar.jpg,crocodile,x,sounds/animalfarm_english.wav,,,,,,,,,0,1,1,1,0,180,180,162,980.830741495,8.98031976249e-06,982.118141882,1.28741064983,,,,z,0,1.2672443792,2018_Nov_14_1236,59.7098510092,chinese_cond2,001,1012,
images/axe01.jpg,axe,z,sounds/animalfarm_english.wav,,,,,,,,,0,1,1,1,0,181,181,104,983.220583278,8.98031976249e-06,983.918617775,0.698044118387,,,,z,1,0.683755467171,2018_Nov_14_1236,59.7098510092,chinese_cond2,001,1012,
images/table02.jpg,table,z,sounds/animalfarm_english.wav,,,,,,,,,0,1,1,1,0,182,182,49,985.099234781,9.30104579311e-06,985.852484454,0.753260257049,,,,z,1,0.733791244124,2018_Nov_14_1236,59.7098510092,chinese_cond2,001,1012,
images/worldmap.jpg,scooter,x,sounds/animalfarm_english.wav,,,,,,,,,0,1,1,1,0,183,183,220,987.050948242,9.62177136898e-06,988.153101305,1.10216300628,,,,x,1,1.0838858101,2018_Nov_14_1236,59.7098510092,chinese_cond2,001,1012,
images/diaper01a.jpg,camera,x,sounds/animalfarm_english.wav,,,,,,,,,0,1,1,1,0,184,184,143,989.271880149,8.98031976249e-06,990.186954546,0.915084339637,,,,z,0,0.900488112462,2018_Nov_14_1236,59.7098510092,chinese_cond2,001,1012,
images/donut.jpg,rhinoceros,x,sounds/animalfarm_english.wav,,,,,,,,,0,1,1,1,0,185,185,216,991.310923693,9.30104579311e-06,992.27084645,0.959933661094,,,,z,0,0.950505928775,2018_Nov_14_1236,59.7098510092,chinese_cond2,001,1012,
images/swallow.jpg,mattress,x,sounds/animalfarm_english.wav,,,,,,,,,0,1,1,1,0,186,186,202,993.371169132,9.30104579311e-06,993.954619877,0.583460367443,,,,x,1,0.567056850878,2018_Nov_14_1236,59.7098510092,chinese_cond2,001,1012,
images/ostrich.jpg,ostrich,z,sounds/animalfarm_english.wav,,,,,,,,,0,1,1,1,0,187,187,76,995.05387326,9.62177136898e-06,995.805106531,0.751243854495,,,,z,1,0.733767189696,2018_Nov_14_1236,59.7098510092,chinese_cond2,001,1012,
images/printer03a.jpg,printer,z,sounds/animalfarm_english.wav,,,,,,,,,0,1,1,1,0,188,188,72,996.913286351,8.98031976249e-06,997.522377514,0.609100463801,,,,z,1,0.600544784696,2018_Nov_14_1236,59.7098510092,chinese_cond2,001,1012,
images/microphone01.jpg,diaper,x,sounds/animalfarm_english.wav,,,,,,,,,0,1,1,1,0,189,189,164,998.619855038,9.62177136898e-06,999.73949054,1.11964576487,,,,x,1,1.10054013417,2018_Nov_14_1236,59.7098510092,chinese_cond2,001,1012,
images/banana04a.jpg,banana,z,sounds/animalfarm_english.wav,,,,,,,,,0,1,1,1,0,190,190,118,1000.845229,8.98032021723e-06,1001.573362,0.72814230215,,,,z,1,0.71715423924,2018_Nov_14_1236,59.7098510092,chinese_cond2,001,1012,
images/lightswitch02a.jpg,fork,x,sounds/animalfarm_english.wav,,,,,,,,,0,1,1,1,0,191,191,177,1002.72137691,9.94249739961e-06,1003.75727446,1.03590780932,,,,x,1,1.01722906455,2018_Nov_14_1236,59.7098510092,chinese_cond2,001,1012,
images/drink.jpg,drink,z,sounds/animalfarm_english.wav,,,,,,,,,0,1,1,1,0,192,192,117,1004.85572891,9.30104579311e-06,1005.77442495,0.918705974383,,,,z,1,0.900481697947,2018_Nov_14_1236,59.7098510092,chinese_cond2,001,1012,
images/puma.jpg,puma,z,sounds/animalfarm_english.wav,,,,,,,,,0,1,1,1,0,193,193,4,1006.87219658,9.62177136898e-06,1008.12504358,1.25285726519,,,,z,1,1.2339001305,2018_Nov_14_1236,59.7098510092,chinese_cond2,001,1012,
images/mirror02.jpg,8 ball,x,sounds/animalfarm_english.wav,,,,,,,,,0,1,1,1,0,194,194,121,1009.22509813,8.98032021723e-06,1010.22560488,1.00051604767,,,,x,1,0.983827726674,2018_Nov_14_1236,59.7098510092,chinese_cond2,001,1012,
images/marker01a.jpg,marker,z,sounds/animalfarm_english.wav,,,,,,,,,0,1,1,1,0,195,195,95,1011.32268984,9.30104579311e-06,1012.2761535,0.953473283067,,,,z,1,0.933804458023,2018_Nov_14_1236,59.7098510092,chinese_cond2,001,1012,
images/ruler02b.jpg,watermelon,x,sounds/animalfarm_english.wav,,,,,,,,,0,1,1,1,0,196,196,238,1013.46198807,1.05839485514e-05,1014.51007608,1.04809891438,,,,x,1,1.03385452331,2018_Nov_14_1236,59.7098510092,chinese_cond2,001,1012,
images/headphones02b.jpg,headphones,z,sounds/animalfarm_english.wav,,,,,,,,,0,1,1,1,0,197,197,101,1015.68396426,9.30104579311e-06,1017.32748725,1.64353325557,,,,z,1,1.63400609828,2018_Nov_14_1236,59.7098510092,chinese_cond2,001,1012,
images/parkbench03.jpg,park bench,z,sounds/animalfarm_english.wav,,,,,,,,,0,1,1,1,0,198,198,71,1018.51169286,1.02632229755e-05,1020.07822083,1.56653855813,,,,z,1,1.55065525867,2018_Nov_14_1236,59.7098510092,chinese_cond2,001,1012,
images/screwdriver02b.jpg,cola,x,sounds/animalfarm_english.wav,,,,,,,,,0,1,1,1,0,199,199,158,1021.17027777,9.62177136898e-06,1021.82869559,0.658428399107,,,,x,1,0.650431103466,2018_Nov_14_1236,59.7098510092,chinese_cond2,001,1012,
images/apricot.jpg,apricot,z,sounds/animalfarm_english.wav,,,,,,,,,0,1,1,1,0,200,200,32,1023.02849937,9.62177136898e-06,1023.69585196,0.667361893103,,,,z,1,0.650416029358,2018_Nov_14_1236,59.7098510092,chinese_cond2,001,1012,
images/butterfly.jpg,butterfly,z,sounds/animalfarm_english.wav,,,,,,,,,0,1,1,1,0,201,201,91,1024.80179889,9.62177136898e-06,1025.52969391,0.727905606574,,,,z,1,0.717125694652,2018_Nov_14_1236,59.7098510092,chinese_cond2,001,1012,
images/cupcake.jpg,scissors,x,sounds/animalfarm_english.wav,,,,,,,,,0,1,1,1,0,202,202,219,1026.73476529,9.30104533836e-06,1027.48020465,0.745448982321,,,,x,1,0.733784508884,2018_Nov_14_1236,59.7098510092,chinese_cond2,001,1012,
images/hat05.jpg,hat,z,sounds/animalfarm_english.wav,,,,,,,,,0,1,1,1,0,203,203,15,1028.58265535,9.62177136898e-06,1029.14730964,0.564664557789,,,,x,0,0.550400602451,2018_Nov_14_1236,59.7098510092,chinese_cond2,001,1012,
images/lamp04b.jpg,parking meter,x,sounds/animalfarm_english.wav,,,,,,,,,0,1,1,1,0,204,204,209,1030.26773381,9.62177136898e-06,1032.9149708,2.64724693859,,,,x,1,2.63426973481,2018_Nov_14_1236,59.7098510092,chinese_cond2,001,1012,
images/scooter.jpg,pen,x,sounds/animalfarm_english.wav,,,,,,,,,0,1,1,1,0,205,205,212,1034.00625511,9.30104579311e-06,1034.74878998,0.742544810995,,,,x,1,0.733778415095,2018_Nov_14_1236,59.7098510092,chinese_cond2,001,1012,
images/highlighter03b.jpg,coin,x,sounds/animalfarm_english.wav,,,,,,,,,0,1,1,1,0,206,206,156,1035.93982095,9.62177136898e-06,1036.99938421,1.05957319747,,,,x,1,1.05052841165,2018_Nov_14_1236,59.7098510092,chinese_cond2,001,1012,
images/pineapple01a.jpg,pineapple,z,sounds/animalfarm_english.wav,,,,,,,,,0,1,1,1,0,207,207,51,1038.11091272,9.94249694486e-06,1038.86655437,0.755652229413,,,,z,1,0.733786112512,2018_Nov_14_1236,59.7098510092,chinese_cond2,001,1012,
images/cloud.jpg,ceiling fan,x,sounds/animalfarm_english.wav,,,,,,,,,0,1,1,1,0,208,208,149,1040.05027183,9.30104533836e-06,1041.183831,1.13356975095,,,,x,1,1.11720087276,2018_Nov_14_1236,59.7098510092,chinese_cond2,001,1012,
images/ladybug03.jpg,giraffe,x,sounds/animalfarm_english.wav,,,,,,,,,0,1,1,1,0,209,209,178,1042.2851768,1.02632229755e-05,1043.23441457,0.949248683982,,,,x,1,0.93385930212,2018_Nov_14_1236,59.7098510092,chinese_cond2,001,1012,
images/paintbrush03a.jpg,paint brush,z,sounds/animalfarm_english.wav,,,,,,,,,0,1,1,1,0,210,210,0,1044.33343415,9.62177136898e-06,1045.18489228,0.851469036017,,,,z,1,0.833798652888,2018_Nov_14_1236,59.7098510092,chinese_cond2,001,1012,
images/binder03b.jpg,dj mixer,x,sounds/animalfarm_english.wav,,,,,,,,,0,1,1,1,0,211,211,167,1046.29630566,9.62177136898e-06,1047.18542533,0.889130252805,,,,x,1,0.867147712472,2018_Nov_14_1236,59.7098510092,chinese_cond2,001,1012,
images/lantern03.jpg,lantern,z,sounds/animalfarm_english.wav,,,,,,,,,0,1,1,1,0,212,212,5,1048.29069135,8.98031976249e-06,1049.40268717,1.11200575767,,,,z,1,1.10054398288,2018_Nov_14_1236,59.7098510092,chinese_cond2,001,1012,
images/pingpongpaddle01c (1).jpg,ping pong paddle,z,sounds/animalfarm_english.wav,,,,,,,,,0,1,1,1,0,213,213,10,1050.51228331,9.94249739961e-06,1051.20315729,0.690884879034,,,,z,1,0.667092483504,2018_Nov_14_1236,59.7098510092,chinese_cond2,001,1012,
images/mailbox01.jpg,mail box,z,sounds/animalfarm_english.wav,,,,,,,,,0,1,1,1,0,214,214,73,1052.32093675,9.94249739961e-06,1053.08701577,0.766089927,,,,z,1,0.750463849562,2018_Nov_14_1236,59.7098510092,chinese_cond2,001,1012,
images/8ball.jpg,nail clipper,x,sounds/animalfarm_english.wav,,,,,,,,,0,1,1,1,0,215,215,206,1054.20298378,9.62177136898e-06,1054.97083128,0.767858729304,,,,x,1,0.750446530373,2018_Nov_14_1236,59.7098510092,chinese_cond2,001,1012,
,,,sounds/animalfarm_english.wav,,,,,,,,,0,1,1,1,,,,,,,,,,,,,,,2018_Nov_14_1236,59.7098510092,chinese_cond2,001,1012,
