images,name,corrAns,sounds,trials_3.thisRepN,trials_3.thisTrialN,trials_3.thisN,trials_3.thisIndex,trials_4.thisRepN,trials_4.thisTrialN,trials_4.thisN,trials_4.thisIndex,trials_2.thisRepN,trials_2.thisTrialN,trials_2.thisN,trials_2.thisIndex,trials.thisRepN,trials.thisTrialN,trials.thisN,trials.thisIndex,begin_global,begin_routine,end_global,end_routine,key_resp_2.keys,key_resp_2.corr,key_resp_2.rt,begin_book,key_resp_1.keys,key_resp_1.corr,key_resp_1.rt,date,frameRate,expName,session,participant,
images\volleyball.jpg,volley ball,z,,0,0,0,0,,,,,,,,,,,,,,,,,,,,,,,,2018_Nov_14_1236,59.9858208501,spanish_cond1,001,1013,
images\puma.jpg,puma,z,,,,,,0,0,0,0,,,,,,,,,48.173754995,1.05840153992e-05,50.3945496981,2.22080657003,z,1,2.20085448015,,,,,2018_Nov_14_1236,59.9858208501,spanish_cond1,001,1013,
images\masquerademask02b.jpg,mirror,x,sounds\animalfarm_spanish.wav,,,,,,,,,0,0,0,1,0,0,0,204,92.5809496655,9.62184276432e-06,94.6230976494,2.04215856793,,,,82.3917038897,x,1,2.03411506198,2018_Nov_14_1236,59.9858208501,spanish_cond1,001,1013,
images\ear.jpg,bullet,x,sounds\animalfarm_spanish.wav,,,,,,,,,0,0,0,1,0,1,1,139,95.7354241724,9.621726349e-06,97.1070890552,1.3716745046,,,,,x,1,1.35060853092,2018_Nov_14_1236,59.9858208501,spanish_cond1,001,1013,
images\desktopcomputer.jpg,desktop computer,z,sounds\animalfarm_spanish.wav,,,,,,,,,0,0,0,1,0,2,2,16,98.2453065651,8.98027792573e-06,99.7077964501,1.46249982761,,,,,z,1,1.45063550409,2018_Nov_14_1236,59.9858208501,spanish_cond1,001,1013,
images\cheetah.jpg,cheetah,z,sounds\animalfarm_spanish.wav,,,,,,,,,0,0,0,1,0,3,3,82,100.81271643,9.94256697595e-06,102.575061764,1.76235591748,,,,,z,1,1.75054194801,2018_Nov_14_1236,59.9858208501,spanish_cond1,001,1013,
images\computermouse02a.jpg,world map,x,sounds\animalfarm_spanish.wav,,,,,,,,,0,0,0,1,0,4,4,239,103.678372979,8.98027792573e-06,104.959209973,1.2808466159,,,,,x,1,1.26724459487,2018_Nov_14_1236,59.9858208501,spanish_cond1,001,1013,
images\puzzle.jpg,puzzle,z,sounds\animalfarm_spanish.wav,,,,,,,,,0,0,0,1,0,5,5,57,106.081628804,9.30111855268e-06,107.143136175,1.06151731336,,,,,z,1,1.05053113948,2018_Nov_14_1236,59.9858208501,spanish_cond1,001,1013,
images\mattress.jpg,cat,x,sounds\animalfarm_spanish.wav,,,,,,,,,0,0,0,1,0,6,6,147,108.249087933,9.621726349e-06,109.860521072,1.61144308106,,,,,x,1,1.60067147342,2018_Nov_14_1236,59.9858208501,spanish_cond1,001,1013,
images\computerkeyboard01a.jpg,computer keyboard,z,sounds\animalfarm_spanish.wav,,,,,,,,,0,0,0,1,0,7,7,61,110.979049488,8.98027792573e-06,112.011105163,1.03206561808,,,,,z,1,1.01718806685,2018_Nov_14_1236,59.9858208501,spanish_cond1,001,1013,
images\bicycle.jpg,hand bag,x,sounds\animalfarm_spanish.wav,,,,,,,,,0,0,0,1,0,8,8,186,113.123490059,9.30111855268e-06,114.878365987,1.75488619169,,,,,x,1,1.73387089267,2018_Nov_14_1236,59.9858208501,spanish_cond1,001,1013,
images\raisin.jpg,ruler,x,sounds\animalfarm_spanish.wav,,,,,,,,,0,0,0,1,0,9,9,218,115.985652931,9.62184276432e-06,117.329198738,1.34355574986,,,,,x,1,1.33394228655,2018_Nov_14_1236,59.9858208501,spanish_cond1,001,1013,
images\triangleruler02.jpg,bottle of red wine,x,sounds\animalfarm_spanish.wav,,,,,,,,,0,0,0,1,0,10,10,134,118.442061195,9.94256697595e-06,120.196636603,1.75458567077,,,,,x,1,1.73404151935,2018_Nov_14_1236,59.9858208501,spanish_cond1,001,1013,
images\thumbtack02a.jpg,thumb tack,z,sounds\animalfarm_spanish.wav,,,,,,,,,0,0,0,1,0,11,11,60,121.308718091,8.98027792573e-06,122.563939602,1.25523145404,,,,,z,1,1.23391531338,2018_Nov_14_1236,59.9858208501,spanish_cond1,001,1013,
images\camera01a.jpg,bull,x,sounds\animalfarm_spanish.wav,,,,,,,,,0,0,0,1,0,12,12,138,123.676242712,9.62184276432e-06,126.664892193,2.98865974392,,,,,None,0,,2018_Nov_14_1236,59.9858208501,spanish_cond1,001,1013,
images\djmixer01.jpg,light bulb,x,sounds\animalfarm_spanish.wav,,,,,,,,,0,0,0,1,0,13,13,196,127.787922008,9.30111855268e-06,128.798949877,1.01103813155,,,,,x,1,1.00052567117,2018_Nov_14_1236,59.9858208501,spanish_cond1,001,1013,
images\tulip02.jpg,sport shorts,x,sounds\animalfarm_spanish.wav,,,,,,,,,0,0,0,1,0,14,14,225,129.894798101,9.621726349e-06,130.749658987,0.854870828916,,,,,x,1,0.833995366818,2018_Nov_14_1236,59.9858208501,spanish_cond1,001,1013,
images\acousticguitar02.jpg,acoustic guitar,z,sounds\animalfarm_spanish.wav,,,,,,,,,0,0,0,1,0,15,15,97,131.863430384,9.30100213736e-06,132.866711098,1.00329033565,,,,,z,1,0.983852050034,2018_Nov_14_1236,59.9858208501,spanish_cond1,001,1013,
images\belt02a.jpg,snowman,x,sounds\animalfarm_spanish.wav,,,,,,,,,0,0,0,1,0,16,16,224,133.972311981,9.30111855268e-06,135.183989065,1.21168702585,,,,,x,1,1.20055427996,2018_Nov_14_1236,59.9858208501,spanish_cond1,001,1013,
images\tank.jpg,wallet,x,sounds\animalfarm_spanish.wav,,,,,,,,,0,0,0,1,0,17,17,237,136.290141277,1.12254638225e-05,136.984485806,0.694354471634,,,,,x,1,0.683748358977,2018_Nov_14_1236,59.9858208501,spanish_cond1,001,1013,
images\knife04.jpg,tooth brush,x,sounds\animalfarm_spanish.wav,,,,,,,,,0,0,0,1,0,18,18,233,138.08329947,9.62184276432e-06,138.851653298,0.768363770796,,,,,x,1,0.750448616454,2018_Nov_14_1236,59.9858208501,spanish_cond1,001,1013,
images\croissant02b.jpg,croissant,z,sounds\animalfarm_spanish.wav,,,,,,,,,0,0,0,1,0,19,19,39,139.964206575,9.62184276432e-06,141.052245103,1.08804879151,,,,,z,1,1.06719706312,2018_Nov_14_1236,59.9858208501,spanish_cond1,001,1013,
images\squirrel.jpg,binder,x,sounds\animalfarm_spanish.wav,,,,,,,,,0,0,0,1,0,20,20,132,142.15671318,9.621726349e-06,142.902736729,0.746033812873,,,,,x,1,0.733781089191,2018_Nov_14_1236,59.9858208501,spanish_cond1,001,1013,
images\dryingmachine01.jpg,drying machine,z,sounds\animalfarm_spanish.wav,,,,,,,,,0,0,0,1,0,21,21,18,144.027082808,9.30100213736e-06,145.486762164,1.45968897839,,,,,z,1,1.45063806977,2018_Nov_14_1236,59.9858208501,spanish_cond1,001,1013,
images\bracelet02a.jpg,chess knight,x,sounds\animalfarm_spanish.wav,,,,,,,,,0,0,0,1,0,22,22,152,146.596624544,9.30111855268e-06,147.604006069,1.00739146851,,,,,x,1,0.983844031813,2018_Nov_14_1236,59.9858208501,spanish_cond1,001,1013,
images\hairband.jpg,hairband,z,sounds\animalfarm_spanish.wav,,,,,,,,,0,0,0,1,0,23,23,66,148.714640759,9.621726349e-06,149.754575407,1.03994523268,,,,,z,1,1.01717138907,2018_Nov_14_1236,59.9858208501,spanish_cond1,001,1013,
images\coin01b.jpg,arrow,x,sounds\animalfarm_spanish.wav,,,,,,,,,0,0,0,1,0,24,24,124,150.85873719,8.98027792573e-06,151.755121605,0.896394037176,,,,,x,1,0.883828604943,2018_Nov_14_1236,59.9858208501,spanish_cond1,001,1013,
images\flower01.jpg,bus,x,sounds\animalfarm_spanish.wav,,,,,,,,,0,0,0,1,0,25,25,140,152.871369013,9.30111855268e-06,154.322486569,1.4511278196,,,,,x,1,1.43398176797,2018_Nov_14_1236,59.9858208501,spanish_cond1,001,1013,
images\carrot02.jpg,corkscrew,x,sounds\animalfarm_spanish.wav,,,,,,,,,0,0,0,1,0,26,26,161,155.426632315,9.30111855268e-06,156.373022519,0.946400147048,,,,,x,1,0.933812905336,2018_Nov_14_1236,59.9858208501,spanish_cond1,001,1013,
images\pen03c.jpg,pepper,x,sounds\animalfarm_spanish.wav,,,,,,,,,0,0,0,1,0,27,27,211,157.468810768,9.30111855268e-06,158.473587351,1.00478620525,,,,,x,1,0.983835372259,2018_Nov_14_1236,59.9858208501,spanish_cond1,001,1013,
images\bandaid01.jpg,door handle,x,sounds\animalfarm_spanish.wav,,,,,,,,,0,0,0,1,0,28,28,170,159.58227555,1.02632911876e-05,160.524145111,0.941879824386,,,,,x,1,0.933819961385,2018_Nov_14_1236,59.9858208501,spanish_cond1,001,1013,
images\handfan01b.jpg,handfan,z,sounds\animalfarm_spanish.wav,,,,,,,,,0,0,0,1,0,29,29,69,161.640003797,9.30111855268e-06,162.958126879,1.31813302403,,,,,z,1,1.30059440294,2018_Nov_14_1236,59.9858208501,spanish_cond1,001,1013,
images\lip.jpg,boxing glove,x,sounds\animalfarm_spanish.wav,,,,,,,,,0,0,0,1,0,30,30,136,164.062653969,8.98039434105e-06,164.92533289,0.862689505448,,,,,x,1,0.850487135816,2018_Nov_14_1236,59.9858208501,spanish_cond1,001,1013,
images\50dollarbill.jpg,cherry,x,sounds\animalfarm_spanish.wav,,,,,,,,,0,0,0,1,0,31,31,151,166.047582057,9.62184276432e-06,167.02590991,0.978338436689,,,,,x,1,0.967187730013,2018_Nov_14_1236,59.9858208501,spanish_cond1,001,1013,
images\mushroom01.jpg,shower head,x,sounds\animalfarm_spanish.wav,,,,,,,,,0,0,0,1,0,32,32,222,168.144420044,9.621726349e-06,168.926401231,0.78199145,,,,,x,1,0.767108125612,2018_Nov_14_1236,59.9858208501,spanish_cond1,001,1013,
images\lipstick04.jpg,lipstick,z,sounds\animalfarm_spanish.wav,,,,,,,,,0,0,0,1,0,33,33,56,170.027349652,9.94245056063e-06,171.010292121,0.982953052968,,,,,z,1,0.96717682539,2018_Nov_14_1236,59.9858208501,spanish_cond1,001,1013,
images\peach01.jpg,peach,z,sounds\animalfarm_spanish.wav,,,,,,,,,0,0,0,1,0,34,34,106,172.141135482,8.98039434105e-06,173.210910546,1.06978500728,,,,,z,1,1.05055455258,2018_Nov_14_1236,59.9858208501,spanish_cond1,001,1013,
images\electricguitar02.jpg,electric guitar,z,sounds\animalfarm_spanish.wav,,,,,,,,,0,0,0,1,0,35,35,100,174.314303867,9.62184276432e-06,175.311449399,0.997155795223,,,,,z,1,0.983849484241,2018_Nov_14_1236,59.9858208501,spanish_cond1,001,1013,
images\button07.jpg,radish,x,sounds\animalfarm_spanish.wav,,,,,,,,,0,0,0,1,0,36,36,215,176.424929256,9.94256697595e-06,177.495369187,1.07045019453,,,,,x,1,1.05052664934,2018_Nov_14_1236,59.9858208501,spanish_cond1,001,1013,
images\dresser02.jpg,dresser,z,sounds\animalfarm_spanish.wav,,,,,,,,,0,0,0,1,0,37,37,87,178.618742822,9.30100213736e-06,179.412559467,0.793827228947,,,,,z,1,0.783725298825,2018_Nov_14_1236,59.9858208501,spanish_cond1,001,1013,
images\toothbrush03a.jpg,parrot,x,sounds\animalfarm_spanish.wav,,,,,,,,,0,0,0,1,0,38,38,210,180.50720689,8.98027792573e-06,181.263044358,0.755847088993,,,,,x,1,0.733765373589,2018_Nov_14_1236,59.9858208501,spanish_cond1,001,1013,
images\rubberglove02a.jpg,lady bug,x,sounds\animalfarm_spanish.wav,,,,,,,,,0,0,0,1,0,39,39,192,182.369482337,9.62184276432e-06,184.180494426,1.81102171028,,,,,x,1,1.80072926846,2018_Nov_14_1236,59.9858208501,spanish_cond1,001,1013,
images\umbrella01.jpg,umbrella,z,sounds\animalfarm_spanish.wav,,,,,,,,,0,0,0,1,0,40,40,53,185.295246605,1.02632911876e-05,186.9145956,1.61935925856,,,,,z,1,1.600707395,2018_Nov_14_1236,59.9858208501,spanish_cond1,001,1013,
images\orange.jpg,bat,x,sounds\animalfarm_spanish.wav,,,,,,,,,0,0,0,1,0,41,41,128,188.040765331,9.94245056063e-06,188.781741925,0.740986856865,,,,,x,1,0.717113561928,2018_Nov_14_1236,59.9858208501,spanish_cond1,001,1013,
images\candle08a.jpg,screw driver,x,sounds\animalfarm_spanish.wav,,,,,,,,,0,0,0,1,0,42,42,221,189.897081675,9.94256697595e-06,190.865628325,0.968556271051,,,,,x,1,0.950492620235,2018_Nov_14_1236,59.9858208501,spanish_cond1,001,1013,
images\cactus.jpg,cactus,z,sounds\animalfarm_spanish.wav,,,,,,,,,0,0,0,1,0,43,43,70,191.979775292,9.30100213736e-06,192.782806737,0.80304170819,,,,,z,1,0.783774690703,2018_Nov_14_1236,59.9858208501,spanish_cond1,001,1013,
images\parkingmeter.jpg,ear,x,sounds\animalfarm_spanish.wav,,,,,,,,,0,0,0,1,0,44,44,171,193.885955985,9.621726349e-06,195.016758934,1.13081289153,,,,,x,1,1.1172176057,2018_Nov_14_1236,59.9858208501,spanish_cond1,001,1013,
images\barrel01.jpg,barrel,z,sounds\animalfarm_spanish.wav,,,,,,,,,0,0,0,1,0,45,45,9,196.148405715,9.621726349e-06,197.117314465,0.968919654377,,,,,z,1,0.950495506753,2018_Nov_14_1236,59.9858208501,spanish_cond1,001,1013,
images\elbow.jpg,elbow,z,sounds\animalfarm_spanish.wav,,,,,,,,,0,0,0,1,0,46,46,105,198.23043607,9.30111855268e-06,199.084501875,0.854075426585,,,,,z,1,0.83379138459,2018_Nov_14_1236,59.9858208501,spanish_cond1,001,1013,
images\key03b.jpg,cigar,x,sounds\animalfarm_spanish.wav,,,,,,,,,0,0,0,1,0,47,47,153,200.187890705,9.62184276432e-06,201.168407197,0.980527075939,,,,,x,1,0.967165279202,2018_Nov_14_1236,59.9858208501,spanish_cond1,001,1013,
images\flashlight05.jpg,flash light,z,sounds\animalfarm_spanish.wav,,,,,,,,,0,0,0,1,0,48,48,8,202.272629276,9.30100213736e-06,203.01872948,0.746109825093,,,,,z,1,0.733601482236,2018_Nov_14_1236,59.9858208501,spanish_cond1,001,1013,
images\microphone01.jpg,diaper,x,sounds\animalfarm_spanish.wav,,,,,,,,,0,0,0,1,0,49,49,164,204.119268653,8.98039434105e-06,204.802710398,0.683451366145,,,,,x,1,0.667080511106,2018_Nov_14_1236,59.9858208501,spanish_cond1,001,1013,
images\notebook02b.jpg,notebook,z,sounds\animalfarm_spanish.wav,,,,,,,,,0,0,0,1,0,50,50,7,205.911165107,8.98027792573e-06,206.703223207,0.792067722068,,,,,z,1,0.78378463327,2018_Nov_14_1236,59.9858208501,spanish_cond1,001,1013,
images\highlighter03b.jpg,coin,x,sounds\animalfarm_spanish.wav,,,,,,,,,0,0,0,1,0,51,51,156,207.80701423,9.30100213736e-06,208.603727037,0.796723070671,,,,,x,1,0.78377148346,2018_Nov_14_1236,59.9858208501,spanish_cond1,001,1013,
images\radio03a.jpg,radio,z,sounds\animalfarm_spanish.wav,,,,,,,,,0,0,0,1,0,52,52,37,209.718975381,9.30111855268e-06,210.654272289,0.935306529747,,,,,z,1,0.917131266091,2018_Nov_14_1236,59.9858208501,spanish_cond1,001,1013,
images\parkbench03.jpg,park bench,z,sounds\animalfarm_spanish.wav,,,,,,,,,0,0,0,1,0,53,53,71,211.761906259,9.621726349e-06,212.804852532,1.04295653605,,,,,z,1,1.03384565155,2018_Nov_14_1236,59.9858208501,spanish_cond1,001,1013,
images\razor04a.jpg,razor,z,sounds\animalfarm_spanish.wav,,,,,,,,,0,0,0,1,0,54,54,36,213.906304814,8.98039434105e-06,214.62201231,0.715717438492,,,,,z,1,0.700427432545,2018_Nov_14_1236,59.9858208501,spanish_cond1,001,1013,
images\table02.jpg,table,z,sounds\animalfarm_spanish.wav,,,,,,,,,0,0,0,1,0,55,55,49,215.738767107,8.98039434105e-06,216.439186201,0.700428715441,,,,,z,1,0.683766961214,2018_Nov_14_1236,59.9858208501,spanish_cond1,001,1013,
images\bowl02b (1).jpg,bowl,z,sounds\animalfarm_spanish.wav,,,,,,,,,0,0,0,1,0,56,56,24,217.558553959,9.30111855268e-06,218.90675736,1.34821334365,,,,,z,1,1.33418251085,2018_Nov_14_1236,59.9858208501,spanish_cond1,001,1013,
images\radish01.jpg,raisin,x,sounds\animalfarm_spanish.wav,,,,,,,,,0,0,0,1,0,57,57,214,220.018967459,9.621726349e-06,221.357165789,1.33820923499,,,,,x,1,1.31726321299,2018_Nov_14_1236,59.9858208501,spanish_cond1,001,1013,
images\lightswitch02a.jpg,fork,x,sounds\animalfarm_spanish.wav,,,,,,,,,0,0,0,1,0,58,58,177,222.47057284,9.30100213736e-06,223.457746016,0.987183438614,,,,,x,1,0.967190616531,2018_Nov_14_1236,59.9858208501,spanish_cond1,001,1013,
images\tape01a.jpg,tie,x,sounds\animalfarm_spanish.wav,,,,,,,,,0,0,0,1,0,59,59,232,224.585206672,9.30100213736e-06,225.541627926,0.956431517261,,,,,x,1,0.933828620939,2018_Nov_14_1236,59.9858208501,spanish_cond1,001,1013,
images\ant.jpg,ant,z,sounds\animalfarm_spanish.wav,,,,,,,,,0,0,0,1,0,60,60,98,226.638300738,9.621726349e-06,227.408781306,0.770490830531,,,,,z,1,0.750437391107,2018_Nov_14_1236,59.9858208501,spanish_cond1,001,1013,
images\cauliflower01.jpg,glue stick,x,sounds\animalfarm_spanish.wav,,,,,,,,,0,0,0,1,0,61,61,181,228.526074924,9.30100213736e-06,229.476015573,0.949951233459,,,,,x,1,0.933830866008,2018_Nov_14_1236,59.9858208501,spanish_cond1,001,1013,
images\mirror02.jpg,8 ball,x,sounds\animalfarm_spanish.wav,,,,,,,,,0,0,0,1,0,62,62,121,230.581060316,9.62184276432e-06,231.459875,0.878824947053,,,,,x,1,0.86713541951,2018_Nov_14_1236,59.9858208501,spanish_cond1,001,1013,
images\hand01a.jpg,cupcake,x,sounds\animalfarm_spanish.wav,,,,,,,,,0,0,0,1,0,63,63,163,232.572601148,9.621726349e-06,233.477083593,0.904492708039,,,,,x,1,0.883813209948,2018_Nov_14_1236,59.9858208501,spanish_cond1,001,1013,
images\flamingo.jpg,flamingo,z,sounds\animalfarm_spanish.wav,,,,,,,,,0,0,0,1,0,64,64,52,234.576835383,9.30100213736e-06,235.160860818,0.584035698092,,,,,x,0,0.567033973639,2018_Nov_14_1236,59.9858208501,spanish_cond1,001,1013,
images\baseball01a.jpg,baseball,z,sounds\animalfarm_spanish.wav,,,,,,,,,0,0,0,1,0,65,65,74,236.295348917,9.94245056063e-06,237.02802831,0.73268933536,,,,,z,1,0.717085979413,2018_Nov_14_1236,59.9858208501,spanish_cond1,001,1013,
images\cocktailshrimp01.jpg,cocktail shrimp,z,sounds\animalfarm_spanish.wav,,,,,,,,,0,0,0,1,0,66,66,30,238.14428566,1.02631747723e-05,239.111959612,0.967684214935,,,,,x,0,0.95052020275,2018_Nov_14_1236,59.9858208501,spanish_cond1,001,1013,
images\paperclip04.jpg,eye drops,x,sounds\animalfarm_spanish.wav,,,,,,,,,0,0,0,1,0,67,67,174,240.219468498,9.94256697595e-06,242.729573154,2.5101145989,,,,,x,1,2.50091487309,2018_Nov_14_1236,59.9858208501,spanish_cond1,001,1013,
images\snowman.jpg,globe,x,sounds\animalfarm_spanish.wav,,,,,,,,,0,0,0,1,0,68,68,180,243.842262099,9.30100213736e-06,244.996847898,1.15459606226,,,,,x,1,1.13387743558,2018_Nov_14_1236,59.9858208501,spanish_cond1,001,1013,
images\grandpiano.jpg,tulip,x,sounds\animalfarm_spanish.wav,,,,,,,,,0,0,0,1,0,69,69,236,246.112943922,9.94256697595e-06,246.980713097,0.86777943885,,,,,x,1,0.850458270404,2018_Nov_14_1236,59.9858208501,spanish_cond1,001,1013,
images\arrow02.jpg,hammer,x,sounds\animalfarm_spanish.wav,,,,,,,,,0,0,0,1,0,70,70,184,248.079459729,9.30111855268e-06,249.097953475,1.0185033672,,,,,x,1,1.00051348354,2018_Nov_14_1236,59.9858208501,spanish_cond1,001,1013,
images\cola.jpg,comb,x,sounds\animalfarm_spanish.wav,,,,,,,,,0,0,0,1,0,71,71,157,250.220719332,9.30111855268e-06,251.015131567,0.794422497856,,,,,x,1,0.783783671097,2018_Nov_14_1236,59.9858208501,spanish_cond1,001,1013,
images\leaf01a.jpg,leaf,z,sounds\animalfarm_spanish.wav,,,,,,,,,0,0,0,1,0,72,72,68,252.120337956,9.30111855268e-06,253.132377076,1.01204906229,,,,,z,1,1.00051348354,2018_Nov_14_1236,59.9858208501,spanish_cond1,001,1013,
images\lychee02a.jpg,lychee,z,sounds\animalfarm_spanish.wav,,,,,,,,,0,0,0,1,0,73,73,62,254.258589142,9.62184276432e-06,255.799743996,1.54116543767,,,,,x,0,1.51730400953,2018_Nov_14_1236,59.9858208501,spanish_cond1,001,1013,
images\cat.jpg,black olive,x,sounds\animalfarm_spanish.wav,,,,,,,,,0,0,0,1,0,74,74,133,256.931635492,9.30111855268e-06,258.033706135,1.10208122793,,,,,x,1,1.08388447552,2018_Nov_14_1236,59.9858208501,spanish_cond1,001,1013,
images\diaper01a.jpg,camera,x,sounds\animalfarm_spanish.wav,,,,,,,,,0,0,0,1,0,75,75,143,259.156202262,9.30111855268e-06,260.250944941,1.09475262184,,,,,x,1,1.08386042097,2018_Nov_14_1236,59.9858208501,spanish_cond1,001,1013,
images\hammer02a.jpg,flower,x,sounds\animalfarm_spanish.wav,,,,,,,,,0,0,0,1,0,76,76,176,261.348753447,9.621726349e-06,262.118114678,0.769371494185,,,,,x,1,0.750444767764,2018_Nov_14_1236,59.9858208501,spanish_cond1,001,1013,
images\chessknight02b (1).jpg,cockroach,x,sounds\animalfarm_spanish.wav,,,,,,,,,0,0,0,1,0,77,77,155,263.228655074,9.621726349e-06,264.168678211,0.940033079707,,,,,x,1,0.917167187436,2018_Nov_14_1236,59.9858208501,spanish_cond1,001,1013,
images\backpack01b.jpg,swallow,x,sounds\animalfarm_spanish.wav,,,,,,,,,0,0,0,1,0,78,78,228,265.301748378,9.30111855268e-06,266.402671141,1.10093430907,,,,,x,1,1.08393996127,2018_Nov_14_1236,59.9858208501,spanish_cond1,001,1013,
images\parkfountain.jpg,park fountain,z,sounds\animalfarm_spanish.wav,,,,,,,,,0,0,0,1,0,79,79,93,267.525169512,9.30111855268e-06,268.586513954,1.06135502562,,,,,z,1,1.05051606533,2018_Nov_14_1236,59.9858208501,spanish_cond1,001,1013,
images\broom02.jpg,broom,z,sounds\animalfarm_spanish.wav,,,,,,,,,0,0,0,1,0,80,80,116,269.682106238,9.30111855268e-06,270.903808919,1.22171262314,,,,,z,1,1.20055812865,2018_Nov_14_1236,59.9858208501,spanish_cond1,001,1013,
images\diploma01.jpg,glasses,x,sounds\animalfarm_spanish.wav,,,,,,,,,0,0,0,1,0,81,81,179,272.036880689,9.30111855268e-06,272.837659349,0.800788282184,,,,,x,1,0.783776935772,2018_Nov_14_1236,59.9858208501,spanish_cond1,001,1013,
images\parrot01.jpg,chameleon,x,sounds\animalfarm_spanish.wav,,,,,,,,,0,0,0,1,0,82,82,150,273.954598564,9.62184276432e-06,274.888211977,0.933623676538,,,,,x,1,0.917152434005,2018_Nov_14_1236,59.9858208501,spanish_cond1,001,1013,
images\medal01.jpg,medal,z,sounds\animalfarm_spanish.wav,,,,,,,,,0,0,0,1,0,83,83,115,275.989825586,9.30100213736e-06,277.005462939,1.01564761624,,,,,z,1,1.00047820364,2018_Nov_14_1236,59.9858208501,spanish_cond1,001,1013,
images\pictureframe04.jpg,picture frame,z,sounds\animalfarm_spanish.wav,,,,,,,,,0,0,0,1,0,84,84,41,278.129343963,9.30111855268e-06,279.622808033,1.49347401271,,,,,z,1,1.48396510619,2018_Nov_14_1236,59.9858208501,spanish_cond1,001,1013,
images\magnifyingglass01b.jpg,magnifying glass,z,sounds\animalfarm_spanish.wav,,,,,,,,,0,0,0,1,0,85,85,64,280.73129674,9.30111855268e-06,282.006793313,1.27550683648,,,,,z,1,1.26723465242,2018_Nov_14_1236,59.9858208501,spanish_cond1,001,1013,
images\sportshorts02.jpg,tape,x,sounds\animalfarm_spanish.wav,,,,,,,,,0,0,0,1,0,86,86,230,283.116335607,9.62184276432e-06,284.12406448,1.00773913634,,,,,x,1,0.983860709588,2018_Nov_14_1236,59.9858208501,spanish_cond1,001,1013,
images\birthdaycandle.jpg,birthday candle,z,sounds\animalfarm_spanish.wav,,,,,,,,,0,0,0,1,0,87,87,55,285.222734138,9.62184276432e-06,286.1746046,0.951880084118,,,,,z,1,0.933833431802,2018_Nov_14_1236,59.9858208501,spanish_cond1,001,1013,
images\bull.jpg,button,x,sounds\animalfarm_spanish.wav,,,,,,,,,0,0,0,1,0,88,88,141,287.282499962,9.62184276432e-06,288.275144415,0.992655036971,,,,,x,1,0.983828316326,2018_Nov_14_1236,59.9858208501,spanish_cond1,001,1013,
images\bus.jpg,microphone,x,sounds\animalfarm_spanish.wav,,,,,,,,,0,0,0,1,0,89,89,203,289.395218734,9.621726349e-06,290.675785035,1.2805762433,,,,,x,1,1.26723561448,2018_Nov_14_1236,59.9858208501,spanish_cond1,001,1013,
images\butterfly.jpg,butterfly,z,sounds\animalfarm_spanish.wav,,,,,,,,,0,0,0,1,0,90,90,91,291.785233035,9.62184276432e-06,293.109794065,1.32457129261,,,,,z,1,1.30060723203,2018_Nov_14_1236,59.9858208501,spanish_cond1,001,1013,
images\bowlingball.jpg,bowling ball,z,sounds\animalfarm_spanish.wav,,,,,,,,,0,0,0,1,0,91,91,20,294.243353981,9.30111855268e-06,295.343726377,1.10038233839,,,,,z,1,1.08387292933,2018_Nov_14_1236,59.9858208501,spanish_cond1,001,1013,
images\redfox.jpg,red fox,z,sounds\animalfarm_spanish.wav,,,,,,,,,0,0,0,1,0,92,92,1,296.458370792,9.62184276432e-06,297.210869493,0.752508965088,,,,,z,1,0.733763769967,2018_Nov_14_1236,59.9858208501,spanish_cond1,001,1013,
images\axe01.jpg,axe,z,sounds\animalfarm_spanish.wav,,,,,,,,,0,0,0,1,0,93,93,104,298.3152978,9.30111855268e-06,299.078048211,0.762760353973,,,,,z,1,0.750440919073,2018_Nov_14_1236,59.9858208501,spanish_cond1,001,1013,
images\grasshopper.jpg,cauliflower,x,sounds\animalfarm_spanish.wav,,,,,,,,,0,0,0,1,0,94,94,148,300.173639533,9.30111855268e-06,301.095260974,0.921631383011,,,,,x,1,0.900482661673,2018_Nov_14_1236,59.9858208501,spanish_cond1,001,1013,
images\plant01.jpg,plant,z,sounds\animalfarm_spanish.wav,,,,,,,,,0,0,0,1,0,95,95,47,302.208516321,9.62184276432e-06,303.162479846,0.953973788302,,,,,z,1,0.933826696593,2018_Nov_14_1236,59.9858208501,spanish_cond1,001,1013,
images\ashtray02b.jpg,ashtray,z,sounds\animalfarm_spanish.wav,,,,,,,,,0,0,0,1,0,96,96,43,304.277474816,9.62184276432e-06,305.329744615,1.05228038318,,,,,x,0,1.03386521596,2018_Nov_14_1236,59.9858208501,spanish_cond1,001,1013,
images\lion.jpg,lion,z,sounds\animalfarm_spanish.wav,,,,,,,,,0,0,0,1,0,97,97,44,306.444280624,9.30100213736e-06,307.380277037,0.936006676173,,,,,z,1,0.917112984695,2018_Nov_14_1236,59.9858208501,spanish_cond1,001,1013,
images\candy.jpg,candy,z,sounds\animalfarm_spanish.wav,,,,,,,,,0,0,0,1,0,98,98,31,308.484372429,9.94245056063e-06,309.264123603,0.779761436977,,,,,z,1,0.767117426731,2018_Nov_14_1236,59.9858208501,spanish_cond1,001,1013,
images\watermelon01.jpg,orange,x,sounds\animalfarm_spanish.wav,,,,,,,,,0,0,0,1,0,99,99,207,310.395270371,9.30111855268e-06,311.131282756,0.736022327794,,,,,x,1,0.717091431725,2018_Nov_14_1236,59.9858208501,spanish_cond1,001,1013,
images\mailbox01.jpg,mail box,z,sounds\animalfarm_spanish.wav,,,,,,,,,0,0,0,1,0,100,100,73,312.252675583,9.621726349e-06,313.348544654,1.09587901412,,,,,z,1,1.08385753445,2018_Nov_14_1236,59.9858208501,spanish_cond1,001,1013,
images\aloe02.jpg,broad sword,x,sounds\animalfarm_spanish.wav,,,,,,,,,0,0,0,1,0,101,101,137,314.47281023,1.09047396109e-05,315.465799144,0.992999497452,,,,,x,1,0.983830561396,2018_Nov_14_1236,59.9858208501,spanish_cond1,001,1013,
images\wallet01.jpg,lamp,x,sounds\animalfarm_spanish.wav,,,,,,,,,0,0,0,1,0,102,102,193,316.573532218,9.62184276432e-06,318.349906139,1.77638418449,,,,,x,1,1.76736695215,2018_Nov_14_1236,59.9858208501,spanish_cond1,001,1013,
images\lock02a.jpg,lock,z,sounds\animalfarm_spanish.wav,,,,,,,,,0,0,0,1,0,103,103,65,319.462692584,9.94256697595e-06,320.167035449,0.704352807137,,,,,z,1,0.683710834128,2018_Nov_14_1236,59.9858208501,spanish_cond1,001,1013,
images\lightbulb03b.jpg,treadmill,x,sounds\animalfarm_spanish.wav,,,,,,,,,0,0,0,1,0,104,104,234,321.271824252,9.62184276432e-06,321.984204529,0.712389577762,,,,,x,1,0.700425828807,2018_Nov_14_1236,59.9858208501,spanish_cond1,001,1013,
images\banjo.jpg,knife,x,sounds\animalfarm_spanish.wav,,,,,,,,,0,0,0,1,0,105,105,191,323.082576552,9.30111855268e-06,324.034760364,0.952195679303,,,,,x,1,0.933831828181,2018_Nov_14_1236,59.9858208501,spanish_cond1,001,1013,
images\nailpolish02b.jpg,nail polish,z,sounds\animalfarm_spanish.wav,,,,,,,,,0,0,0,1,0,106,106,94,325.145458878,9.62184276432e-06,326.001967338,0.85651840223,,,,,z,1,0.833810307435,2018_Nov_14_1236,59.9858208501,spanish_cond1,001,1013,
images\fork01.jpg,cooking pot,x,sounds\animalfarm_spanish.wav,,,,,,,,,0,0,0,1,0,107,107,160,327.100000032,1.02631747723e-05,328.1692026,1.06921315135,,,,,x,1,1.05052023474,2018_Nov_14_1236,59.9858208501,spanish_cond1,001,1013,
images\bed.jpg,bed,z,sounds\animalfarm_spanish.wav,,,,,,,,,0,0,0,1,0,108,108,103,329.291394356,9.30111855268e-06,330.019689415,0.728305321536,,,,,z,1,0.717020230484,2018_Nov_14_1236,59.9858208501,spanish_cond1,001,1013,
images\cloud.jpg,ceiling fan,x,sounds\animalfarm_spanish.wav,,,,,,,,,0,0,0,1,0,109,109,149,331.126764037,9.621726349e-06,331.836877417,0.710123322555,,,,,x,1,0.700452769874,2018_Nov_14_1236,59.9858208501,spanish_cond1,001,1013,
images\pingpongpaddle01c (1).jpg,ping pong paddle,z,sounds\animalfarm_spanish.wav,,,,,,,,,0,0,0,1,0,110,110,10,332.950119294,8.98027792573e-06,333.720684854,0.770575823146,,,,,z,1,0.750431938795,2018_Nov_14_1236,59.9858208501,spanish_cond1,001,1013,
images\drink.jpg,drink,z,sounds\animalfarm_spanish.wav,,,,,,,,,0,0,0,1,0,111,111,117,334.823065641,9.62184276432e-06,335.621232303,0.798176925047,,,,,z,1,0.783809008542,2018_Nov_14_1236,59.9858208501,spanish_cond1,001,1013,
images\gps.jpg,gps,z,sounds\animalfarm_spanish.wav,,,,,,,,,0,0,0,1,0,112,112,21,336.741629593,9.62184276432e-06,337.705097855,0.963478525286,,,,,z,1,0.950496469042,2018_Nov_14_1236,59.9858208501,spanish_cond1,001,1013,
images\swallow.jpg,mattress,x,sounds\animalfarm_spanish.wav,,,,,,,,,0,0,0,1,0,113,113,202,338.808252235,9.62184276432e-06,339.588947628,0.780705977348,,,,,x,1,0.767056488665,2018_Nov_14_1236,59.9858208501,spanish_cond1,001,1013,
images\pepper05a.jpg,lighter,x,sounds\animalfarm_spanish.wav,,,,,,,,,0,0,0,1,0,114,114,198,340.713235655,8.98039434105e-06,341.472760517,0.759534484474,,,,,x,1,0.750412053778,2018_Nov_14_1236,59.9858208501,spanish_cond1,001,1013,
images\beachumbrella01.jpg,beach umbrella,z,sounds\animalfarm_spanish.wav,,,,,,,,,0,0,0,1,0,115,115,92,342.580067346,9.30100213736e-06,343.523327258,0.943269533222,,,,,z,1,0.933821885614,2018_Nov_14_1236,59.9858208501,spanish_cond1,001,1013,
images\pipe.jpg,icecube,x,sounds\animalfarm_spanish.wav,,,,,,,,,0,0,0,1,0,116,116,188,344.634375043,1.02632911876e-05,345.590539716,0.956174615189,,,,,x,1,0.933817074751,2018_Nov_14_1236,59.9858208501,spanish_cond1,001,1013,
images\floorlamp.jpg,floor lamp,z,sounds\animalfarm_spanish.wav,,,,,,,,,0,0,0,1,0,117,117,26,346.68533307,9.62184276432e-06,347.507728392,0.822405585321,,,,,z,1,0.800454405718,2018_Nov_14_1236,59.9858208501,spanish_cond1,001,1013,
images\licenseplate.jpg,license plate,z,sounds\animalfarm_spanish.wav,,,,,,,,,0,0,0,1,0,118,118,40,348.627212574,9.30100213736e-06,349.641640466,1.01443719352,,,,,z,1,1.00049488142,2018_Nov_14_1236,59.9858208501,spanish_cond1,001,1013,
images\handbag02a.jpg,candle,x,sounds\animalfarm_spanish.wav,,,,,,,,,0,0,0,1,0,119,119,144,350.760032252,9.621726349e-06,351.742212675,0.982190044015,,,,,z,0,0.967172335135,2018_Nov_14_1236,59.9858208501,spanish_cond1,001,1013,
images\toucan.jpg,toucan,z,sounds\animalfarm_spanish.wav,,,,,,,,,0,0,0,1,0,120,120,81,352.844847156,9.621726349e-06,354.709650892,1.86481399927,,,,,z,1,1.8507231907,2018_Nov_14_1236,59.9858208501,spanish_cond1,001,1013,
images\tie01.jpg,bench,x,sounds\animalfarm_spanish.wav,,,,,,,,,0,0,0,1,0,121,121,130,355.810122713,9.62184276432e-06,356.576825761,0.766713631805,,,,,x,1,0.750425844919,2018_Nov_14_1236,59.9858208501,spanish_cond1,001,1013,
images\gorilla.jpg,gorilla,z,sounds\animalfarm_spanish.wav,,,,,,,,,0,0,0,1,0,122,122,80,357.689906954,8.98039434105e-06,358.427354271,0.737456938368,,,,,z,1,0.717110996135,2018_Nov_14_1236,59.9858208501,spanish_cond1,001,1013,
images\dice05a.jpg,band aid,x,sounds\animalfarm_spanish.wav,,,,,,,,,0,0,0,1,0,123,123,126,359.542242117,9.30111855268e-06,360.644593718,1.1023615431,,,,,x,1,1.0838501578,2018_Nov_14_1236,59.9858208501,spanish_cond1,001,1013,
images\stapler03a.jpg,candy cane,x,sounds\animalfarm_spanish.wav,,,,,,,,,0,0,0,1,0,124,124,145,361.757649253,9.62184276432e-06,362.7285077,0.97086839017,,,,,x,1,0.950515071163,2018_Nov_14_1236,59.9858208501,spanish_cond1,001,1013,
images\blueberry02.jpg,blueberry,z,sounds\animalfarm_spanish.wav,,,,,,,,,0,0,0,1,0,125,125,46,363.8437631,9.30111855268e-06,364.595487247,0.751734730788,,,,,z,1,0.733596350648,2018_Nov_14_1236,59.9858208501,spanish_cond1,001,1013,
images\eraser.jpg,eraser,z,sounds\animalfarm_spanish.wav,,,,,,,,,0,0,0,1,0,126,126,110,365.704882006,9.30111855268e-06,367.229704492,1.52483274904,,,,,z,1,1.50064450037,2018_Nov_14_1236,59.9858208501,spanish_cond1,001,1013,
images\charcoalbarbecue.jpg,charcoal barbecue,z,sounds\animalfarm_spanish.wav,,,,,,,,,0,0,0,1,0,127,127,77,368.348790972,9.30111855268e-06,369.430624721,1.08184433274,,,,,z,1,1.0674590969,2018_Nov_14_1236,59.9858208501,spanish_cond1,001,1013,
images\bat.jpg,hand,x,sounds\animalfarm_spanish.wav,,,,,,,,,0,0,0,1,0,128,128,185,370.530801794,8.98039434105e-06,371.597538935,1.06674708356,,,,,x,1,1.05052761151,2018_Nov_14_1236,59.9858208501,spanish_cond1,001,1013,
images\ostrich.jpg,ostrich,z,sounds\animalfarm_spanish.wav,,,,,,,,,0,0,0,1,0,129,129,76,372.6998745,9.62184276432e-06,373.531411496,0.831547259586,,,,,z,1,0.817146308138,2018_Nov_14_1236,59.9858208501,spanish_cond1,001,1013,
images\headphones02b.jpg,headphones,z,sounds\animalfarm_spanish.wav,,,,,,,,,0,0,0,1,0,130,130,101,374.641592678,9.621726349e-06,375.882024517,1.24044210254,,,,,z,1,1.21723559848,2018_Nov_14_1236,59.9858208501,spanish_cond1,001,1013,
images\donut.jpg,rhinoceros,x,sounds\animalfarm_spanish.wav,,,,,,,,,0,0,0,1,0,131,131,216,377.009676647,9.62184276432e-06,377.899252675,0.889586932841,,,,,x,1,0.867156587425,2018_Nov_14_1236,59.9858208501,spanish_cond1,001,1013,
images\graduationcap.jpg,graduation cap,z,sounds\animalfarm_spanish.wav,,,,,,,,,0,0,0,1,0,132,132,35,379.00387021,9.30111855268e-06,379.849948636,0.846088047838,,,,,z,1,0.833977406146,2018_Nov_14_1236,59.9858208501,spanish_cond1,001,1013,
images\bowtie.jpg,bowtie,z,sounds\animalfarm_spanish.wav,,,,,,,,,0,0,0,1,0,133,133,89,380.962560926,9.30111855268e-06,382.167047316,1.2044960116,,,,,z,1,1.18388675258,2018_Nov_14_1236,59.9858208501,spanish_cond1,001,1013,
images\hairdryer03a.jpg,hairdryer,z,sounds\animalfarm_spanish.wav,,,,,,,,,0,0,0,1,0,134,134,119,383.268618588,9.62184276432e-06,384.100920518,0.832312192884,,,,,z,1,0.817140855826,2018_Nov_14_1236,59.9858208501,spanish_cond1,001,1013,
images\eyedrops.jpg,bicycle,x,sounds\animalfarm_spanish.wav,,,,,,,,,0,0,0,1,0,135,135,131,385.203364808,9.62184276432e-06,386.651595183,1.44824063743,,,,,x,1,1.43396733527,2018_Nov_14_1236,59.9858208501,spanish_cond1,001,1013,
images\comb02a.jpg,diploma,x,sounds\animalfarm_spanish.wav,,,,,,,,,0,0,0,1,0,136,136,166,387.758189356,9.30111855268e-06,388.685470341,0.927291568485,,,,,x,1,0.917158527882,2018_Nov_14_1236,59.9858208501,spanish_cond1,001,1013,
images\crocodile.jpg,triangle ruler,x,sounds\animalfarm_spanish.wav,,,,,,,,,0,0,0,1,0,137,137,235,389.784911988,1.02632911876e-05,391.369622816,1.58472077048,,,,,x,1,1.5674342406,2018_Nov_14_1236,59.9858208501,spanish_cond1,001,1013,
images\sunglasses03a.jpg,sun glasses,z,sounds\animalfarm_spanish.wav,,,,,,,,,0,0,0,1,0,138,138,17,392.479599695,9.30111855268e-06,393.336706951,0.85711719899,,,,,z,1,0.83379523328,2018_Nov_14_1236,59.9858208501,spanish_cond1,001,1013,
images\dolphin01.jpg,dolphin,z,sounds\animalfarm_spanish.wav,,,,,,,,,0,0,0,1,0,139,139,99,394.43869613,1.02632911876e-05,395.287238059,0.848552512121,,,,,z,1,0.833788498072,2018_Nov_14_1236,59.9858208501,spanish_cond1,001,1013,
images\aquarium.jpg,computer mouse,x,sounds\animalfarm_spanish.wav,,,,,,,,,0,0,0,1,0,140,140,159,396.425015211,9.62184276432e-06,397.354464949,0.929460001993,,,,,x,1,0.917157244869,2018_Nov_14_1236,59.9858208501,spanish_cond1,001,1013,
images\bottleofredwine02.jpg,pipe,x,sounds\animalfarm_spanish.wav,,,,,,,,,0,0,0,1,0,141,141,213,398.454977823,9.30111855268e-06,399.6884268,1.23345891922,,,,,x,1,1.21724073007,2018_Nov_14_1236,59.9858208501,spanish_cond1,001,1013,
images\broadsword.jpg,teapot,x,sounds\animalfarm_spanish.wav,,,,,,,,,0,0,0,1,0,142,142,231,400.783261207,9.62184276432e-06,402.189098883,1.40584825969,,,,,x,1,1.38394999993,2018_Nov_14_1236,59.9858208501,spanish_cond1,001,1013,
images\panda.jpg,panda,z,sounds\animalfarm_spanish.wav,,,,,,,,,0,0,0,1,0,143,143,83,403.300796461,9.94256697595e-06,404.256316152,0.955529954401,,,,,z,1,0.933815471129,2018_Nov_14_1236,59.9858208501,spanish_cond1,001,1013,
images\cherry01.jpg,highlighter,x,sounds\animalfarm_spanish.wav,,,,,,,,,0,0,0,1,0,144,144,187,405.367111846,9.30100213736e-06,406.6402963,1.27319471736,,,,,x,1,1.25058540655,2018_Nov_14_1236,59.9858208501,spanish_cond1,001,1013,
images\lily.jpg,kiwi,x,sounds\animalfarm_spanish.wav,,,,,,,,,0,0,0,1,0,145,145,190,407.741711379,9.621726349e-06,408.574135826,0.8324340689,,,,,x,1,0.817118404899,2018_Nov_14_1236,59.9858208501,spanish_cond1,001,1013,
images\basketball01.jpg,basket ball,z,sounds\animalfarm_spanish.wav,,,,,,,,,0,0,0,1,0,146,146,33,409.716647546,9.621726349e-06,410.941448447,1.22481052263,,,,,z,1,1.20056229818,2018_Nov_14_1236,59.9858208501,spanish_cond1,001,1013,
images\cake.jpg,cake,z,sounds\animalfarm_spanish.wav,,,,,,,,,0,0,0,1,0,147,147,23,412.057432858,9.621726349e-06,413.108708084,1.05128516804,,,,,z,1,1.03385655629,2018_Nov_14_1236,59.9858208501,spanish_cond1,001,1013,
images\lantern03.jpg,lantern,z,sounds\animalfarm_spanish.wav,,,,,,,,,0,0,0,1,0,148,148,5,414.217208657,9.30111855268e-06,415.475995688,1.25879697327,,,,,z,1,1.25056776649,2018_Nov_14_1236,59.9858208501,spanish_cond1,001,1013,
images\atm.jpg,atm,z,sounds\animalfarm_spanish.wav,,,,,,,,,0,0,0,1,0,149,149,96,416.615663524,9.30111855268e-06,417.926673849,1.31102026708,,,,,z,1,1.30059953453,2018_Nov_14_1236,59.9858208501,spanish_cond1,001,1013,
images\gamecontroller01.jpg,game controller,z,sounds\animalfarm_spanish.wav,,,,,,,,,0,0,0,1,0,150,150,112,419.049249516,9.30111855268e-06,419.977032758,0.927793505951,,,,,z,1,0.916977317189,2018_Nov_14_1236,59.9858208501,spanish_cond1,001,1013,
images\weight01.jpg,weight,z,sounds\animalfarm_spanish.wav,,,,,,,,,0,0,0,1,0,151,151,67,421.084216107,9.62184276432e-06,422.16095896,1.07675311645,,,,,z,1,1.06702483294,2018_Nov_14_1236,59.9858208501,spanish_cond1,001,1013,
images\corkscrew02a.jpg,masquerade mask,x,sounds\animalfarm_spanish.wav,,,,,,,,,0,0,0,1,0,152,152,201,423.321983028,8.98039434105e-06,424.478424552,1.15645178722,,,,,x,1,1.13389828277,2018_Nov_14_1236,59.9858208501,spanish_cond1,001,1013,
images\fryingpan01.jpg,frying pan,z,sounds\animalfarm_spanish.wav,,,,,,,,,0,0,0,1,0,153,153,45,425.581168401,8.98039434105e-06,426.812371649,1.23121319059,,,,,z,1,1.21721988288,2018_Nov_14_1236,59.9858208501,spanish_cond1,001,1013,
images\swan.jpg,swan,z,sounds\animalfarm_spanish.wav,,,,,,,,,0,0,0,1,0,154,154,54,427.906675574,9.62184276432e-06,429.163001989,1.25633635768,,,,,z,1,1.23388003337,2018_Nov_14_1236,59.9858208501,spanish_cond1,001,1013,
images\globe.jpg,cloud,x,sounds\animalfarm_spanish.wav,,,,,,,,,0,0,0,1,0,155,155,154,430.292887981,8.98039434105e-06,431.813723833,1.52084579493,,,,,x,1,1.50064065168,2018_Nov_14_1236,59.9858208501,spanish_cond1,001,1013,
images\egg01b (1).jpg,egg,z,sounds\animalfarm_spanish.wav,,,,,,,,,0,0,0,1,0,156,156,19,432.92843528,9.30100213736e-06,434.131014308,1.20258897031,,,,,z,1,1.18387360289,2018_Nov_14_1236,59.9858208501,spanish_cond1,001,1013,
images\screwdriver02b.jpg,cola,x,sounds\animalfarm_spanish.wav,,,,,,,,,0,0,0,1,0,157,157,158,435.22729391,9.62184276432e-06,436.164893636,0.937609668588,,,,,x,1,0.917134152609,2018_Nov_14_1236,59.9858208501,spanish_cond1,001,1013,
images\dragonfly02.jpg,dragon fly,z,sounds\animalfarm_spanish.wav,,,,,,,,,0,0,0,1,0,158,158,29,437.264785262,8.98039434105e-06,438.032066901,0.76729126065,,,,,z,1,0.750445730053,2018_Nov_14_1236,59.9858208501,spanish_cond1,001,1013,
images\boxingglove02a.jpg,bracelet,x,sounds\animalfarm_spanish.wav,,,,,,,,,0,0,0,1,0,159,159,135,439.145606092,9.62184276432e-06,439.932575542,0.786979713128,,,,,x,1,0.767118068179,2018_Nov_14_1236,59.9858208501,spanish_cond1,001,1013,
images\coffeepot03b.jpg,coffee pot,z,sounds\animalfarm_spanish.wav,,,,,,,,,0,0,0,1,0,160,160,107,441.055842054,9.94256697595e-06,441.933102496,0.877271025907,,,,,z,1,0.8671328536,2018_Nov_14_1236,59.9858208501,spanish_cond1,001,1013,
images\cigar.jpg,crocodile,x,sounds\animalfarm_spanish.wav,,,,,,,,,0,0,0,1,0,161,161,162,443.033692986,8.98039434105e-06,443.900309469,0.866626105504,,,,,x,1,0.85047270311,2018_Nov_14_1236,59.9858208501,spanish_cond1,001,1013,
images\skateboard.jpg,key,x,sounds\animalfarm_spanish.wav,,,,,,,,,0,0,0,1,0,162,162,189,444.99357424,9.30111855268e-06,446.334321706,1.34075805056,,,,,x,1,1.31727636291,2018_Nov_14_1236,59.9858208501,spanish_cond1,001,1013,
images\highheelshoe02a.jpg,high heel shoe,z,sounds\animalfarm_spanish.wav,,,,,,,,,0,0,0,1,0,163,163,75,447.442719327,9.94245056063e-06,448.934982275,1.49227257026,,,,,z,1,1.48391667649,2018_Nov_14_1236,59.9858208501,spanish_cond1,001,1013,
images\safe.jpg,safe,z,sounds\animalfarm_spanish.wav,,,,,,,,,0,0,0,1,0,164,164,78,450.047738892,9.30111855268e-06,451.70240792,1.65467961167,,,,,z,1,1.63401454617,2018_Nov_14_1236,59.9858208501,spanish_cond1,001,1013,
images\flipflop01b.jpg,flip flop,z,sounds\animalfarm_spanish.wav,,,,,,,,,0,0,0,1,0,165,165,27,452.821314473,9.62184276432e-06,453.719620362,0.898316794075,,,,,z,1,0.883826680598,2018_Nov_14_1236,59.9858208501,spanish_cond1,001,1013,
images\lighter02b.jpg,stapler,x,sounds\animalfarm_spanish.wav,,,,,,,,,0,0,0,1,0,166,166,227,454.823432873,9.62184276432e-06,455.553442857,0.730020247516,,,,,x,1,0.717085017241,2018_Nov_14_1236,59.9858208501,spanish_cond1,001,1013,
images\icecube02 (2).jpg,aloe,x,sounds\animalfarm_spanish.wav,,,,,,,,,0,0,0,1,0,167,167,122,456.665678935,9.30100213736e-06,458.370859217,1.70518990385,,,,,x,1,1.68401327939,2018_Nov_14_1236,59.9858208501,spanish_cond1,001,1013,
images\pouch01b.jpg,pouch,z,sounds\animalfarm_spanish.wav,,,,,,,,,0,0,0,1,0,168,168,25,459.485605303,1.05840153992e-05,460.871543167,1.3859481276,,,,,z,1,1.3672802276,2018_Nov_14_1236,59.9858208501,spanish_cond1,001,1013,
images\lollipop03b.jpg,lollipop,z,sounds\animalfarm_spanish.wav,,,,,,,,,0,0,0,1,0,169,169,42,461.966956807,9.30111855268e-06,462.80539039,0.838443846675,,,,,z,1,0.817131875432,2018_Nov_14_1236,59.9858208501,spanish_cond1,001,1013,
images\gluestick.jpg,squirrel,x,sounds\animalfarm_spanish.wav,,,,,,,,,0,0,0,1,0,170,170,226,463.915098179,9.94256697595e-06,464.772576517,0.857488279813,,,,,x,1,0.833792667487,2018_Nov_14_1236,59.9858208501,spanish_cond1,001,1013,
images\cockroach02.jpg,belt,x,sounds\animalfarm_spanish.wav,,,,,,,,,0,0,0,1,0,171,171,129,465.873550596,9.62184276432e-06,466.839820085,0.966279111221,,,,,x,1,0.950512184645,2018_Nov_14_1236,59.9858208501,spanish_cond1,001,1013,
images\candycane01a.jpg,lip,x,sounds\animalfarm_spanish.wav,,,,,,,,,0,0,0,1,0,172,172,200,467.936332535,9.94256697595e-06,468.606949699,0.670628069667,,,,,x,1,0.650422605569,2018_Nov_14_1236,59.9858208501,spanish_cond1,001,1013,
images\lemon02.jpg,lemon,z,sounds\animalfarm_spanish.wav,,,,,,,,,0,0,0,1,0,173,173,14,469.721599246,9.94256697595e-06,470.94090706,1.21931775648,,,,,z,1,1.20054914837,2018_Nov_14_1236,59.9858208501,spanish_cond1,001,1013,
images\nametag01a.jpg,name tag,z,sounds\animalfarm_spanish.wav,,,,,,,,,0,0,0,1,0,174,174,108,472.063009655,9.30100213736e-06,473.208180841,1.14518080803,,,,,z,1,1.1338803221,2018_Nov_14_1236,59.9858208501,spanish_cond1,001,1013,
images\blackolive.jpg,tank,x,sounds\animalfarm_spanish.wav,,,,,,,,,0,0,0,1,0,175,175,229,474.324934034,1.02632911876e-05,475.458793509,1.13387005881,,,,,x,1,1.11720541806,2018_Nov_14_1236,59.9858208501,spanish_cond1,001,1013,
images\8ball.jpg,nail clipper,x,sounds\animalfarm_spanish.wav,,,,,,,,,0,0,0,1,0,176,176,206,476.576526523,9.30100213736e-06,478.009464005,1.43294742424,,,,,x,1,1.41726901825,2018_Nov_14_1236,59.9858208501,spanish_cond1,001,1013,
images\glasses01b.jpg,calculator,x,sounds\animalfarm_spanish.wav,,,,,,,,,0,0,0,1,0,177,177,142,479.104226569,9.30100213736e-06,480.060021123,0.955804496538,,,,,x,1,0.933792699594,2018_Nov_14_1236,59.9858208501,spanish_cond1,001,1013,
images\remotecontrol01c.jpg,remote control,z,sounds\animalfarm_spanish.wav,,,,,,,,,0,0,0,1,0,178,178,85,481.171480401,9.62184276432e-06,482.027219437,0.855748978793,,,,,z,1,0.833798440639,2018_Nov_14_1236,59.9858208501,spanish_cond1,001,1013,
images\doll.jpg,carrot,x,sounds\animalfarm_spanish.wav,,,,,,,,,0,0,0,1,0,179,179,146,483.140416092,9.30100213736e-06,483.894384684,0.753978534951,,,,,x,1,0.733771146624,2018_Nov_14_1236,59.9858208501,spanish_cond1,001,1013,
images\calculator02b.jpg,dice,x,sounds\animalfarm_spanish.wav,,,,,,,,,0,0,0,1,0,180,180,165,484.998016626,9.62184276432e-06,485.728219367,0.730213325005,,,,,x,1,0.717098808498,2018_Nov_14_1236,59.9858208501,spanish_cond1,001,1013,
images\ruler02b.jpg,watermelon,x,sounds\animalfarm_spanish.wav,,,,,,,,,0,0,0,1,0,181,181,238,486.832710535,9.30111855268e-06,487.495365018,0.662665066076,,,,,x,1,0.650416191085,2018_Nov_14_1236,59.9858208501,spanish_cond1,001,1013,
images\dreamcatcher.jpg,dream catcher,z,sounds\animalfarm_spanish.wav,,,,,,,,,0,0,0,1,0,182,182,48,488.596356737,9.94256697595e-06,489.395882638,0.799536164966,,,,,z,1,0.783802593942,2018_Nov_14_1236,59.9858208501,spanish_cond1,001,1013,
images\cookingpot.jpg,grasshopper,x,sounds\animalfarm_spanish.wav,,,,,,,,,0,0,0,1,0,183,183,183,490.511989567,9.621726349e-06,491.279697452,0.767717827111,,,,,x,1,0.750435787486,2018_Nov_14_1236,59.9858208501,spanish_cond1,001,1013,
images\doorhandle.jpg,doll,x,sounds\animalfarm_spanish.wav,,,,,,,,,0,0,0,1,0,184,184,168,492.385563576,9.30100213736e-06,493.463636804,1.07808317011,,,,,x,1,1.06720732641,2018_Nov_14_1236,59.9858208501,spanish_cond1,001,1013,
images\scooter.jpg,pen,x,sounds\animalfarm_spanish.wav,,,,,,,,,0,0,0,1,0,185,185,212,494.558659478,9.30111855268e-06,495.414160535,0.855511320289,,,,,x,1,0.833804534283,2018_Nov_14_1236,59.9858208501,spanish_cond1,001,1013,
images\scissors04a.jpg,leek,x,sounds\animalfarm_spanish.wav,,,,,,,,,0,0,0,1,0,186,186,194,496.509985667,9.621726349e-06,497.514734668,1.00475926406,,,,,x,1,0.98385782307,2018_Nov_14_1236,59.9858208501,spanish_cond1,001,1013,
images\beermug01b.jpg,beer mug,z,sounds\animalfarm_spanish.wav,,,,,,,,,0,0,0,1,0,187,187,111,498.633790679,9.30111855268e-06,499.515257773,0.881477677962,,,,,z,1,0.867146644974,2018_Nov_14_1236,59.9858208501,spanish_cond1,001,1013,
images\electrictoothbrush01a.jpg,banjo,x,sounds\animalfarm_spanish.wav,,,,,,,,,0,0,0,1,0,188,188,127,500.612630091,9.30100213736e-06,501.632496547,1.01987671899,,,,,x,1,1.00050963473,2018_Nov_14_1236,59.9858208501,spanish_cond1,001,1013,
images\ceilingfan02.jpg,paper clip,x,sounds\animalfarm_spanish.wav,,,,,,,,,0,0,0,1,0,189,189,208,502.73289428,9.30111855268e-06,503.54967528,0.816791263642,,,,,x,1,0.80045729212,2018_Nov_14_1236,59.9858208501,spanish_cond1,001,1013,
images\corn01.jpg,corn,z,sounds\animalfarm_spanish.wav,,,,,,,,,0,0,0,1,0,190,190,22,504.6517177,9.30100213736e-06,505.966996256,1.31528849853,,,,,z,1,1.30058927124,2018_Nov_14_1236,59.9858208501,spanish_cond1,001,1013,
images\lamp04b.jpg,parking meter,x,sounds\animalfarm_spanish.wav,,,,,,,,,0,0,0,1,0,191,191,209,507.089735493,9.62184276432e-06,507.900835782,0.811110230861,,,,,x,1,0.800452481257,2018_Nov_14_1236,59.9858208501,spanish_cond1,001,1013,
images\showerhead01.jpg,skateboard,x,sounds\animalfarm_spanish.wav,,,,,,,,,0,0,0,1,0,192,192,223,509.010355946,1.02632911876e-05,509.818029269,0.807684227941,,,,,x,1,0.783777256496,2018_Nov_14_1236,59.9858208501,spanish_cond1,001,1013,
images\feather03b.jpg,feather,z,sounds\animalfarm_spanish.wav,,,,,,,,,0,0,0,1,0,193,193,114,510.920683636,9.94256697595e-06,512.402050534,1.48137716216,,,,,z,1,1.46727192076,2018_Nov_14_1236,59.9858208501,spanish_cond1,001,1013,
images\teapot.jpg,light switch,x,sounds\animalfarm_spanish.wav,,,,,,,,,0,0,0,1,0,194,194,197,513.520604288,9.30111855268e-06,514.335899682,0.815305336728,,,,,x,1,0.800458254409,2018_Nov_14_1236,59.9858208501,spanish_cond1,001,1013,
images\hairpin.jpg,hair pin,z,sounds\animalfarm_spanish.wav,,,,,,,,,0,0,0,1,0,195,195,28,515.428957584,9.62184276432e-06,516.286419564,0.857471922878,,,,,z,1,0.833793308935,2018_Nov_14_1236,59.9858208501,spanish_cond1,001,1013,
images\screw03c.jpg,screw,z,sounds\animalfarm_spanish.wav,,,,,,,,,0,0,0,1,0,196,196,84,517.382695958,9.62184276432e-06,518.170258432,0.787573057576,,,,,z,1,0.767098503886,2018_Nov_14_1236,59.9858208501,spanish_cond1,001,1013,
images\ladybug03.jpg,giraffe,x,sounds\animalfarm_spanish.wav,,,,,,,,,0,0,0,1,0,197,197,178,519.276045337,9.30111855268e-06,520.054116223,0.778080828954,,,,,x,1,0.767118709628,2018_Nov_14_1236,59.9858208501,spanish_cond1,001,1013,
images\treadmill.jpg,lily,x,sounds\animalfarm_spanish.wav,,,,,,,,,0,0,0,1,0,198,198,199,521.162378817,9.30111855268e-06,521.921294941,0.75892670732,,,,,x,1,0.75045310671,2018_Nov_14_1236,59.9858208501,spanish_cond1,001,1013,
images\honeycomb.jpg,honey comb,z,sounds\animalfarm_spanish.wav,,,,,,,,,0,0,0,1,0,199,199,59,523.037127648,9.62184276432e-06,523.755107493,0.717990108184,,,,,z,1,0.700413641287,2018_Nov_14_1236,59.9858208501,spanish_cond1,001,1013,
images\giraffe.jpg,lettuce,x,sounds\animalfarm_spanish.wav,,,,,,,,,0,0,0,1,0,200,200,195,524.858267325,9.621726349e-06,525.555579218,0.697322476888,,,,,x,1,0.683751245611,2018_Nov_14_1236,59.9858208501,spanish_cond1,001,1013,
images\plate01b.jpg,plate,z,sounds\animalfarm_spanish.wav,,,,,,,,,0,0,0,1,0,201,201,3,526.656902248,9.62184276432e-06,527.339402018,0.682510033133,,,,,z,1,0.667089812108,2018_Nov_14_1236,59.9858208501,spanish_cond1,001,1013,
images\straw.jpg,straw,z,sounds\animalfarm_spanish.wav,,,,,,,,,0,0,0,1,0,202,202,109,528.43267641,9.62184276432e-06,529.206567906,0.77390175953,,,,,z,1,0.750441560522,2018_Nov_14_1236,59.9858208501,spanish_cond1,001,1013,
images\tissuebox03.jpg,tissue box,z,sounds\animalfarm_spanish.wav,,,,,,,,,0,0,0,1,0,203,203,58,530.334467637,9.62184276432e-06,531.073739889,0.739282194292,,,,,z,1,0.717107147444,2018_Nov_14_1236,59.9858208501,spanish_cond1,001,1013,
images\hat05.jpg,hat,z,sounds\animalfarm_spanish.wav,,,,,,,,,0,0,0,1,0,204,204,15,532.179593184,9.30100213736e-06,532.890890046,0.711306804325,,,,,z,1,0.70042935689,2018_Nov_14_1236,59.9858208501,spanish_cond1,001,1013,
images\apple06.jpg,apple,z,sounds\animalfarm_spanish.wav,,,,,,,,,0,0,0,1,0,205,205,13,534.020791432,9.30111855268e-06,534.908110506,0.887329337304,,,,,z,1,0.867152097286,2018_Nov_14_1236,59.9858208501,spanish_cond1,001,1013,
images\apricot.jpg,apricot,z,sounds\animalfarm_spanish.wav,,,,,,,,,0,0,0,1,0,206,206,32,536.026890051,9.30100213736e-06,537.458796717,1.43191660848,,,,,z,1,1.41729724209,2018_Nov_14_1236,59.9858208501,spanish_cond1,001,1013,
images\shotglass.jpg,shot glass,z,sounds\animalfarm_spanish.wav,,,,,,,,,0,0,0,1,0,207,207,86,538.569672593,9.30111855268e-06,540.242999578,1.67333724839,,,,,z,1,1.65079657303,2018_Nov_14_1236,59.9858208501,spanish_cond1,001,1013,
images\volleyball.jpg,volley ball,z,sounds\animalfarm_spanish.wav,,,,,,,,,0,0,0,1,0,208,208,2,541.376377,9.62184276432e-06,542.093376383,0.717009325745,,,,,z,1,0.70038670022,2018_Nov_14_1236,59.9858208501,spanish_cond1,001,1013,
images\battery03b.jpg,battery,z,sounds\animalfarm_spanish.wav,,,,,,,,,0,0,0,1,0,209,209,34,543.205056001,9.30100213736e-06,544.010552551,0.805506813922,,,,,z,1,0.783793292823,2018_Nov_14_1236,59.9858208501,spanish_cond1,001,1013,
images\mitten01.jpg,mitten,z,sounds\animalfarm_spanish.wav,,,,,,,,,0,0,0,1,0,210,210,102,545.133602252,9.30111855268e-06,545.827711688,0.694119378924,,,,,z,1,0.683765678434,2018_Nov_14_1236,59.9858208501,spanish_cond1,001,1013,
images\marker01a.jpg,marker,z,sounds\animalfarm_spanish.wav,,,,,,,,,0,0,0,1,0,211,211,95,546.928026995,9.621726349e-06,547.92827203,1.00025529845,,,,,z,1,0.983844352537,2018_Nov_14_1236,59.9858208501,spanish_cond1,001,1013,
images\envelope02a.jpg,grand piano,x,sounds\animalfarm_spanish.wav,,,,,,,,,0,0,0,1,0,212,212,182,549.053776894,9.94256697595e-06,549.778776485,0.725009854301,,,,,x,1,0.717104260926,2018_Nov_14_1236,59.9858208501,spanish_cond1,001,1013,
images\rhinoceros01.jpg,envelope,x,sounds\animalfarm_spanish.wav,,,,,,,,,0,0,0,1,0,213,213,173,550.892568409,9.94245056063e-06,552.346134714,1.45357656816,,,,,x,1,1.43396060006,2018_Nov_14_1236,59.9858208501,spanish_cond1,001,1013,
images\worldmap.jpg,scooter,x,sounds\animalfarm_spanish.wav,,,,,,,,,0,0,0,1,0,214,214,220,553.479133358,9.30100213736e-06,554.363359985,0.884236890008,,,,,x,1,0.867171340855,2018_Nov_14_1236,59.9858208501,spanish_cond1,001,1013,
images\saltshaker03c.jpg,salt shaker,z,sounds\animalfarm_spanish.wav,,,,,,,,,0,0,0,1,0,215,215,63,555.477065312,9.94245056063e-06,556.397279403,0.920224675443,,,,,z,1,0.900550014339,2018_Nov_14_1236,59.9858208501,spanish_cond1,001,1013,
images\antelope.jpg,antelope,z,sounds\animalfarm_spanish.wav,,,,,,,,,0,0,0,1,0,216,216,12,557.503912064,9.62184276432e-06,558.381283799,0.877399316756,,,,,z,1,0.867257616366,2018_Nov_14_1236,59.9858208501,spanish_cond1,001,1013,
images\leek.jpg,donut,x,sounds\animalfarm_spanish.wav,,,,,,,,,0,0,0,1,0,217,217,169,559.485163983,9.62184276432e-06,560.264910346,0.779755984666,,,,,x,1,0.76711101213,2018_Nov_14_1236,59.9858208501,spanish_cond1,001,1013,
images\binder03b.jpg,dj mixer,x,sounds\animalfarm_spanish.wav,,,,,,,,,0,0,0,1,0,218,218,167,561.379816795,9.62184276432e-06,562.448837831,1.06903129944,,,,,x,1,1.05052825296,2018_Nov_14_1236,59.9858208501,spanish_cond1,001,1013,
,,,sounds\animalfarm_spanish.wav,,,,,,,,,0,0,0,1,,,,,,,,,,,,,,,,2018_Nov_14_1236,59.9858208501,spanish_cond1,001,1013,
images\lamp04b.jpg,parking meter,x,sounds\greatgatsby_english.wav,,,,,,,,,0,1,1,0,0,0,0,209,583.596087647,9.62184276432e-06,584.538123665,0.942046922981,,,,573.452186538,x,1,0.933854599833,2018_Nov_14_1236,59.9858208501,spanish_cond1,001,1013,
images\mirror02.jpg,8 ball,x,sounds\greatgatsby_english.wav,,,,,,,,,0,1,1,0,0,1,1,121,585.639178888,9.94256697595e-06,586.405276725,0.766107778996,,,,,x,1,0.750449899468,2018_Nov_14_1236,59.9858208501,spanish_cond1,001,1013,
images\snowman.jpg,globe,x,sounds\greatgatsby_english.wav,,,,,,,,,0,1,1,0,0,2,2,180,587.515791783,9.62184276432e-06,588.139061983,0.62328046374,,,,,x,1,0.600401742267,2018_Nov_14_1236,59.9858208501,spanish_cond1,001,1013,
images\parkbench03.jpg,park bench,z,sounds\greatgatsby_english.wav,,,,,,,,,0,1,1,0,0,3,3,71,589.24408171,9.94245056063e-06,590.122939692,0.878868245054,,,,,z,1,0.867147286306,2018_Nov_14_1236,59.9858208501,spanish_cond1,001,1013,
images\rubberglove02a.jpg,lady bug,x,sounds\greatgatsby_english.wav,,,,,,,,,0,1,1,0,0,4,4,192,591.226666889,9.30100213736e-06,592.440510481,1.21385385573,,,,,x,1,1.20084389625,2018_Nov_14_1236,59.9858208501,spanish_cond1,001,1013,
images\bowlingball.jpg,bowling ball,z,sounds\greatgatsby_english.wav,,,,,,,,,0,1,1,0,0,5,5,20,593.571832046,9.30100213736e-06,594.424093442,0.852271338692,,,,,z,1,0.833801968605,2018_Nov_14_1236,59.9858208501,spanish_cond1,001,1013,
images\medal01.jpg,medal,z,sounds\greatgatsby_english.wav,,,,,,,,,0,1,1,0,0,6,6,115,595.52443601,9.621726349e-06,596.491324181,0.966898113722,,,,,z,1,0.950491658063,2018_Nov_14_1236,59.9858208501,spanish_cond1,001,1013,
images\backpack01b.jpg,swallow,x,sounds\greatgatsby_english.wav,,,,,,,,,0,1,1,0,0,7,7,228,597.620919594,9.30111855268e-06,598.491874869,0.870964896865,,,,,x,1,0.850490984623,2018_Nov_14_1236,59.9858208501,spanish_cond1,001,1013,
images\microphone01.jpg,diaper,x,sounds\greatgatsby_english.wav,,,,,,,,,0,1,1,0,0,8,8,164,599.590328678,9.30100213736e-06,600.375696418,0.785378003726,,,,,x,1,0.767129614367,2018_Nov_14_1236,59.9858208501,spanish_cond1,001,1013,
images\cloud.jpg,ceiling fan,x,sounds\greatgatsby_english.wav,,,,,,,,,0,1,1,0,0,9,9,149,601.480313312,9.621726349e-06,602.109502845,0.629199475632,,,,,x,1,0.617084023077,2018_Nov_14_1236,59.9858208501,spanish_cond1,001,1013,
images\hand01a.jpg,cupcake,x,sounds\greatgatsby_english.wav,,,,,,,,,0,1,1,0,0,10,10,163,603.220335102,9.30100213736e-06,603.976661677,0.756336517981,,,,,x,1,0.733774995431,2018_Nov_14_1236,59.9858208501,spanish_cond1,001,1013,
images\fryingpan01.jpg,frying pan,z,sounds\greatgatsby_english.wav,,,,,,,,,0,1,1,0,0,11,11,45,605.077923448,9.94256697595e-06,606.377134557,1.29922137165,,,,,z,1,1.28373187373,2018_Nov_14_1236,59.9858208501,spanish_cond1,001,1013,
images\egg01b (1).jpg,egg,z,sounds\greatgatsby_english.wav,,,,,,,,,0,1,1,0,0,12,12,19,607.489913625,3.8166414015e-05,608.161112588,0.671216282295,,,,,z,1,0.650400475366,2018_Nov_14_1236,59.9858208501,spanish_cond1,001,1013,
images\banjo.jpg,knife,x,sounds\greatgatsby_english.wav,,,,,,,,,0,1,1,0,0,13,13,191,609.257081727,8.98039434105e-06,610.028288099,0.771215993795,,,,,x,1,0.750453748158,2018_Nov_14_1236,59.9858208501,spanish_cond1,001,1013,
images\glasses01b.jpg,calculator,x,sounds\greatgatsby_english.wav,,,,,,,,,0,1,1,0,0,14,14,142,611.121067289,9.30100213736e-06,612.028823071,0.907765403739,,,,,x,1,0.883812568616,2018_Nov_14_1236,59.9858208501,spanish_cond1,001,1013,
images\crocodile.jpg,triangle ruler,x,sounds\greatgatsby_english.wav,,,,,,,,,0,1,1,0,0,15,15,235,613.126016102,9.30111855268e-06,613.829304097,0.703298257547,,,,,x,1,0.683762471075,2018_Nov_14_1236,59.9858208501,spanish_cond1,001,1013,
images\doorhandle.jpg,doll,x,sounds\greatgatsby_english.wav,,,,,,,,,0,1,1,0,0,16,16,168,614.931435037,9.94245056063e-06,615.696303528,0.764879395487,,,,,x,1,0.75027927279,2018_Nov_14_1236,59.9858208501,spanish_cond1,001,1013,
images\acousticguitar02.jpg,acoustic guitar,z,sounds\greatgatsby_english.wav,,,,,,,,,0,1,1,0,0,17,17,97,616.808767964,9.30111855268e-06,617.54697444,0.738216419355,,,,,z,1,0.717089828104,2018_Nov_14_1236,59.9858208501,spanish_cond1,001,1013,
images\pepper05a.jpg,lighter,x,sounds\greatgatsby_english.wav,,,,,,,,,0,1,1,0,0,18,18,198,618.667823635,9.621726349e-06,619.680886194,1.01307314273,,,,,x,1,1.00052214321,2018_Nov_14_1236,59.9858208501,spanish_cond1,001,1013,
images\magnifyingglass01b.jpg,magnifying glass,z,sounds\greatgatsby_english.wav,,,,,,,,,0,1,1,0,0,19,19,64,620.787483254,9.62184276432e-06,621.714774502,0.927301190328,,,,,z,1,0.917171998299,2018_Nov_14_1236,59.9858208501,spanish_cond1,001,1013,
images\lip.jpg,boxing glove,x,sounds\greatgatsby_english.wav,,,,,,,,,0,1,1,0,0,20,20,136,622.817001019,9.30111855268e-06,624.015386865,1.19839610974,,,,,x,1,1.18390695844,2018_Nov_14_1236,59.9858208501,spanish_cond1,001,1013,
images\croissant02b.jpg,croissant,z,sounds\greatgatsby_english.wav,,,,,,,,,0,1,1,0,0,21,21,39,625.125989161,9.62184276432e-06,626.165954279,1.03997570171,,,,,z,1,1.01718934963,2018_Nov_14_1236,59.9858208501,spanish_cond1,001,1013,
images\fork01.jpg,cooking pot,x,sounds\greatgatsby_english.wav,,,,,,,,,0,1,1,0,0,22,22,160,627.259809828,9.30111855268e-06,628.149840005,0.890040440485,,,,,x,1,0.867165247095,2018_Nov_14_1236,59.9858208501,spanish_cond1,001,1013,
images\corn01.jpg,corn,z,sounds\greatgatsby_english.wav,,,,,,,,,0,1,1,0,0,23,23,22,629.249778458,9.621726349e-06,630.683833352,1.43406515685,,,,,z,1,1.41729371413,2018_Nov_14_1236,59.9858208501,spanish_cond1,001,1013,
images\mattress.jpg,cat,x,sounds\greatgatsby_english.wav,,,,,,,,,0,1,1,0,0,24,24,147,631.787970117,8.98039434105e-06,632.851088819,1.06312896521,,,,,x,1,1.05053081876,2018_Nov_14_1236,59.9858208501,spanish_cond1,001,1013,
images\pineapple01a.jpg,pineapple,z,sounds\greatgatsby_english.wav,,,,,,,,,0,1,1,0,0,25,25,51,633.964849632,9.62184276432e-06,635.018348456,1.05350876669,,,,,z,1,1.03387644142,2018_Nov_14_1236,59.9858208501,spanish_cond1,001,1013,
images\shotglass.jpg,shot glass,z,sounds\greatgatsby_english.wav,,,,,,,,,0,1,1,0,0,26,26,86,636.126298021,9.30111855268e-06,636.952193755,0.825905355508,,,,,z,1,0.817142138723,2018_Nov_14_1236,59.9858208501,spanish_cond1,001,1013,
images\hairpin.jpg,hair pin,z,sounds\greatgatsby_english.wav,,,,,,,,,0,1,1,0,0,27,27,28,638.042662109,9.62184276432e-06,638.936050295,0.893398770131,,,,,z,1,0.883813530789,2018_Nov_14_1236,59.9858208501,spanish_cond1,001,1013,
images\hairband.jpg,hairband,z,sounds\greatgatsby_english.wav,,,,,,,,,0,1,1,0,0,28,28,66,640.045012074,9.30111855268e-06,640.719873416,0.674871284398,,,,,z,1,0.650419077603,2018_Nov_14_1236,59.9858208501,spanish_cond1,001,1013,
images\pouch01b.jpg,pouch,z,sounds\greatgatsby_english.wav,,,,,,,,,0,1,1,0,0,29,29,25,641.83192251,9.30111855268e-06,642.487010727,0.655097839306,,,,,z,1,0.633756681927,2018_Nov_14_1236,59.9858208501,spanish_cond1,001,1013,
images\tulip02.jpg,sport shorts,x,sounds\greatgatsby_english.wav,,,,,,,,,0,1,1,0,0,30,30,225,643.580906047,9.30111855268e-06,644.587583898,1.00668811484,,,,,x,1,0.983847559779,2018_Nov_14_1236,59.9858208501,spanish_cond1,001,1013,
images\screw03c.jpg,screw,z,sounds\greatgatsby_english.wav,,,,,,,,,0,1,1,0,0,31,31,84,645.681328476,9.30100213736e-06,646.438095088,0.756776875816,,,,,z,1,0.733755751862,2018_Nov_14_1236,59.9858208501,spanish_cond1,001,1013,
images\radish01.jpg,raisin,x,sounds\greatgatsby_english.wav,,,,,,,,,0,1,1,0,0,32,32,214,647.549074559,9.62184276432e-06,648.421943611,0.87287995615,,,,,x,1,0.85048360785,2018_Nov_14_1236,59.9858208501,spanish_cond1,001,1013,
images\orange.jpg,bat,x,sounds\greatgatsby_english.wav,,,,,,,,,0,1,1,0,0,33,33,128,649.546542421,9.62184276432e-06,650.422485959,0.875953480601,,,,,x,1,0.867159474059,2018_Nov_14_1236,59.9858208501,spanish_cond1,001,1013,
images\cactus.jpg,cactus,z,sounds\greatgatsby_english.wav,,,,,,,,,0,1,1,0,0,34,34,70,651.534256342,9.62184276432e-06,652.856465482,1.32221940334,,,,,z,1,1.30060242105,2018_Nov_14_1236,59.9858208501,spanish_cond1,001,1013,
images\pen03c.jpg,pepper,x,sounds\greatgatsby_english.wav,,,,,,,,,0,1,1,0,0,35,35,211,653.950484923,9.30111855268e-06,655.307121513,1.35664685327,,,,,x,1,1.33393972064,2018_Nov_14_1236,59.9858208501,spanish_cond1,001,1013,
images\beachumbrella01.jpg,beach umbrella,z,sounds\greatgatsby_english.wav,,,,,,,,,0,1,1,0,0,36,36,92,656.412531884,9.30100213736e-06,657.190790075,0.778268454014,,,,,z,1,0.766948083066,2018_Nov_14_1236,59.9858208501,spanish_cond1,001,1013,
images\lighter02b.jpg,stapler,x,sounds\greatgatsby_english.wav,,,,,,,,,0,1,1,0,0,37,37,227,658.29236263,9.62184276432e-06,659.374723333,1.08237128682,,,,,x,1,1.06703573768,2018_Nov_14_1236,59.9858208501,spanish_cond1,001,1013,
images\drink.jpg,drink,z,sounds\greatgatsby_english.wav,,,,,,,,,0,1,1,0,0,38,38,117,660.474422524,9.30100213736e-06,661.242059207,0.767646946479,,,,,z,1,0.75045086164,2018_Nov_14_1236,59.9858208501,spanish_cond1,001,1013,
images\cheetah.jpg,cheetah,z,sounds\greatgatsby_english.wav,,,,,,,,,0,1,1,0,0,39,39,82,662.344309458,1.02631747723e-05,663.15922896,0.814930086373,,,,,z,1,0.800464027445,2018_Nov_14_1236,59.9858208501,spanish_cond1,001,1013,
images\butterfly.jpg,butterfly,z,sounds\greatgatsby_english.wav,,,,,,,,,0,1,1,0,0,40,40,91,664.266256756,9.30111855268e-06,664.94306523,0.676818416337,,,,,z,1,0.66711482883,2018_Nov_14_1236,59.9858208501,spanish_cond1,001,1013,
images\parkfountain.jpg,park fountain,z,sounds\greatgatsby_english.wav,,,,,,,,,0,1,1,0,0,41,41,93,666.063264633,8.98027792573e-06,666.726870069,0.663614737918,,,,,z,1,0.650432227412,2018_Nov_14_1236,59.9858208501,spanish_cond1,001,1013,
images\blueberry02.jpg,blueberry,z,sounds\greatgatsby_english.wav,,,,,,,,,0,1,1,0,0,42,42,46,667.839618348,9.30111855268e-06,669.194187854,1.3545794487,,,,,z,1,1.33393972064,2018_Nov_14_1236,59.9858208501,spanish_cond1,001,1013,
images\worldmap.jpg,scooter,x,sounds\greatgatsby_english.wav,,,,,,,,,0,1,1,0,0,43,43,220,670.324452944,9.30100213736e-06,670.994666635,0.67022363306,,,,,x,1,0.650413304451,2018_Nov_14_1236,59.9858208501,spanish_cond1,001,1013,
images\belt02a.jpg,snowman,x,sounds\greatgatsby_english.wav,,,,,,,,,0,1,1,0,0,44,44,224,672.098121215,9.30111855268e-06,672.845179429,0.747068156721,,,,,x,1,0.733761524898,2018_Nov_14_1236,59.9858208501,spanish_cond1,001,1013,
images\panda.jpg,panda,z,sounds\greatgatsby_english.wav,,,,,,,,,0,1,1,0,0,45,45,83,673.954211126,8.98027792573e-06,674.595642478,0.641440653126,,,,,z,1,0.617089796113,2018_Nov_14_1236,59.9858208501,spanish_cond1,001,1013,
images\diaper01a.jpg,camera,x,sounds\greatgatsby_english.wav,,,,,,,,,0,1,1,0,0,46,46,143,675.716155551,9.94256697595e-06,676.379460467,0.663314537727,,,,,x,1,0.650429661619,2018_Nov_14_1236,59.9858208501,spanish_cond1,001,1013,
images\boxingglove02a.jpg,bracelet,x,sounds\greatgatsby_english.wav,,,,,,,,,0,1,1,0,0,47,47,135,677.490580095,9.30111855268e-06,678.213282,0.722711526556,,,,,x,1,0.700435450766,2018_Nov_14_1236,59.9858208501,spanish_cond1,001,1013,
images\ashtray02b.jpg,ashtray,z,sounds\greatgatsby_english.wav,,,,,,,,,0,1,1,0,0,48,48,43,679.326444337,9.62184276432e-06,680.597260545,1.27082615043,,,,,z,1,1.25058219919,2018_Nov_14_1236,59.9858208501,spanish_cond1,001,1013,
images\cockroach02.jpg,belt,x,sounds\greatgatsby_english.wav,,,,,,,,,0,1,1,0,0,49,49,129,681.696115582,9.30100213736e-06,682.397573831,0.701468511485,,,,,x,1,0.683600183344,2018_Nov_14_1236,59.9858208501,spanish_cond1,001,1013,
images\handfan01b.jpg,handfan,z,sounds\greatgatsby_english.wav,,,,,,,,,0,1,1,0,0,50,50,69,683.511940176,9.62184276432e-06,684.531644344,1.0197147521,,,,,z,1,1.00051925657,2018_Nov_14_1236,59.9858208501,spanish_cond1,001,1013,
images\thumbtack02a.jpg,thumb tack,z,sounds\greatgatsby_english.wav,,,,,,,,,0,1,1,0,0,51,51,60,685.642234131,8.98039434105e-06,686.282102903,0.639878393267,,,,,z,1,0.617077608476,2018_Nov_14_1236,59.9858208501,spanish_cond1,001,1013,
images\bus.jpg,microphone,x,sounds\greatgatsby_english.wav,,,,,,,,,0,1,1,0,0,52,52,203,687.400672051,9.30111855268e-06,688.349335887,0.948673778912,,,,,x,1,0.933832469629,2018_Nov_14_1236,59.9858208501,spanish_cond1,001,1013,
images\broadsword.jpg,teapot,x,sounds\greatgatsby_english.wav,,,,,,,,,0,1,1,0,0,53,53,231,689.441598707,9.30100213736e-06,690.383221309,0.941633185488,,,,,x,1,0.91715916933,2018_Nov_14_1236,59.9858208501,spanish_cond1,001,1013,
images\toothbrush03a.jpg,parrot,x,sounds\greatgatsby_english.wav,,,,,,,,,0,1,1,0,0,54,54,210,691.475623004,9.30111855268e-06,692.333744398,0.858131016255,,,,,x,1,0.833808703814,2018_Nov_14_1236,59.9858208501,spanish_cond1,001,1013,
images\broom02.jpg,broom,z,sounds\greatgatsby_english.wav,,,,,,,,,0,1,1,0,0,55,55,116,693.426985435,9.621726349e-06,694.484310529,1.05733567802,,,,,z,1,1.03384885879,2018_Nov_14_1236,59.9858208501,spanish_cond1,001,1013,
images\puzzle.jpg,puzzle,z,sounds\greatgatsby_english.wav,,,,,,,,,0,1,1,0,0,56,56,57,695.603408235,8.98039434105e-06,696.468178936,0.864780643722,,,,,z,1,0.850468533696,2018_Nov_14_1236,59.9858208501,spanish_cond1,001,1013,
images\mailbox01.jpg,mail box,z,sounds\greatgatsby_english.wav,,,,,,,,,0,1,1,0,0,57,57,73,697.588110531,9.30100213736e-06,698.352052443,0.763952174457,,,,,z,1,0.750479085604,2018_Nov_14_1236,59.9858208501,spanish_cond1,001,1013,
images\nametag01a.jpg,name tag,z,sounds\greatgatsby_english.wav,,,,,,,,,0,1,1,0,0,58,58,108,699.471904819,9.62184276432e-06,700.285899987,0.814005751861,,,,,z,1,0.800475573633,2018_Nov_14_1236,59.9858208501,spanish_cond1,001,1013,
images\screwdriver02b.jpg,cola,x,sounds\greatgatsby_english.wav,,,,,,,,,0,1,1,0,0,59,59,158,701.379364249,9.30100213736e-06,702.203061722,0.8237070943,,,,,x,1,0.800458254293,2018_Nov_14_1236,59.9858208501,spanish_cond1,001,1013,
images\hammer02a.jpg,flower,x,sounds\greatgatsby_english.wav,,,,,,,,,0,1,1,0,0,60,60,176,703.301397823,9.94245056063e-06,704.903788392,1.60240083199,,,,,x,1,1.58391125617,2018_Nov_14_1236,59.9858208501,spanish_cond1,001,1013,
images\blackolive.jpg,tank,x,sounds\greatgatsby_english.wav,,,,,,,,,0,1,1,0,0,61,61,229,706.018070386,8.98039434105e-06,706.804298957,0.786238192813,,,,,x,1,0.767126727733,2018_Nov_14_1236,59.9858208501,spanish_cond1,001,1013,
images\feather03b.jpg,feather,z,sounds\greatgatsby_english.wav,,,,,,,,,0,1,1,0,0,62,62,114,707.904796436,8.98039434105e-06,708.88818664,0.983400146011,,,,,z,1,0.967169127776,2018_Nov_14_1236,59.9858208501,spanish_cond1,001,1013,
images\envelope02a.jpg,grand piano,x,sounds\greatgatsby_english.wav,,,,,,,,,0,1,1,0,0,63,63,182,710.011329031,1.02632911876e-05,710.705648864,0.694330096478,,,,,x,1,0.684070368763,2018_Nov_14_1236,59.9858208501,spanish_cond1,001,1013,
images\pingpongpaddle01c (1).jpg,ping pong paddle,z,sounds\greatgatsby_english.wav,,,,,,,,,0,1,1,0,0,64,64,10,711.816953231,1.02632911876e-05,712.589175986,0.772233018186,,,,,z,1,0.750445088488,2018_Nov_14_1236,59.9858208501,spanish_cond1,001,1013,
images\battery03b.jpg,battery,z,sounds\greatgatsby_english.wav,,,,,,,,,0,1,1,0,0,65,65,34,713.698390497,9.30100213736e-06,714.539717356,0.841337122605,,,,,z,1,0.817142138723,2018_Nov_14_1236,59.9858208501,spanish_cond1,001,1013,
images\lion.jpg,lion,z,sounds\greatgatsby_english.wav,,,,,,,,,0,1,1,0,0,66,66,44,715.652024956,1.02631747723e-05,716.390218283,0.738204231719,,,,,z,1,0.717114844942,2018_Nov_14_1236,59.9858208501,spanish_cond1,001,1013,
images\apple06.jpg,apple,z,sounds\greatgatsby_english.wav,,,,,,,,,0,1,1,0,0,67,67,13,717.516930042,8.98039434105e-06,718.207358177,0.690438077436,,,,,z,1,0.66709526442,2018_Nov_14_1236,59.9858208501,spanish_cond1,001,1013,
images\peach01.jpg,peach,z,sounds\greatgatsby_english.wav,,,,,,,,,0,1,1,0,0,68,68,106,719.336286158,9.62184276432e-06,720.007838241,0.67156234663,,,,,z,1,0.650418756763,2018_Nov_14_1236,59.9858208501,spanish_cond1,001,1013,
images\atm.jpg,atm,z,sounds\greatgatsby_english.wav,,,,,,,,,0,1,1,0,0,69,69,96,721.144825764,8.98039434105e-06,721.908366766,0.763550624717,,,,,z,1,0.750463370001,2018_Nov_14_1236,59.9858208501,spanish_cond1,001,1013,
images\bullet (2).jpg,rubber glove,x,sounds\greatgatsby_english.wav,,,,,,,,,0,1,1,0,0,70,70,217,723.015342284,9.30111855268e-06,723.642151384,0.626819362515,,,,,x,1,0.616982352571,2018_Nov_14_1236,59.9858208501,spanish_cond1,001,1013,
images\chessknight02b (1).jpg,cockroach,x,sounds\greatgatsby_english.wav,,,,,,,,,0,1,1,0,0,71,71,155,724.751003474,9.62184276432e-06,725.525998911,0.775005380157,,,,,x,1,0.750446050661,2018_Nov_14_1236,59.9858208501,spanish_cond1,001,1013,
images\swallow.jpg,mattress,x,sounds\greatgatsby_english.wav,,,,,,,,,0,1,1,0,0,72,72,202,726.627652931,9.30111855268e-06,727.309807599,0.682164289756,,,,,x,1,0.667090453557,2018_Nov_14_1236,59.9858208501,spanish_cond1,001,1013,
images\highheelshoe02a.jpg,high heel shoe,z,sounds\greatgatsby_english.wav,,,,,,,,,0,1,1,0,0,73,73,75,728.415819013,9.62184276432e-06,729.176975412,0.761166662793,,,,,z,1,0.750445088488,2018_Nov_14_1236,59.9858208501,spanish_cond1,001,1013,
images\lightswitch02a.jpg,fork,x,sounds\greatgatsby_english.wav,,,,,,,,,0,1,1,0,0,74,74,177,730.288432124,9.30111855268e-06,731.110834823,0.822412961978,,,,,x,1,0.800469800481,2018_Nov_14_1236,59.9858208501,spanish_cond1,001,1013,
images\chameleon.jpg,50 dollar bill,x,sounds\greatgatsby_english.wav,,,,,,,,,0,1,1,0,0,75,75,120,732.223605232,9.62184276432e-06,733.011337049,0.787742080633,,,,,x,1,0.767103314749,2018_Nov_14_1236,59.9858208501,spanish_cond1,001,1013,
images\hat05.jpg,hat,z,sounds\greatgatsby_english.wav,,,,,,,,,0,1,1,0,0,76,76,15,734.115311206,9.621726349e-06,735.045234017,0.929932753206,,,,,z,1,0.917177771451,2018_Nov_14_1236,59.9858208501,spanish_cond1,001,1013,
images\umbrella01.jpg,umbrella,z,sounds\greatgatsby_english.wav,,,,,,,,,0,1,1,0,0,77,77,53,736.158205521,8.98027792573e-06,736.912416904,0.754221004434,,,,,z,1,0.733810275444,2018_Nov_14_1236,59.9858208501,spanish_cond1,001,1013,
images\flamingo.jpg,flamingo,z,sounds\greatgatsby_english.wav,,,,,,,,,0,1,1,0,0,78,78,52,738.010572757,8.98039434105e-06,738.612843053,0.602280238876,,,,,z,1,0.583734856569,2018_Nov_14_1236,59.9858208501,spanish_cond1,001,1013,
images\bench02.jpg,electric toothbrush,x,sounds\greatgatsby_english.wav,,,,,,,,,0,1,1,0,0,79,79,172,739.723111152,9.30111855268e-06,740.646722061,0.923620530288,,,,,x,1,0.900481378776,2018_Nov_14_1236,59.9858208501,spanish_cond1,001,1013,
images\computermouse02a.jpg,world map,x,sounds\greatgatsby_english.wav,,,,,,,,,0,1,1,0,0,80,80,239,741.748485769,9.30100213736e-06,742.830679052,1.08220354666,,,,,x,1,1.06723522965,2018_Nov_14_1236,59.9858208501,spanish_cond1,001,1013,
images\paintbrush03a.jpg,paint brush,z,sounds\greatgatsby_english.wav,,,,,,,,,0,1,1,0,0,81,81,0,743.9321246,9.30111855268e-06,744.547780427,0.615665769437,,,,,x,0,0.600415212801,2018_Nov_14_1236,59.9858208501,spanish_cond1,001,1013,
images\handbag02a.jpg,candle,x,sounds\greatgatsby_english.wav,,,,,,,,,0,1,1,0,0,82,82,144,745.664044191,9.94245056063e-06,747.031757079,1.36772379267,,,,,x,1,1.35059441894,2018_Nov_14_1236,59.9858208501,spanish_cond1,001,1013,
images\cupcake.jpg,scissors,x,sounds\greatgatsby_english.wav,,,,,,,,,0,1,1,0,0,83,83,219,748.152182914,9.30100213736e-06,748.982318014,0.830144721549,,,,,x,1,0.817153364187,2018_Nov_14_1236,59.9858208501,spanish_cond1,001,1013,
images\remotecontrol01c.jpg,remote control,z,sounds\greatgatsby_english.wav,,,,,,,,,0,1,1,0,0,84,84,85,750.091523866,8.98039434105e-06,750.866140525,0.774626922677,,,,,z,1,0.750452785986,2018_Nov_14_1236,59.9858208501,spanish_cond1,001,1013,
images\floorlamp.jpg,floor lamp,z,sounds\greatgatsby_english.wav,,,,,,,,,0,1,1,0,0,85,85,26,751.958291091,9.30111855268e-06,753.450161791,1.49188096297,,,,,z,1,1.48397536948,2018_Nov_14_1236,59.9858208501,spanish_cond1,001,1013,
images\leaf01a.jpg,leaf,z,sounds\greatgatsby_english.wav,,,,,,,,,0,1,1,0,0,86,86,68,754.553193332,9.30111855268e-06,755.53410528,0.980922211311,,,,,z,1,0.967213708907,2018_Nov_14_1236,59.9858208501,spanish_cond1,001,1013,
images\bowtie.jpg,bowtie,z,sounds\greatgatsby_english.wav,,,,,,,,,0,1,1,0,0,87,87,89,756.644914445,9.621726349e-06,757.96804375,1.32313924772,,,,,z,1,1.30059825163,2018_Nov_14_1236,59.9858208501,spanish_cond1,001,1013,
images\apricot.jpg,apricot,z,sounds\greatgatsby_english.wav,,,,,,,,,0,1,1,0,0,88,88,32,759.085285089,9.30100213736e-06,760.452051833,1.36677700735,,,,,z,1,1.35061270033,2018_Nov_14_1236,59.9858208501,spanish_cond1,001,1013,
images\toucan.jpg,toucan,z,sounds\greatgatsby_english.wav,,,,,,,,,0,1,1,0,0,89,89,81,761.552982614,9.30100213736e-06,762.2525242,0.699551527738,,,,,z,1,0.683757018647,2018_Nov_14_1236,59.9858208501,spanish_cond1,001,1013,
images\comb02a.jpg,diploma,x,sounds\greatgatsby_english.wav,,,,,,,,,0,1,1,0,0,90,90,166,763.357327435,9.30100213736e-06,764.253202857,0.895885685226,,,,,x,1,0.88395240542,2018_Nov_14_1236,59.9858208501,spanish_cond1,001,1013,
images\binder03b.jpg,dj mixer,x,sounds\greatgatsby_english.wav,,,,,,,,,0,1,1,0,0,91,91,167,765.366759367,9.30100213736e-06,766.203615296,0.836865550373,,,,,x,1,0.817157854326,2018_Nov_14_1236,59.9858208501,spanish_cond1,001,1013,
images\doll.jpg,carrot,x,sounds\greatgatsby_english.wav,,,,,,,,,0,1,1,0,0,92,92,146,767.314810295,9.62184276432e-06,768.037414699,0.722614667029,,,,,x,1,0.700436092098,2018_Nov_14_1236,59.9858208501,spanish_cond1,001,1013,
images\daisy.jpg,daisy,z,sounds\greatgatsby_english.wav,,,,,,,,,0,1,1,0,0,93,93,6,769.140577096,9.62184276432e-06,770.121312645,0.980745490873,,,,,z,1,0.967169127893,2018_Nov_14_1236,59.9858208501,spanish_cond1,001,1013,
images\candy.jpg,candy,z,sounds\greatgatsby_english.wav,,,,,,,,,0,1,1,0,0,94,94,31,771.223802479,9.30100213736e-06,771.888463748,0.664670891012,,,,,z,1,0.650433189585,2018_Nov_14_1236,59.9858208501,spanish_cond1,001,1013,
images\ruler02b.jpg,watermelon,x,sounds\greatgatsby_english.wav,,,,,,,,,0,1,1,0,0,95,95,238,772.990512903,9.30111855268e-06,773.655600418,0.66509745759,,,,,x,1,0.650410417933,2018_Nov_14_1236,59.9858208501,spanish_cond1,001,1013,
images\sportshorts02.jpg,tape,x,sounds\greatgatsby_english.wav,,,,,,,,,0,1,1,0,0,96,96,230,774.763226691,9.30111855268e-06,775.489430931,0.726214183262,,,,,x,1,0.717096563429,2018_Nov_14_1236,59.9858208501,spanish_cond1,001,1013,
images\dolphin01.jpg,dolphin,z,sounds\greatgatsby_english.wav,,,,,,,,,0,1,1,0,0,97,97,99,776.589100936,9.30100213736e-06,777.289740689,0.700650016894,,,,,z,1,0.683588637155,2018_Nov_14_1236,59.9858208501,spanish_cond1,001,1013,
images\barrel01.jpg,barrel,z,sounds\greatgatsby_english.wav,,,,,,,,,0,1,1,0,0,98,98,9,778.419682487,9.94256697595e-06,779.157072714,0.737400811282,,,,,z,1,0.717077961308,2018_Nov_14_1236,59.9858208501,spanish_cond1,001,1013,
images\nailclipper03a.jpg,aquarium,x,sounds\greatgatsby_english.wav,,,,,,,,,0,1,1,0,0,99,99,123,780.257304952,9.62184276432e-06,781.074255617,0.816960607423,,,,,x,1,0.800460499479,2018_Nov_14_1236,59.9858208501,spanish_cond1,001,1013,
images\plate01b.jpg,plate,z,sounds\greatgatsby_english.wav,,,,,,,,,0,1,1,0,0,100,100,3,782.173703999,8.98027792573e-06,783.308185684,1.1344913065,,,,,z,1,1.11718970246,2018_Nov_14_1236,59.9858208501,spanish_cond1,001,1013,
images\saltshaker03c.jpg,salt shaker,z,sounds\greatgatsby_english.wav,,,,,,,,,0,1,1,0,0,101,101,63,784.419834191,9.30111855268e-06,785.192056625,0.77223205613,,,,,z,1,0.750464011449,2018_Nov_14_1236,59.9858208501,spanish_cond1,001,1013,
images\cigar.jpg,crocodile,x,sounds\greatgatsby_english.wav,,,,,,,,,0,1,1,0,0,102,102,162,786.290446288,9.621726349e-06,787.092558851,0.802122826106,,,,,x,1,0.783805159735,2018_Nov_14_1236,59.9858208501,spanish_cond1,001,1013,
images\rhinoceros01.jpg,envelope,x,sounds\greatgatsby_english.wav,,,,,,,,,0,1,1,0,0,103,103,173,788.203584185,8.98039434105e-06,789.576537107,1.37296254328,,,,,x,1,1.35059826763,2018_Nov_14_1236,59.9858208501,spanish_cond1,001,1013,
images\birthdaycandle.jpg,birthday candle,z,sounds\greatgatsby_english.wav,,,,,,,,,0,1,1,0,0,104,104,55,790.672808049,9.30100213736e-06,791.893849391,1.22105160519,,,,,z,1,1.20058667334,2018_Nov_14_1236,59.9858208501,spanish_cond1,001,1013,
images\bottleofredwine02.jpg,pipe,x,sounds\greatgatsby_english.wav,,,,,,,,,0,1,1,0,0,105,105,213,792.99349053,9.621726349e-06,795.478133332,2.48465274437,,,,,x,1,2.46757051744,2018_Nov_14_1236,59.9858208501,spanish_cond1,001,1013,
images\cocktailshrimp01.jpg,cocktail shrimp,z,sounds\greatgatsby_english.wav,,,,,,,,,0,1,1,0,0,106,106,30,796.592507374,9.30111855268e-06,798.378911062,1.78641330975,,,,,z,1,1.7673820263,2018_Nov_14_1236,59.9858208501,spanish_cond1,001,1013,
images\treadmill.jpg,lily,x,sounds\greatgatsby_english.wav,,,,,,,,,0,1,1,0,0,107,107,199,799.48486282,8.98027792573e-06,800.279423551,0.794570352882,,,,,x,1,0.783794255112,2018_Nov_14_1236,59.9858208501,spanish_cond1,001,1013,
images\donut.jpg,rhinoceros,x,sounds\greatgatsby_english.wav,,,,,,,,,0,1,1,0,0,108,108,216,801.40532772,8.98027792573e-06,802.096415269,0.691097491537,,,,,x,1,0.666924317135,2018_Nov_14_1236,59.9858208501,spanish_cond1,001,1013,
images\calculator02b.jpg,dice,x,sounds\greatgatsby_english.wav,,,,,,,,,0,1,1,0,0,109,109,165,803.197944526,9.30111855268e-06,804.197140785,0.99920620129,,,,,x,1,0.983848201344,2018_Nov_14_1236,59.9858208501,spanish_cond1,001,1013,
images\flower01.jpg,bus,x,sounds\greatgatsby_english.wav,,,,,,,,,0,1,1,0,0,110,110,140,805.311477303,9.30111855268e-06,806.264380826,0.952913465793,,,,,x,1,0.933852996095,2018_Nov_14_1236,59.9858208501,spanish_cond1,001,1013,
images\fireextinguisher02.jpg,fire extinguisher,z,sounds\greatgatsby_english.wav,,,,,,,,,0,1,1,0,0,111,111,175,807.376918387,9.62184276432e-06,808.331593925,0.954685480916,,,,,z,1,0.933840167127,2018_Nov_14_1236,59.9858208501,spanish_cond1,001,1013,
images\straw.jpg,straw,z,sounds\greatgatsby_english.wav,,,,,,,,,0,1,1,0,0,112,112,109,809.422665566,9.62184276432e-06,810.615549346,1.19289404247,,,,,z,1,1.18389220501,2018_Nov_14_1236,59.9858208501,spanish_cond1,001,1013,
images\giraffe.jpg,lettuce,x,sounds\greatgatsby_english.wav,,,,,,,,,0,1,1,0,0,113,113,195,811.716421113,8.98039434105e-06,812.732766631,1.01635513944,,,,,x,1,1.00051893585,2018_Nov_14_1236,59.9858208501,spanish_cond1,001,1013,
images\tissuebox03.jpg,tissue box,z,sounds\greatgatsby_english.wav,,,,,,,,,0,1,1,0,0,114,114,58,813.858076172,9.30111855268e-06,814.599937651,0.741871100501,,,,,z,1,0.733784937882,2018_Nov_14_1236,59.9858208501,spanish_cond1,001,1013,
images\showerhead01.jpg,skateboard,x,sounds\greatgatsby_english.wav,,,,,,,,,0,1,1,0,0,115,115,223,815.707095983,9.30111855268e-06,816.483776519,0.776690799277,,,,,x,1,0.767123841215,2018_Nov_14_1236,59.9858208501,spanish_cond1,001,1013,
images\flashlight05.jpg,flash light,z,sounds\greatgatsby_english.wav,,,,,,,,,0,1,1,0,0,116,116,8,817.586037674,9.30111855268e-06,818.467640757,0.881612703903,,,,,z,1,0.867137343856,2018_Nov_14_1236,59.9858208501,spanish_cond1,001,1013,
images\marker01a.jpg,marker,z,sounds\greatgatsby_english.wav,,,,,,,,,0,1,1,0,0,117,117,95,819.566086226,9.62184276432e-06,820.384817887,0.81874192378,,,,,z,1,0.800463065272,2018_Nov_14_1236,59.9858208501,spanish_cond1,001,1013,
images\dice05a.jpg,band aid,x,sounds\greatgatsby_english.wav,,,,,,,,,0,1,1,0,0,118,118,126,821.497069359,9.621726349e-06,822.185305648,0.688246551552,,,,,x,1,0.667096547317,2018_Nov_14_1236,59.9858208501,spanish_cond1,001,1013,
images\key03b.jpg,cigar,x,sounds\greatgatsby_english.wav,,,,,,,,,0,1,1,0,0,119,119,153,823.286942669,9.62184276432e-06,824.119157682,0.832225275924,,,,,x,1,0.81711776345,2018_Nov_14_1236,59.9858208501,spanish_cond1,001,1013,
images\hanger02a.jpg,hanger,z,sounds\greatgatsby_english.wav,,,,,,,,,0,1,1,0,0,120,120,88,825.213795163,8.6595537141e-06,825.986330626,0.772545085289,,,,,z,1,0.75045310671,2018_Nov_14_1236,59.9858208501,spanish_cond1,001,1013,
images\table02.jpg,table,z,sounds\greatgatsby_english.wav,,,,,,,,,0,1,1,0,0,121,121,49,827.10104047,9.62184276432e-06,828.036883575,0.935853048111,,,,,z,1,0.917148585315,2018_Nov_14_1236,59.9858208501,spanish_cond1,001,1013,
images\lightbulb03b.jpg,treadmill,x,sounds\greatgatsby_english.wav,,,,,,,,,0,1,1,0,0,122,122,234,829.139477645,8.98039434105e-06,829.987420135,0.847952432348,,,,,x,1,0.833813193953,2018_Nov_14_1236,59.9858208501,spanish_cond1,001,1013,
images\bracelet02a.jpg,chess knight,x,sounds\greatgatsby_english.wav,,,,,,,,,0,1,1,0,0,123,123,152,831.095950216,9.62184276432e-06,831.871243608,0.775303335395,,,,,x,1,0.767119992641,2018_Nov_14_1236,59.9858208501,spanish_cond1,001,1013,
images\cake.jpg,cake,z,sounds\greatgatsby_english.wav,,,,,,,,,0,1,1,0,0,124,124,23,832.98504355,9.621726349e-06,833.805105585,0.820072618895,,,,,z,1,0.800469800597,2018_Nov_14_1236,59.9858208501,spanish_cond1,001,1013,
images\charcoalbarbecue.jpg,charcoal barbecue,z,sounds\greatgatsby_english.wav,,,,,,,,,0,1,1,0,0,125,125,77,834.922547699,9.621726349e-06,835.922330567,0.999793131254,,,,,z,1,0.983841145411,2018_Nov_14_1236,59.9858208501,spanish_cond1,001,1013,
images\notebook02b.jpg,notebook,z,sounds\greatgatsby_english.wav,,,,,,,,,0,1,1,0,0,126,126,7,837.028661425,1.02631747723e-05,838.139635763,1.11098460213,,,,,z,1,1.10058567906,2018_Nov_14_1236,59.9858208501,spanish_cond1,001,1013,
images\parrot01.jpg,chameleon,x,sounds\greatgatsby_english.wav,,,,,,,,,0,1,1,0,0,127,127,150,839.253362579,9.62184276432e-06,840.723627201,1.47027456458,,,,,x,1,1.4506422393,2018_Nov_14_1236,59.9858208501,spanish_cond1,001,1013,
images\desktopcomputer.jpg,desktop computer,z,sounds\greatgatsby_english.wav,,,,,,,,,0,1,1,0,0,128,128,16,841.859804568,8.98039434105e-06,842.65749014,0.797695835005,,,,,z,1,0.783804197563,2018_Nov_14_1236,59.9858208501,spanish_cond1,001,1013,
images\masquerademask02b.jpg,mirror,x,sounds\greatgatsby_english.wav,,,,,,,,,0,1,1,0,0,129,129,204,843.762426798,9.30111855268e-06,844.691352149,0.928935934557,,,,,x,1,0.917154037626,2018_Nov_14_1236,59.9858208501,spanish_cond1,001,1013,
images\parkingmeter.jpg,ear,x,sounds\greatgatsby_english.wav,,,,,,,,,0,1,1,0,0,130,130,171,845.793238375,9.30111855268e-06,846.825257487,1.03202905529,,,,,x,1,1.01717427548,2018_Nov_14_1236,59.9858208501,spanish_cond1,001,1013,
images\dreamcatcher.jpg,dream catcher,z,sounds\greatgatsby_english.wav,,,,,,,,,0,1,1,0,0,131,131,48,847.923577874,9.30111855268e-06,848.675759697,0.752192087122,,,,,z,1,0.733777561225,2018_Nov_14_1236,59.9858208501,spanish_cond1,001,1013,
images\tank.jpg,wallet,x,sounds\greatgatsby_english.wav,,,,,,,,,0,1,1,0,0,132,132,237,849.780387175,9.30100213736e-06,850.559613319,0.779236086644,,,,,x,1,0.76712833147,2018_Nov_14_1236,59.9858208501,spanish_cond1,001,1013,
images\dryingmachine01.jpg,drying machine,z,sounds\greatgatsby_english.wav,,,,,,,,,0,1,1,0,0,133,133,18,851.680509661,9.30111855268e-06,852.42678049,0.746281093336,,,,,z,1,0.733791031875,2018_Nov_14_1236,59.9858208501,spanish_cond1,001,1013,
images\camera01a.jpg,bull,x,sounds\greatgatsby_english.wav,,,,,,,,,0,1,1,0,0,134,134,138,853.537917117,9.30111855268e-06,854.277261212,0.739354678546,,,,,x,1,0.71708116855,2018_Nov_14_1236,59.9858208501,spanish_cond1,001,1013,
images\eyedrops.jpg,bicycle,x,sounds\greatgatsby_english.wav,,,,,,,,,0,1,1,0,0,135,135,131,855.377654776,8.98027792573e-06,856.594552969,1.21690781577,,,,,x,1,1.2005077746,2018_Nov_14_1236,59.9858208501,spanish_cond1,001,1013,
images\coin01b.jpg,arrow,x,sounds\greatgatsby_english.wav,,,,,,,,,0,1,1,0,0,136,136,124,857.697145115,9.30111855268e-06,858.828509977,1.13137544633,,,,,x,1,1.11722786888,2018_Nov_14_1236,59.9858208501,spanish_cond1,001,1013,
images\lemon02.jpg,lemon,z,sounds\greatgatsby_english.wav,,,,,,,,,0,1,1,0,0,137,137,14,859.941362813,9.62184276432e-06,860.729295405,0.787942855502,,,,,z,1,0.767420513439,2018_Nov_14_1236,59.9858208501,spanish_cond1,001,1013,
images\watermelon01.jpg,orange,x,sounds\greatgatsby_english.wav,,,,,,,,,0,1,1,0,0,138,138,207,861.858673044,3.88079788536e-05,862.946258065,1.0876007363,,,,,x,1,1.0671861585,2018_Nov_14_1236,59.9858208501,spanish_cond1,001,1013,
images\highlighter03b.jpg,coin,x,sounds\greatgatsby_english.wav,,,,,,,,,0,1,1,0,0,139,139,156,864.048694337,9.30100213736e-06,865.513631047,1.46494697256,,,,,x,1,1.45064961596,2018_Nov_14_1236,59.9858208501,spanish_cond1,001,1013,
images\tent.jpg,tent,z,sounds\greatgatsby_english.wav,,,,,,,,,0,1,1,0,0,140,140,11,866.641202995,9.94256697595e-06,868.080978691,1.43978692207,,,,,z,1,1.41729403497,2018_Nov_14_1236,59.9858208501,spanish_cond1,001,1013,
images\gorilla.jpg,gorilla,z,sounds\greatgatsby_english.wav,,,,,,,,,0,1,1,0,0,141,141,80,869.191894016,8.98039434105e-06,869.981493746,0.789609993109,,,,,z,1,0.767126727849,2018_Nov_14_1236,59.9858208501,spanish_cond1,001,1013,
images\carrot02.jpg,corkscrew,x,sounds\greatgatsby_english.wav,,,,,,,,,0,1,1,0,0,142,142,161,871.083552203,8.98039434105e-06,871.831982486,0.748439905001,,,,,x,1,0.733769863844,2018_Nov_14_1236,59.9858208501,spanish_cond1,001,1013,
images\diploma01.jpg,glasses,x,sounds\greatgatsby_english.wav,,,,,,,,,0,1,1,0,0,143,143,179,872.962957344,8.98039434105e-06,873.715830014,0.752882932546,,,,,x,1,0.733784937998,2018_Nov_14_1236,59.9858208501,spanish_cond1,001,1013,
images\wallet01.jpg,lamp,x,sounds\greatgatsby_english.wav,,,,,,,,,0,1,1,0,0,144,144,193,874.820970654,9.62184276432e-06,875.933081007,1.11212125781,,,,,x,1,1.10053468356,2018_Nov_14_1236,59.9858208501,spanish_cond1,001,1013,
images\grasshopper.jpg,cauliflower,x,sounds\greatgatsby_english.wav,,,,,,,,,0,1,1,0,0,145,145,148,877.026465409,9.621726349e-06,877.750252332,0.723797186511,,,,,x,1,0.700449241907,2018_Nov_14_1236,59.9858208501,spanish_cond1,001,1013,
images\pictureframe04.jpg,picture frame,z,sounds\greatgatsby_english.wav,,,,,,,,,0,1,1,0,0,146,146,41,878.87276706,9.62184276432e-06,879.850872008,0.978115210892,,,,,z,1,0.967241291306,2018_Nov_14_1236,59.9858208501,spanish_cond1,001,1013,
images\skateboard.jpg,key,x,sounds\greatgatsby_english.wav,,,,,,,,,0,1,1,0,0,147,147,189,880.942136726,9.621726349e-06,881.684630999,0.742504215101,,,,,x,1,0.733777240501,2018_Nov_14_1236,59.9858208501,spanish_cond1,001,1013,
images\50dollarbill.jpg,cherry,x,sounds\greatgatsby_english.wav,,,,,,,,,0,1,1,0,0,148,148,151,882.805225216,9.62184276432e-06,883.685175593,0.87996064045,,,,,x,1,0.867135098786,2018_Nov_14_1236,59.9858208501,spanish_cond1,001,1013,
images\safe.jpg,safe,z,sounds\greatgatsby_english.wav,,,,,,,,,0,1,1,0,0,149,149,78,884.796041847,9.30111855268e-06,885.802410518,1.00637861341,,,,,z,1,0.983825750416,2018_Nov_14_1236,59.9858208501,spanish_cond1,001,1013,
images\globe.jpg,cloud,x,sounds\greatgatsby_english.wav,,,,,,,,,0,1,1,0,0,150,150,154,886.929762447,9.62184276432e-06,887.636225957,0.706473131664,,,,,x,1,0.683757980936,2018_Nov_14_1236,59.9858208501,spanish_cond1,001,1013,
images\cola.jpg,comb,x,sounds\greatgatsby_english.wav,,,,,,,,,0,1,1,0,0,151,151,157,888.756924731,9.62184276432e-06,889.653442569,0.89652778022,,,,,x,1,0.883820265997,2018_Nov_14_1236,59.9858208501,spanish_cond1,001,1013,
images\cat.jpg,black olive,x,sounds\greatgatsby_english.wav,,,,,,,,,0,1,1,0,0,152,152,133,890.784050836,8.98039434105e-06,892.104138369,1.32009715459,,,,,x,1,1.30063545587,2018_Nov_14_1236,59.9858208501,spanish_cond1,001,1013,
images\mushroom01.jpg,shower head,x,sounds\greatgatsby_english.wav,,,,,,,,,0,1,1,0,0,153,153,222,893.22145508,9.94245056063e-06,893.987957032,0.766511894646,,,,,x,1,0.750453748158,2018_Nov_14_1236,59.9858208501,spanish_cond1,001,1013,
images\djmixer01.jpg,light bulb,x,sounds\greatgatsby_english.wav,,,,,,,,,0,1,1,0,0,154,154,196,895.10940823,8.98039434105e-06,895.821759,0.712360391626,,,,,x,1,0.700424546027,2018_Nov_14_1236,59.9858208501,spanish_cond1,001,1013,
images\sunglasses03a.jpg,sun glasses,z,sounds\greatgatsby_english.wav,,,,,,,,,0,1,1,0,0,155,155,17,896.930089589,8.6595537141e-06,897.62225061,0.692170643248,,,,,z,1,0.683746114024,2018_Nov_14_1236,59.9858208501,spanish_cond1,001,1013,
images\elbow.jpg,elbow,z,sounds\greatgatsby_english.wav,,,,,,,,,0,1,1,0,0,156,156,105,898.733650874,9.30111855268e-06,899.572773699,0.839132767753,,,,,z,1,0.817135724123,2018_Nov_14_1236,59.9858208501,spanish_cond1,001,1013,
images\squirrel.jpg,binder,x,sounds\greatgatsby_english.wav,,,,,,,,,0,1,1,0,0,157,157,132,900.6760166,9.62184276432e-06,901.873386704,1.19738036813,,,,,x,1,1.18389188428,2018_Nov_14_1236,59.9858208501,spanish_cond1,001,1013,
images\hairdryer03a.jpg,hairdryer,z,sounds\greatgatsby_english.wav,,,,,,,,,0,1,1,0,0,158,158,119,902.972643292,8.98027792573e-06,903.807269207,0.834635537351,,,,,z,1,0.817163627478,2018_Nov_14_1236,59.9858208501,spanish_cond1,001,1013,
images\stapler03a.jpg,candy cane,x,sounds\greatgatsby_english.wav,,,,,,,,,0,1,1,0,0,159,159,145,904.918335274,9.94256697595e-06,905.874466271,0.956141580362,,,,,x,1,0.933833431918,2018_Nov_14_1236,59.9858208501,spanish_cond1,001,1013,
images\cookingpot.jpg,grasshopper,x,sounds\greatgatsby_english.wav,,,,,,,,,0,1,1,0,0,160,160,183,906.988513172,9.30100213736e-06,907.891678071,0.903174841893,,,,,x,1,0.883793004206,2018_Nov_14_1236,59.9858208501,spanish_cond1,001,1013,
images\swan.jpg,swan,z,sounds\greatgatsby_english.wav,,,,,,,,,0,1,1,0,0,161,161,54,908.983388279,9.30111855268e-06,909.875574061,0.892196044908,,,,,z,1,0.883847848512,2018_Nov_14_1236,59.9858208501,spanish_cond1,001,1013,
images\razor04a.jpg,razor,z,sounds\greatgatsby_english.wav,,,,,,,,,0,1,1,0,0,162,162,36,910.975466008,8.6595537141e-06,911.892753789,0.917297081789,,,,,z,1,0.900495170034,2018_Nov_14_1236,59.9858208501,spanish_cond1,001,1013,
images\knife04.jpg,tooth brush,x,sounds\greatgatsby_english.wav,,,,,,,,,0,1,1,0,0,163,163,233,912.990042397,9.30111855268e-06,913.809933805,0.819901030161,,,,,x,1,0.800465310342,2018_Nov_14_1236,59.9858208501,spanish_cond1,001,1013,
images\dragonfly02.jpg,dragon fly,z,sounds\greatgatsby_english.wav,,,,,,,,,0,1,1,0,0,164,164,29,914.907035109,9.621726349e-06,915.793796439,0.886771593476,,,,,z,1,0.867136060959,2018_Nov_14_1236,59.9858208501,spanish_cond1,001,1013,
images\bat.jpg,hand,x,sounds\greatgatsby_english.wav,,,,,,,,,0,1,1,0,0,165,165,185,916.892014513,9.62184276432e-06,917.794341354,0.902336783009,,,,,x,1,0.883821869735,2018_Nov_14_1236,59.9858208501,spanish_cond1,001,1013,
images\icecube02 (2).jpg,aloe,x,sounds\greatgatsby_english.wav,,,,,,,,,0,1,1,0,0,166,166,122,918.904956158,8.98039434105e-06,920.2114901,1.30654420459,,,,,x,1,1.2837588148,2018_Nov_14_1236,59.9858208501,spanish_cond1,001,1013,
images\ostrich.jpg,ostrich,z,sounds\greatgatsby_english.wav,,,,,,,,,0,1,1,0,0,167,167,76,921.31185993,9.30111855268e-06,922.028804148,0.716953840107,,,,,z,1,0.700436412939,2018_Nov_14_1236,59.9858208501,spanish_cond1,001,1013,
images\lollipop03b.jpg,lollipop,z,sounds\greatgatsby_english.wav,,,,,,,,,0,1,1,0,0,168,168,42,923.122136592,8.98039434105e-06,924.112714923,0.990587953129,,,,,z,1,0.967192540993,2018_Nov_14_1236,59.9858208501,spanish_cond1,001,1013,
images\leek.jpg,donut,x,sounds\greatgatsby_english.wav,,,,,,,,,0,1,1,0,0,169,169,169,925.213914152,9.30100213736e-06,925.963195324,0.74929079297,,,,,x,1,0.73377948557,2018_Nov_14_1236,59.9858208501,spanish_cond1,001,1013,
images\weight01.jpg,weight,z,sounds\greatgatsby_english.wav,,,,,,,,,0,1,1,0,0,170,170,67,927.067521318,9.30111855268e-06,927.830377248,0.762866835226,,,,,z,1,0.750463690725,2018_Nov_14_1236,59.9858208501,spanish_cond1,001,1013,
images\ant.jpg,ant,z,sounds\greatgatsby_english.wav,,,,,,,,,0,1,1,0,0,171,171,98,928.924934227,8.98039434105e-06,929.747559189,0.822635225602,,,,,z,1,0.800468517584,2018_Nov_14_1236,59.9858208501,spanish_cond1,001,1013,
images\electricguitar02.jpg,electric guitar,z,sounds\greatgatsby_english.wav,,,,,,,,,0,1,1,0,0,172,172,100,930.849669924,9.62184276432e-06,932.248228706,1.39856936631,,,,,z,1,1.38395545236,2018_Nov_14_1236,59.9858208501,spanish_cond1,001,1013,
images\raisin.jpg,ruler,x,sounds\greatgatsby_english.wav,,,,,,,,,0,1,1,0,0,173,173,218,933.353339519,9.30100213736e-06,934.11573681,0.762407233706,,,,,x,1,0.750773192034,2018_Nov_14_1236,59.9858208501,spanish_cond1,001,1013,
images\lipstick04.jpg,lipstick,z,sounds\greatgatsby_english.wav,,,,,,,,,0,1,1,0,0,174,174,56,935.217110836,9.30111855268e-06,936.265973555,1.04887234082,,,,,z,1,1.03386265005,2018_Nov_14_1236,59.9858208501,spanish_cond1,001,1013,
images\scissors04a.jpg,leek,x,sounds\greatgatsby_english.wav,,,,,,,,,0,1,1,0,0,175,175,194,937.36011423,9.30100213736e-06,938.483230321,1.12312571297,,,,,x,1,1.10054013587,2018_Nov_14_1236,59.9858208501,spanish_cond1,001,1013,
images\bandaid01.jpg,door handle,x,sounds\greatgatsby_english.wav,,,,,,,,,0,1,1,0,0,176,176,170,939.590087812,9.94256697595e-06,940.567131475,0.977053605369,,,,,x,1,0.967184843495,2018_Nov_14_1236,59.9858208501,spanish_cond1,001,1013,
images\grandpiano.jpg,tulip,x,sounds\greatgatsby_english.wav,,,,,,,,,0,1,1,0,0,177,177,236,941.681584736,9.30111855268e-06,943.717974072,2.03639895713,,,,,x,1,2.01745234558,2018_Nov_14_1236,59.9858208501,spanish_cond1,001,1013,
images\gps.jpg,gps,z,sounds\greatgatsby_english.wav,,,,,,,,,0,1,1,0,0,178,178,21,944.836526863,8.98039434105e-06,946.468703324,1.63218640385,,,,,z,1,1.61733386922,2018_Nov_14_1236,59.9858208501,spanish_cond1,001,1013,
images\candycane01a.jpg,lip,x,sounds\greatgatsby_english.wav,,,,,,,,,0,1,1,0,0,179,179,200,947.562664713,9.30100213736e-06,948.802721302,1.24006717291,,,,,x,1,1.2172776137,2018_Nov_14_1236,59.9858208501,spanish_cond1,001,1013,
images\gluestick.jpg,squirrel,x,sounds\greatgatsby_english.wav,,,,,,,,,0,1,1,0,0,180,180,226,949.910646171,9.30111855268e-06,950.619824312,0.709188083536,,,,,x,1,0.700439940905,2018_Nov_14_1236,59.9858208501,spanish_cond1,001,1013,
images\flipflop01b.jpg,flip flop,z,sounds\greatgatsby_english.wav,,,,,,,,,0,1,1,0,0,181,181,27,951.736927098,8.98039434105e-06,953.120502489,1.38358533371,,,,,z,1,1.36728247267,2018_Nov_14_1236,59.9858208501,spanish_cond1,001,1013,
images\tie01.jpg,bench,x,sounds\greatgatsby_english.wav,,,,,,,,,0,1,1,0,0,182,182,130,954.219087795,9.30111855268e-06,955.821236857,1.60215932492,,,,,x,1,1.58401966188,2018_Nov_14_1236,59.9858208501,spanish_cond1,001,1013,
images\basketball01.jpg,basket ball,z,sounds\greatgatsby_english.wav,,,,,,,,,0,1,1,0,0,183,183,33,956.960740802,9.30111855268e-06,958.338559789,1.37782860943,,,,,z,1,1.3672802276,2018_Nov_14_1236,59.9858208501,spanish_cond1,001,1013,
images\candle08a.jpg,screw driver,x,sounds\greatgatsby_english.wav,,,,,,,,,0,1,1,0,0,184,184,221,959.452073322,9.30111855268e-06,960.672526451,1.22046307172,,,,,x,1,1.20057031629,2018_Nov_14_1236,59.9858208501,spanish_cond1,001,1013,
images\8ball.jpg,nail clipper,x,sounds\greatgatsby_english.wav,,,,,,,,,0,1,1,0,0,185,185,206,961.789037175,8.98027792573e-06,962.823097393,1.03407048096,,,,,x,1,1.01717555849,2018_Nov_14_1236,59.9858208501,spanish_cond1,001,1013,
images\ladybug03.jpg,giraffe,x,sounds\greatgatsby_english.wav,,,,,,,,,0,1,1,0,0,186,186,178,963.925449314,9.62184276432e-06,964.673619167,0.748180116294,,,,,x,1,0.733793276828,2018_Nov_14_1236,59.9858208501,spanish_cond1,001,1013,
images\ladder.jpg,ladder,z,sounds\greatgatsby_english.wav,,,,,,,,,0,1,1,0,0,187,187,113,965.767689603,9.30111855268e-06,966.57411113,0.806431469275,,,,,z,1,0.783786557731,2018_Nov_14_1236,59.9858208501,spanish_cond1,001,1013,
images\beermug01b.jpg,beer mug,z,sounds\greatgatsby_english.wav,,,,,,,,,0,1,1,0,0,188,188,111,967.69082295,9.30111855268e-06,968.54130784,0.850494191749,,,,,z,1,0.833804534283,2018_Nov_14_1236,59.9858208501,spanish_cond1,001,1013,
images\arrow02.jpg,hammer,x,sounds\greatgatsby_english.wav,,,,,,,,,0,1,1,0,0,189,189,184,969.638347885,9.62184276432e-06,970.458487536,0.820149914129,,,,,x,1,0.800462423824,2018_Nov_14_1236,59.9858208501,spanish_cond1,001,1013,
images\axe01.jpg,axe,z,sounds\greatgatsby_english.wav,,,,,,,,,0,1,1,0,0,190,190,104,971.561494381,9.94256697595e-06,972.242297186,0.680813067942,,,,,z,1,0.667091095005,2018_Nov_14_1236,59.9858208501,spanish_cond1,001,1013,
images\graduationcap.jpg,graduation cap,z,sounds\greatgatsby_english.wav,,,,,,,,,0,1,1,0,0,191,191,35,973.344661936,9.621726349e-06,974.14280743,0.798155436292,,,,,x,0,0.783785274718,2018_Nov_14_1236,59.9858208501,spanish_cond1,001,1013,
images\ear.jpg,bullet,x,sounds\greatgatsby_english.wav,,,,,,,,,0,1,1,0,0,192,192,139,975.246884541,9.62184276432e-06,975.92662125,0.679747934453,,,,,x,1,0.66708917066,2018_Nov_14_1236,59.9858208501,spanish_cond1,001,1013,
images\mitten01.jpg,mitten,z,sounds\greatgatsby_english.wav,,,,,,,,,0,1,1,0,0,193,193,102,977.046814879,9.62184276432e-06,977.860491244,0.813686628826,,,,,z,1,0.800481346669,2018_Nov_14_1236,59.9858208501,spanish_cond1,001,1013,
images\nailpolish02b.jpg,nail polish,z,sounds\greatgatsby_english.wav,,,,,,,,,0,1,1,0,0,194,194,94,978.969000798,9.621726349e-06,979.794360918,0.825370062492,,,,,z,1,0.817164910259,2018_Nov_14_1236,59.9858208501,spanish_cond1,001,1013,
images\computerkeyboard01a.jpg,computer keyboard,z,sounds\greatgatsby_english.wav,,,,,,,,,0,1,1,0,0,195,195,61,980.912676051,9.62184276432e-06,981.51146133,0.598795542726,,,,,z,1,0.583740950213,2018_Nov_14_1236,59.9858208501,spanish_cond1,001,1013,
images\redfox.jpg,red fox,z,sounds\greatgatsby_english.wav,,,,,,,,,0,1,1,0,0,196,196,1,982.624385367,9.62184276432e-06,983.228594457,0.60421935271,,,,,z,1,0.583734535729,2018_Nov_14_1236,59.9858208501,spanish_cond1,001,1013,
images\aquarium.jpg,computer mouse,x,sounds\greatgatsby_english.wav,,,,,,,,,0,1,1,0,0,197,197,159,984.364398177,8.98027792573e-06,985.279148047,0.914760133252,,,,,x,1,0.900495811482,2018_Nov_14_1236,59.9858208501,spanish_cond1,001,1013,
images\sock03.jpg,sock,z,sounds\greatgatsby_english.wav,,,,,,,,,0,1,1,0,0,198,198,90,986.386392334,9.621726349e-06,987.363030278,0.976648206706,,,,,z,1,0.967168486444,2018_Nov_14_1236,59.9858208501,spanish_cond1,001,1013,
images\gamecontroller01.jpg,game controller,z,sounds\greatgatsby_english.wav,,,,,,,,,0,1,1,0,0,199,199,112,988.48342821,8.98027792573e-06,989.130178494,0.646759906202,,,,,z,1,0.633748984546,2018_Nov_14_1236,59.9858208501,spanish_cond1,001,1013,
images\pipe.jpg,icecube,x,sounds\greatgatsby_english.wav,,,,,,,,,0,1,1,0,0,200,200,188,990.239222379,9.30111855268e-06,991.014021211,0.774808774702,,,,,x,1,0.750448616454,2018_Nov_14_1236,59.9858208501,spanish_cond1,001,1013,
images\baseball01a.jpg,baseball,z,sounds\greatgatsby_english.wav,,,,,,,,,0,1,1,0,0,201,201,74,992.147633726,9.30100213736e-06,993.047902784,0.900278679444,,,,,z,1,0.883817700204,2018_Nov_14_1236,59.9858208501,spanish_cond1,001,1013,
images\honeycomb.jpg,honey comb,z,sounds\greatgatsby_english.wav,,,,,,,,,0,1,1,0,0,202,202,59,994.159936163,1.02632911876e-05,994.898402107,0.738476528786,,,,,z,1,0.717117089895,2018_Nov_14_1236,59.9858208501,spanish_cond1,001,1013,
images\scooter.jpg,pen,x,sounds\greatgatsby_english.wav,,,,,,,,,0,1,1,0,0,203,203,212,995.991307343,9.30111855268e-06,996.81557603,0.824278950109,,,,,x,1,0.8004621031,2018_Nov_14_1236,59.9858208501,spanish_cond1,001,1013,
images\plant01.jpg,plant,z,sounds\greatgatsby_english.wav,,,,,,,,,0,1,1,0,0,204,204,47,997.927259496,9.62184276432e-06,999.03284306,1.10559414793,,,,,x,0,1.08387581585,2018_Nov_14_1236,59.9858208501,spanish_cond1,001,1013,
images\lantern03.jpg,lantern,z,sounds\greatgatsby_english.wav,,,,,,,,,0,1,1,0,0,205,205,5,1000.13955141,9.30111855268e-06,1001.60019904,1.46065757319,,,,,z,1,1.45063903194,2018_Nov_14_1236,59.9858208501,spanish_cond1,001,1013,
images\lily.jpg,kiwi,x,sounds\greatgatsby_english.wav,,,,,,,,,0,1,1,0,0,206,206,190,1002.69958296,9.30111855268e-06,1003.60073402,0.901160998736,,,,,x,1,0.883821869618,2018_Nov_14_1236,59.9858208501,spanish_cond1,001,1013,
images\headphones02b.jpg,headphones,z,sounds\greatgatsby_english.wav,,,,,,,,,0,1,1,0,0,207,207,101,1004.70863836,8.98039434105e-06,1005.6846124,0.975983981625,,,,,z,1,0.967168486444,2018_Nov_14_1236,59.9858208501,spanish_cond1,001,1013,
images\volleyball.jpg,volley ball,z,sounds\greatgatsby_english.wav,,,,,,,,,0,1,1,0,0,208,208,2,1006.81757544,8.98039434105e-06,1007.65183188,0.834266380873,,,,,z,1,0.817145345965,2018_Nov_14_1236,59.9858208501,spanish_cond1,001,1013,
images\aloe02.jpg,broad sword,x,sounds\greatgatsby_english.wav,,,,,,,,,0,1,1,0,0,209,209,137,1008.77307877,8.98027792573e-06,1009.58567525,0.812605779618,,,,,x,1,0.800460178754,2018_Nov_14_1236,59.9858208501,spanish_cond1,001,1013,
images\bowl02b (1).jpg,bowl,z,sounds\greatgatsby_english.wav,,,,,,,,,0,1,1,0,0,210,210,24,1010.70411739,9.94245056063e-06,1011.58621087,0.882104057237,,,,,z,1,0.867148248479,2018_Nov_14_1236,59.9858208501,spanish_cond1,001,1013,
images\banana04a.jpg,banana,z,sounds\greatgatsby_english.wav,,,,,,,,,0,1,1,0,0,211,211,118,1012.69392919,9.30111855268e-06,1013.82013612,1.12621687737,,,,,z,1,1.11718553305,2018_Nov_14_1236,59.9858208501,spanish_cond1,001,1013,
images\antelope.jpg,antelope,z,sounds\greatgatsby_english.wav,,,,,,,,,0,1,1,0,0,212,212,12,1014.92427866,1.02632911876e-05,1015.67064667,0.74637827347,,,,,z,1,0.733780447859,2018_Nov_14_1236,59.9858208501,spanish_cond1,001,1013,
images\button07.jpg,radish,x,sounds\greatgatsby_english.wav,,,,,,,,,0,1,1,0,0,213,213,215,1016.78314895,9.94245056063e-06,1017.67118036,0.888042312814,,,,,x,1,0.86715017294,2018_Nov_14_1236,59.9858208501,spanish_cond1,001,1013,
