images,name,corrAns,sounds,trials_3.thisRepN,trials_3.thisTrialN,trials_3.thisN,trials_3.thisIndex,trials_4.thisRepN,trials_4.thisTrialN,trials_4.thisN,trials_4.thisIndex,trials_2.thisRepN,trials_2.thisTrialN,trials_2.thisN,trials_2.thisIndex,trials.thisRepN,trials.thisTrialN,trials.thisN,trials.thisIndex,begin_global,begin_routine,end_global,end_routine,key_resp_2.keys,key_resp_2.corr,begin_book,key_resp_1.keys,key_resp_1.corr,key_resp_1.rt,date,frameRate,expName,session,participant,
images/volleyball.jpg,volley ball,z,,0,0,0,0,,,,,,,,,,,,,,,,,,,,,,,2018_Nov_14_1236,59.9860135434,chinese_cond2,001,1016,
images/puma.jpg,puma,z,,,,,,0,0,0,0,,,,,,,,,48.1749069197,1.05836661533e-05,51.0124688623,2.83757316775,None,0,,,,,2018_Nov_14_1236,59.9860135434,chinese_cond2,001,1016,
images/banana04a.jpg,banana,z,sounds/greatgatsby_chinese.wav,,,,,,,,,0,0,0,0,0,0,0,118,93.1984604268,8.98016151041e-06,96.0066250653,2.80817522225,,,83.0088627127,None,0,,2018_Nov_14_1236,59.9860135434,chinese_cond2,001,1016,
images/charcoalbarbecue.jpg,charcoal barbecue,z,sounds/greatgatsby_chinese.wav,,,,,,,,,0,0,0,0,0,1,1,77,97.1307902773,8.98004509509e-06,98.9242429539,1.79346229811,,,,z,1,1.78402742522,2018_Nov_14_1236,59.9860135434,chinese_cond2,001,1016,
images/cocktailshrimp01.jpg,cocktail shrimp,z,sounds/greatgatsby_chinese.wav,,,,,,,,,0,0,0,0,0,2,2,30,100.041037753,9.62149351835e-06,101.624871593,1.58384410304,,,,z,1,1.56722868164,2018_Nov_14_1236,59.9860135434,chinese_cond2,001,1016,
images/gamecontroller01.jpg,game controller,z,sounds/greatgatsby_chinese.wav,,,,,,,,,0,0,0,0,0,3,3,112,102.745494157,8.65943729877e-06,103.808732309,1.06324745261,,,,z,1,1.05048577499,2018_Nov_14_1236,59.9860135434,chinese_cond2,001,1016,
images/camera01a.jpg,bull,x,sounds/greatgatsby_chinese.wav,,,,,,,,,0,0,0,0,0,4,4,138,104.920062078,9.62149351835e-06,106.225973514,1.30592201999,,,,x,1,1.2838893563,2018_Nov_14_1236,59.9860135434,chinese_cond2,001,1016,
images/radish01.jpg,raisin,x,sounds/greatgatsby_chinese.wav,,,,,,,,,0,0,0,0,0,5,5,214,107.337202578,9.30076930672e-06,109.093338148,1.75614551222,,,,z,0,1.73400380439,2018_Nov_14_1236,59.9860135434,chinese_cond2,001,1016,
images/saltshaker03c.jpg,salt shaker,z,sounds/greatgatsby_chinese.wav,,,,,,,,,0,0,0,0,0,6,6,63,110.207284974,9.30076930672e-06,111.560604258,1.3533289053,,,,z,1,1.33391586354,2018_Nov_14_1236,59.9860135434,chinese_cond2,001,1016,
images/comb02a.jpg,diploma,x,sounds/greatgatsby_chinese.wav,,,,,,,,,0,0,0,0,0,7,7,166,112.665239687,9.62160993367e-06,114.094557196,1.42932745186,,,,x,1,1.41724409221,2018_Nov_14_1236,59.9860135434,chinese_cond2,001,1016,
images/lipstick04.jpg,lipstick,z,sounds/greatgatsby_chinese.wav,,,,,,,,,0,0,0,0,0,8,8,56,115.19538282,8.98004509509e-06,116.228386594,1.03301371681,,,,z,1,1.01715486846,2018_Nov_14_1236,59.9860135434,chinese_cond2,001,1016,
images/scissors04a.jpg,leek,x,sounds/greatgatsby_chinese.wav,,,,,,,,,0,0,0,0,0,9,9,194,117.323148409,8.98016151041e-06,118.612289517,1.28915105073,,,,x,1,1.26721267775,2018_Nov_14_1236,59.9860135434,chinese_cond2,001,1016,
images/bicycle.jpg,hand bag,x,sounds/greatgatsby_chinese.wav,,,,,,,,,0,0,0,0,0,10,10,186,119.722692091,8.65932088345e-06,121.646362564,1.92368105648,,,,x,1,1.90071446274,2018_Nov_14_1236,59.9860135434,chinese_cond2,001,1016,
images/lock02a.jpg,lock,z,sounds/greatgatsby_chinese.wav,,,,,,,,,0,0,0,0,0,11,11,65,122.757693937,9.62160993367e-06,124.046945693,1.28926201898,,,,z,1,1.26722743083,2018_Nov_14_1236,59.9860135434,chinese_cond2,001,1016,
images/atm.jpg,atm,z,sounds/greatgatsby_chinese.wav,,,,,,,,,0,0,0,0,0,12,12,96,125.186780209,9.62149351835e-06,126.430854709,1.24408508383,,,,z,1,1.23388914776,2018_Nov_14_1236,59.9860135434,chinese_cond2,001,1016,
images/flamingo.jpg,flamingo,z,sounds/greatgatsby_chinese.wav,,,,,,,,,0,0,0,0,0,13,13,52,127.529080916,8.98016151041e-06,128.898109915,1.36903926136,,,,z,1,1.35057971335,2018_Nov_14_1236,59.9860135434,chinese_cond2,001,1016,
images/elbow.jpg,elbow,z,sounds/greatgatsby_chinese.wav,,,,,,,,,0,0,0,0,0,14,14,105,130.009349241,9.30076930672e-06,131.232013911,1.22267525375,,,,z,1,1.20055471337,2018_Nov_14_1236,59.9860135434,chinese_cond2,001,1016,
images/djmixer01.jpg,light bulb,x,sounds/greatgatsby_chinese.wav,,,,,,,,,0,0,0,0,0,15,15,196,132.355713762,9.62160993367e-06,133.999339001,1.64363550185,,,,x,1,1.63393699878,2018_Nov_14_1236,59.9860135434,chinese_cond2,001,1016,
images/parkbench03.jpg,park bench,z,sounds/greatgatsby_chinese.wav,,,,,,,,,0,0,0,0,0,16,16,71,135.104992067,8.98004509509e-06,136.533272696,1.42829025071,,,,z,1,1.41725627938,2018_Nov_14_1236,59.9860135434,chinese_cond2,001,1016,
images/dice05a.jpg,band aid,x,sounds/greatgatsby_chinese.wav,,,,,,,,,0,0,0,0,0,17,17,126,137.648141906,9.30088572204e-06,138.783637432,1.13550643087,,,,x,1,1.11700775521,2018_Nov_14_1236,59.9860135434,chinese_cond2,001,1016,
images/broom02.jpg,broom,z,sounds/greatgatsby_chinese.wav,,,,,,,,,0,0,0,0,0,18,18,116,139.87736397,8.98004509509e-06,141.017686939,1.14033291128,,,,x,0,1.11719248863,2018_Nov_14_1236,59.9860135434,chinese_cond2,001,1016,
images/skateboard.jpg,key,x,sounds/greatgatsby_chinese.wav,,,,,,,,,0,0,0,0,0,19,19,189,142.112076079,8.98016151041e-06,143.101532165,0.989466027473,,,,x,1,0.967078649905,2018_Nov_14_1236,59.9860135434,chinese_cond2,001,1016,
images/headphones02b.jpg,headphones,z,sounds/greatgatsby_chinese.wav,,,,,,,,,0,0,0,0,0,20,20,101,144.209389844,8.98004509509e-06,145.418739278,1.20935937599,,,,z,1,1.20053707378,2018_Nov_14_1236,59.9860135434,chinese_cond2,001,1016,
images/weight01.jpg,weight,z,sounds/greatgatsby_chinese.wav,,,,,,,,,0,0,0,0,0,21,21,67,146.523662711,9.62149351835e-06,147.919355537,1.39570276777,,,,z,1,1.38391831703,2018_Nov_14_1236,59.9860135434,chinese_cond2,001,1016,
images/hairband.jpg,hairband,z,sounds/greatgatsby_chinese.wav,,,,,,,,,0,0,0,0,0,22,22,66,149.028870686,8.98016151041e-06,150.253250554,1.22438981058,,,,z,1,1.20055375108,2018_Nov_14_1236,59.9860135434,chinese_cond2,001,1016,
images/feather03b.jpg,feather,z,sounds/greatgatsby_chinese.wav,,,,,,,,,0,0,0,0,0,23,23,114,151.353983811,8.98016151041e-06,152.22039431,0.866420761799,,,,z,1,0.850461849477,2018_Nov_14_1236,59.9860135434,chinese_cond2,001,1016,
images/safe.jpg,safe,z,sounds/greatgatsby_chinese.wav,,,,,,,,,0,0,0,0,0,24,24,78,153.333009195,9.30076930672e-06,154.520950723,1.18795243243,,,,x,0,1.1672151474,2018_Nov_14_1236,59.9860135434,chinese_cond2,001,1016,
images/8ball.jpg,nail clipper,x,sounds/greatgatsby_chinese.wav,,,,,,,,,0,0,0,0,0,25,25,206,155.639451098,9.30088572204e-06,157.371608531,1.73216801637,,,,x,1,1.71732135303,2018_Nov_14_1236,59.9860135434,chinese_cond2,001,1016,
images/grandpiano.jpg,tulip,x,sounds/greatgatsby_chinese.wav,,,,,,,,,0,0,0,0,0,26,26,236,158.486555675,9.30076930672e-06,159.772188452,1.28564271983,,,,x,1,1.26721524354,2018_Nov_14_1236,59.9860135434,chinese_cond2,001,1016,
images/parkingmeter.jpg,ear,x,sounds/greatgatsby_chinese.wav,,,,,,,,,0,0,0,0,0,27,27,171,160.875688861,9.30088572204e-06,162.056079092,1.18040017236,,,,x,1,1.16718532052,2018_Nov_14_1236,59.9860135434,chinese_cond2,001,1016,
images/cookingpot.jpg,grasshopper,x,sounds/greatgatsby_chinese.wav,,,,,,,,,0,0,0,0,0,28,28,183,163.170355936,9.62149351835e-06,164.806747708,1.63640203502,,,,x,1,1.61731644603,2018_Nov_14_1236,59.9860135434,chinese_cond2,001,1016,
images/candy.jpg,candy,z,sounds/greatgatsby_chinese.wav,,,,,,,,,0,0,0,0,0,29,29,31,165.909008543,8.98004509509e-06,166.907240426,0.998241825611,,,,z,1,0.983806643169,2018_Nov_14_1236,59.9860135434,chinese_cond2,001,1016,
images/toothbrush03a.jpg,parrot,x,sounds/greatgatsby_chinese.wav,,,,,,,,,0,0,0,0,0,30,30,210,168.000573443,9.30076930672e-06,169.557884251,1.55732075009,,,,x,1,1.53395806998,2018_Nov_14_1236,59.9860135434,chinese_cond2,001,1016,
images/giraffe.jpg,lettuce,x,sounds/greatgatsby_chinese.wav,,,,,,,,,0,0,0,0,0,31,31,195,170.660488575,9.30088572204e-06,172.124986891,1.46450857876,,,,x,1,1.45041945064,2018_Nov_14_1236,59.9860135434,chinese_cond2,001,1016,
images/cauliflower01.jpg,glue stick,x,sounds/greatgatsby_chinese.wav,,,,,,,,,0,0,0,0,0,32,32,181,173.243510037,9.30076930672e-06,174.492428016,1.24892824166,,,,x,1,1.23391031509,2018_Nov_14_1236,59.9860135434,chinese_cond2,001,1016,
images/bat.jpg,hand,x,sounds/greatgatsby_chinese.wav,,,,,,,,,0,0,0,0,0,33,33,185,175.5909124,8.65932088345e-06,177.32642037,1.73551759182,,,,x,1,1.71733225742,2018_Nov_14_1236,59.9860135434,chinese_cond2,001,1016,
images/ear.jpg,bullet,x,sounds/greatgatsby_chinese.wav,,,,,,,,,0,0,0,0,0,34,34,139,178.430116097,8.98004509509e-06,179.877035555,1.44692972139,,,,x,1,1.43393776857,2018_Nov_14_1236,59.9860135434,chinese_cond2,001,1016,
images/aloe02.jpg,broad sword,x,sounds/greatgatsby_chinese.wav,,,,,,,,,0,0,0,0,0,35,35,137,180.999680886,9.30076930672e-06,182.410975344,1.41130472126,,,,x,1,1.40058826038,2018_Nov_14_1236,59.9860135434,chinese_cond2,001,1016,
images/paintbrush03a.jpg,paint brush,z,sounds/greatgatsby_chinese.wav,,,,,,,,,0,0,0,0,0,36,36,0,183.51123907,9.30088572204e-06,184.628191341,1.11696285487,,,,z,1,1.10053377051,2018_Nov_14_1236,59.9860135434,chinese_cond2,001,1016,
images/coin01b.jpg,arrow,x,sounds/greatgatsby_chinese.wav,,,,,,,,,0,0,0,0,0,37,37,124,185.731377127,9.30076930672e-06,186.878724134,1.14735662867,,,,x,1,1.1338640356,2018_Nov_14_1236,59.9860135434,chinese_cond2,001,1016,
images/antelope.jpg,antelope,z,sounds/greatgatsby_chinese.wav,,,,,,,,,0,0,0,0,0,38,38,12,187.985335504,9.62149351835e-06,189.245949736,1.26062417438,,,,z,1,1.25054946949,2018_Nov_14_1236,59.9860135434,chinese_cond2,001,1016,
images/table02.jpg,table,z,sounds/greatgatsby_chinese.wav,,,,,,,,,0,0,0,0,0,39,39,49,190.363055631,9.30076930672e-06,191.279784491,0.916739122127,,,,z,1,0.900474566035,2018_Nov_14_1236,59.9860135434,chinese_cond2,001,1016,
images/tape01a.jpg,tie,x,sounds/greatgatsby_chinese.wav,,,,,,,,,0,0,0,0,0,40,40,232,192.406018332,9.30088572204e-06,193.897081694,1.49107330421,,,,z,0,1.4672728444,2018_Nov_14_1236,59.9860135434,chinese_cond2,001,1016,
images/dolphin01.jpg,dolphin,z,sounds/greatgatsby_chinese.wav,,,,,,,,,0,0,0,0,0,41,41,99,194.997492629,9.62149351835e-06,195.8642123,0.86673025426,,,,z,1,0.850461208029,2018_Nov_14_1236,59.9860135434,chinese_cond2,001,1016,
images/ostrich.jpg,ostrich,z,sounds/greatgatsby_chinese.wav,,,,,,,,,0,0,0,0,0,42,42,76,196.964707905,9.30088572204e-06,198.631547973,1.66685065173,,,,z,1,1.65064446616,2018_Nov_14_1236,59.9860135434,chinese_cond2,001,1016,
images/bottleofredwine02.jpg,pipe,x,sounds/greatgatsby_chinese.wav,,,,,,,,,0,0,0,0,0,43,43,213,199.730856602,8.98016151041e-06,201.265507101,1.5346604418,,,,x,1,1.51727465657,2018_Nov_14_1236,59.9860135434,chinese_cond2,001,1016,
images/medal01.jpg,medal,z,sounds/greatgatsby_chinese.wav,,,,,,,,,0,0,0,0,0,44,44,115,202.367092184,9.30076930672e-06,203.732783153,1.36570059007,,,,z,1,1.35058805195,2018_Nov_14_1236,59.9860135434,chinese_cond2,001,1016,
images/diploma01.jpg,glasses,x,sounds/greatgatsby_chinese.wav,,,,,,,,,0,0,0,0,0,45,45,179,204.864209093,9.30076930672e-06,206.250095654,1.38589746587,,,,x,1,1.36730097141,2018_Nov_14_1236,59.9860135434,chinese_cond2,001,1016,
images/highlighter03b.jpg,coin,x,sounds/greatgatsby_chinese.wav,,,,,,,,,0,0,0,0,0,46,46,156,207.352085483,8.98016151041e-06,208.58393198,1.23185643903,,,,x,1,1.21719996131,2018_Nov_14_1236,59.9860135434,chinese_cond2,001,1016,
images/envelope02a.jpg,grand piano,x,sounds/greatgatsby_chinese.wav,,,,,,,,,0,0,0,0,0,47,47,182,209.707282248,9.30076930672e-06,210.851190199,1.14391821437,,,,x,1,1.13388295798,2018_Nov_14_1236,59.9860135434,chinese_cond2,001,1016,
images/corn01.jpg,corn,z,sounds/greatgatsby_chinese.wav,,,,,,,,,0,0,0,0,0,48,48,22,211.952734231,9.30076930672e-06,213.351745843,1.39902155451,,,,z,1,1.38390645059,2018_Nov_14_1236,59.9860135434,chinese_cond2,001,1016,
images/showerhead01.jpg,skateboard,x,sounds/greatgatsby_chinese.wav,,,,,,,,,0,0,0,0,0,49,49,223,214.460438671,8.98004509509e-06,216.4358377,1.97540865035,,,,x,1,1.96740481979,2018_Nov_14_1236,59.9860135434,chinese_cond2,001,1016,
images/rhinoceros01.jpg,envelope,x,sounds/greatgatsby_chinese.wav,,,,,,,,,0,0,0,0,0,50,50,173,217.550461561,9.30088572204e-06,219.119823336,1.56937203801,,,,x,1,1.55063218274,2018_Nov_14_1236,59.9860135434,chinese_cond2,001,1016,
images/printer03a.jpg,printer,z,sounds/greatgatsby_chinese.wav,,,,,,,,,0,0,0,0,0,51,51,72,220.231654387,9.30076930672e-06,221.15361351,0.921969386167,,,,z,1,0.900462378748,2018_Nov_14_1236,59.9860135434,chinese_cond2,001,1016,
images/computerkeyboard01a.jpg,computer keyboard,z,sounds/greatgatsby_chinese.wav,,,,,,,,,0,0,0,0,0,52,52,61,222.271085985,9.30088572204e-06,223.387504262,1.11642885988,,,,z,1,1.10052222467,2018_Nov_14_1236,59.9860135434,chinese_cond2,001,1016,
images/puma.jpg,puma,z,sounds/greatgatsby_chinese.wav,,,,,,,,,0,0,0,0,0,53,53,4,224.485713149,1.02629419416e-05,225.971452598,1.48574906983,,,,z,1,1.4672645058,2018_Nov_14_1236,59.9860135434,chinese_cond2,001,1016,
images/highheelshoe02a.jpg,high heel shoe,z,sounds/greatgatsby_chinese.wav,,,,,,,,,0,0,0,0,0,54,54,75,227.079003992,8.98016151041e-06,228.55539901,1.47640528076,,,,z,1,1.46725552576,2018_Nov_14_1236,59.9860135434,chinese_cond2,001,1016,
images/croissant02b.jpg,croissant,z,sounds/greatgatsby_chinese.wav,,,,,,,,,0,0,0,0,0,55,55,39,229.666954244,9.30076930672e-06,231.039336666,1.37239204394,,,,z,1,1.35056720523,2018_Nov_14_1236,59.9860135434,chinese_cond2,001,1016,
images/blueberry02.jpg,blueberry,z,sounds/greatgatsby_chinese.wav,,,,,,,,,0,0,0,0,0,56,56,46,232.153064442,8.98004509509e-06,233.039834741,0.886779599939,,,,z,1,0.867142697214,2018_Nov_14_1236,59.9860135434,chinese_cond2,001,1016,
images/icecube02 (2).jpg,aloe,x,sounds/greatgatsby_chinese.wav,,,,,,,,,0,0,0,0,0,57,57,122,234.150939366,9.30076930672e-06,235.657124246,1.50619546394,,,,x,1,1.48395625793,2018_Nov_14_1236,59.9860135434,chinese_cond2,001,1016,
images/dryingmachine01.jpg,drying machine,z,sounds/greatgatsby_chinese.wav,,,,,,,,,0,0,0,0,0,58,58,18,236.778557585,8.98016151041e-06,238.441122486,1.66257420206,,,,z,1,1.65064125904,2018_Nov_14_1236,59.9860135434,chinese_cond2,001,1016,
images/redfox.jpg,red fox,z,sounds/greatgatsby_chinese.wav,,,,,,,,,0,0,0,0,0,59,59,1,239.554204016,9.30088572204e-06,240.708359539,1.15416578611,,,,z,1,1.13388359931,2018_Nov_14_1236,59.9860135434,chinese_cond2,001,1016,
images/drink.jpg,drink,z,sounds/greatgatsby_chinese.wav,,,,,,,,,0,0,0,0,0,60,60,117,241.809459697,9.94221772999e-06,242.992240556,1.1827911227,,,,z,1,1.16722573095,2018_Nov_14_1236,59.9860135434,chinese_cond2,001,1016,
images/aquarium.jpg,computer mouse,x,sounds/greatgatsby_chinese.wav,,,,,,,,,0,0,0,0,0,61,61,159,244.130983029,9.30088572204e-06,245.409464122,1.27849103615,,,,x,1,1.26721909211,2018_Nov_14_1236,59.9860135434,chinese_cond2,001,1016,
images/ruler02b.jpg,watermelon,x,sounds/greatgatsby_chinese.wav,,,,,,,,,0,0,0,0,0,62,62,238,246.512037337,9.30076930672e-06,247.926747118,1.41472004389,,,,x,1,1.40060012694,2018_Nov_14_1236,59.9860135434,chinese_cond2,001,1016,
images/lion.jpg,lion,z,sounds/greatgatsby_chinese.wav,,,,,,,,,0,0,0,0,0,63,63,44,249.041070466,9.30088572204e-06,249.843854744,0.802794220857,,,,z,1,0.783770850976,2018_Nov_14_1236,59.9860135434,chinese_cond2,001,1016,
images/tank.jpg,wallet,x,sounds/greatgatsby_chinese.wav,,,,,,,,,0,0,0,0,0,64,64,237,250.949239049,1.15458387882e-05,251.994399948,1.04517180356,,,,x,1,1.0338536764,2018_Nov_14_1236,59.9860135434,chinese_cond2,001,1016,
images/sportshorts02.jpg,tape,x,sounds/greatgatsby_chinese.wav,,,,,,,,,0,0,0,0,0,65,65,230,253.103122604,9.62160993367e-06,254.71170719,1.60859581141,,,,x,1,1.60064169194,2018_Nov_14_1236,59.9860135434,chinese_cond2,001,1016,
images/flower01.jpg,bus,x,sounds/greatgatsby_chinese.wav,,,,,,,,,0,0,0,0,0,66,66,140,255.827147919,8.98004509509e-06,256.745520777,0.918382479576,,,,x,1,0.900462058024,2018_Nov_14_1236,59.9860135434,chinese_cond2,001,1016,
images/sock03.jpg,sock,z,sounds/greatgatsby_chinese.wav,,,,,,,,,0,0,0,0,0,67,67,90,257.852197894,8.98004509509e-06,258.729335438,0.877147485502,,,,z,1,0.867131151375,2018_Nov_14_1236,59.9860135434,chinese_cond2,001,1016,
images/hairdryer03a.jpg,hairdryer,z,sounds/greatgatsby_chinese.wav,,,,,,,,,0,0,0,0,0,68,68,119,259.830002627,9.30088572204e-06,260.92987187,1.09987950639,,,,z,1,1.08384554624,2018_Nov_14_1236,59.9860135434,chinese_cond2,001,1016,
images/worldmap.jpg,scooter,x,sounds/greatgatsby_chinese.wav,,,,,,,,,0,0,0,0,0,69,69,220,262.063108903,9.62160993367e-06,263.547173563,1.48407460283,,,,x,1,1.46728150395,2018_Nov_14_1236,59.9860135434,chinese_cond2,001,1016,
images/gorilla.jpg,gorilla,z,sounds/greatgatsby_chinese.wav,,,,,,,,,0,0,0,0,0,70,70,80,264.658624243,9.62149351835e-06,265.714355035,1.05574137578,,,,z,1,1.03384629986,2018_Nov_14_1236,59.9860135434,chinese_cond2,001,1016,
images/fryingpan01.jpg,frying pan,z,sounds/greatgatsby_chinese.wav,,,,,,,,,0,0,0,0,0,71,71,45,266.815610741,9.94221772999e-06,268.064914864,1.2493143857,,,,z,1,1.23388048843,2018_Nov_14_1236,59.9860135434,chinese_cond2,001,1016,
images/cupcake.jpg,scissors,x,sounds/greatgatsby_chinese.wav,,,,,,,,,0,0,0,0,0,72,72,219,269.184340831,8.98004509509e-06,270.248786484,1.06445559615,,,,x,1,1.05052137468,2018_Nov_14_1236,59.9860135434,chinese_cond2,001,1016,
images/straw.jpg,straw,z,sounds/greatgatsby_chinese.wav,,,,,,,,,0,0,0,0,0,73,73,109,271.340665047,9.30088572204e-06,273.032763557,1.69210877339,,,,z,1,1.68398082489,2018_Nov_14_1236,59.9860135434,chinese_cond2,001,1016,
images/basketball01.jpg,basket ball,z,sounds/greatgatsby_chinese.wav,,,,,,,,,0,0,0,0,0,74,74,33,274.173977159,9.62160993367e-06,274.933228822,0.75926160533,,,,z,1,0.750425512204,2018_Nov_14_1236,59.9860135434,chinese_cond2,001,1016,
images/swallow.jpg,mattress,x,sounds/greatgatsby_chinese.wav,,,,,,,,,0,0,0,0,0,75,75,202,276.035331864,9.30076930672e-06,277.417176741,1.38185514009,,,,x,1,1.36725735373,2018_Nov_14_1236,59.9860135434,chinese_cond2,001,1016,
images/gps.jpg,gps,z,sounds/greatgatsby_chinese.wav,,,,,,,,,0,0,0,0,0,76,76,21,278.536281349,9.30088572204e-06,279.751061816,1.21479073016,,,,z,1,1.20049121126,2018_Nov_14_1236,59.9860135434,chinese_cond2,001,1016,
images/lemon02.jpg,lemon,z,sounds/greatgatsby_chinese.wav,,,,,,,,,0,0,0,0,0,77,77,14,280.865240841,8.98016151041e-06,281.534844854,0.669613634702,,,,z,1,0.650435999734,2018_Nov_14_1236,59.9860135434,chinese_cond2,001,1016,
images/leaf01a.jpg,leaf,z,sounds/greatgatsby_chinese.wav,,,,,,,,,0,0,0,0,0,78,78,68,282.718241813,9.62160993367e-06,283.38525571,0.667024480761,,,,z,1,0.650334011414,2018_Nov_14_1236,59.9860135434,chinese_cond2,001,1016,
images/pingpongpaddle01c (1).jpg,ping pong paddle,z,sounds/greatgatsby_chinese.wav,,,,,,,,,0,0,0,0,0,79,79,10,284.497076498,9.30088572204e-06,285.302398295,0.805332701304,,,,z,1,0.783782076091,2018_Nov_14_1236,59.9860135434,chinese_cond2,001,1016,
images/handbag02a.jpg,candle,x,sounds/greatgatsby_chinese.wav,,,,,,,,,0,0,0,0,0,80,80,144,286.419743124,9.62149351835e-06,287.652787823,1.23305560253,,,,z,0,1.21703671606,2018_Nov_14_1236,59.9860135434,chinese_cond2,001,1016,
images/boxingglove02a.jpg,bracelet,x,sounds/greatgatsby_chinese.wav,,,,,,,,,0,0,0,0,0,81,81,135,288.767078778,9.30076930672e-06,290.620342738,1.85327422293,,,,z,0,1.8340266716,2018_Nov_14_1236,59.9860135434,chinese_cond2,001,1016,
images/handfan01b.jpg,handfan,z,sounds/greatgatsby_chinese.wav,,,,,,,,,0,0,0,0,0,82,82,69,291.735705212,8.98016151041e-06,293.704432992,1.96873740188,,,,z,1,1.9506941454,2018_Nov_14_1236,59.9860135434,chinese_cond2,001,1016,
images/electrictoothbrush01a.jpg,banjo,x,sounds/greatgatsby_chinese.wav,,,,,,,,,0,0,0,0,0,83,83,127,294.801584794,9.30076930672e-06,296.38840612,1.58683094673,,,,x,1,1.56730340887,2018_Nov_14_1236,59.9860135434,chinese_cond2,001,1016,
images/mailbox01.jpg,mail box,z,sounds/greatgatsby_chinese.wav,,,,,,,,,0,0,0,0,0,84,84,73,297.509650235,8.98004509509e-06,299.105707909,1.59606761625,,,,z,1,1.58396340988,2018_Nov_14_1236,59.9860135434,chinese_cond2,001,1016,
images/seagull.jpg,seagull,z,sounds/greatgatsby_chinese.wav,,,,,,,,,0,0,0,0,0,85,85,50,300.215345892,1.02629419416e-05,301.606314226,1.39097827545,,,,z,1,1.36724324222,2018_Nov_14_1236,59.9860135434,chinese_cond2,001,1016,
images/watermelon01.jpg,orange,x,sounds/greatgatsby_chinese.wav,,,,,,,,,0,0,0,0,0,86,86,207,302.737475894,9.30076930672e-06,303.590136905,0.852670632303,,,,x,1,0.83380152774,2018_Nov_14_1236,59.9860135434,chinese_cond2,001,1016,
images/crocodile.jpg,triangle ruler,x,sounds/greatgatsby_chinese.wav,,,,,,,,,0,0,0,0,0,87,87,235,304.690354448,9.30076930672e-06,305.840660717,1.1503158909,,,,x,1,1.13385120686,2018_Nov_14_1236,59.9860135434,chinese_cond2,001,1016,
images/mirror02.jpg,8 ball,x,sounds/greatgatsby_chinese.wav,,,,,,,,,0,0,0,0,0,88,88,121,306.945241624,9.62149351835e-06,308.491304862,1.54607414291,,,,x,1,1.53395742865,2018_Nov_14_1236,59.9860135434,chinese_cond2,001,1016,
images/parkfountain.jpg,park fountain,z,sounds/greatgatsby_chinese.wav,,,,,,,,,0,0,0,0,0,89,89,93,309.613996697,9.62149351835e-06,310.725175088,1.11118865351,,,,x,0,1.10051484813,2018_Nov_14_1236,59.9860135434,chinese_cond2,001,1016,
images/bus.jpg,microphone,x,sounds/greatgatsby_chinese.wav,,,,,,,,,0,0,0,0,0,90,90,203,311.844767186,9.62149351835e-06,312.992728368,1.14797112381,,,,x,1,1.13419661974,2018_Nov_14_1236,59.9860135434,chinese_cond2,001,1016,
images/bed.jpg,bed,z,sounds/greatgatsby_chinese.wav,,,,,,,,,0,0,0,0,0,91,91,103,314.113096282,9.30076930672e-06,314.826154656,0.713068636484,,,,z,1,0.700412154198,2018_Nov_14_1236,59.9860135434,chinese_cond2,001,1016,
images/screwdriver02b.jpg,cola,x,sounds/greatgatsby_chinese.wav,,,,,,,,,0,0,0,0,0,92,92,158,315.920666952,9.94221772999e-06,316.993351522,1.07269483362,,,,x,1,1.05050405592,2018_Nov_14_1236,59.9860135434,chinese_cond2,001,1016,
images/50dollarbill.jpg,cherry,x,sounds/greatgatsby_chinese.wav,,,,,,,,,0,0,0,0,0,93,93,151,318.115371133,9.62149351835e-06,319.243890729,1.12853017962,,,,x,1,1.11718126351,2018_Nov_14_1236,59.9860135434,chinese_cond2,001,1016,
images/lantern03.jpg,lantern,z,sounds/greatgatsby_chinese.wav,,,,,,,,,0,0,0,0,0,94,94,5,320.350996967,9.30088572204e-06,321.327737879,0.976751174778,,,,z,1,0.967167168041,2018_Nov_14_1236,59.9860135434,chinese_cond2,001,1016,
images/eraser.jpg,eraser,z,sounds/greatgatsby_chinese.wav,,,,,,,,,0,0,0,0,0,95,95,110,322.435242769,9.30076930672e-06,323.161650375,0.726432942552,,,,z,1,0.717126998119,2018_Nov_14_1236,59.9860135434,chinese_cond2,001,1016,
images/globe.jpg,cloud,x,sounds/greatgatsby_chinese.wav,,,,,,,,,0,0,0,0,0,96,96,154,324.290090112,9.30088572204e-06,325.178664127,0.888583957683,,,,x,1,0.867077270872,2018_Nov_14_1236,59.9860135434,chinese_cond2,001,1016,
images/daisy.jpg,daisy,z,sounds/greatgatsby_chinese.wav,,,,,,,,,0,0,0,0,0,97,97,6,326.283807573,9.62149351835e-06,327.129116772,0.845319141285,,,,z,1,0.833781322464,2018_Nov_14_1236,59.9860135434,chinese_cond2,001,1016,
images/mushroom01.jpg,shower head,x,sounds/greatgatsby_chinese.wav,,,,,,,,,0,0,0,0,0,98,98,222,328.24648309,9.62149351835e-06,329.629711543,1.38323871628,,,,x,1,1.36723714869,2018_Nov_14_1236,59.9860135434,chinese_cond2,001,1016,
images/coffeepot03b.jpg,coffee pot,z,sounds/greatgatsby_chinese.wav,,,,,,,,,0,0,0,0,0,99,99,107,330.752048985,9.30088572204e-06,331.680222976,0.928184574354,,,,z,1,0.917140660691,2018_Nov_14_1236,59.9860135434,chinese_cond2,001,1016,
images/pipe.jpg,icecube,x,sounds/greatgatsby_chinese.wav,,,,,,,,,0,0,0,0,0,100,100,188,332.789854224,9.30076930672e-06,334.397536311,1.60769170814,,,,x,1,1.58396373061,2018_Nov_14_1236,59.9860135434,chinese_cond2,001,1016,
images/ant.jpg,ant,z,sounds/greatgatsby_chinese.wav,,,,,,,,,0,0,0,0,0,101,101,98,335.492909092,8.98016151041e-06,337.298232172,1.80533302203,,,,z,1,1.78400914429,2018_Nov_14_1236,59.9860135434,chinese_cond2,001,1016,
images/broadsword.jpg,teapot,x,sounds/greatgatsby_chinese.wav,,,,,,,,,0,0,0,0,0,102,102,231,338.392146971,9.62149351835e-06,339.56543619,1.17329948256,,,,x,1,1.15051730163,2018_Nov_14_1236,59.9860135434,chinese_cond2,001,1016,
images/bracelet02a.jpg,chess knight,x,sounds/greatgatsby_chinese.wav,,,,,,,,,0,0,0,0,0,103,103,152,340.674950056,8.98004509509e-06,342.06606592,1.39112548495,,,,x,1,1.36726408894,2018_Nov_14_1236,59.9860135434,chinese_cond2,001,1016,
images/marker01a.jpg,marker,z,sounds/greatgatsby_chinese.wav,,,,,,,,,0,0,0,0,0,104,104,95,343.165292766,8.98016151041e-06,344.816544992,1.65126248915,,,,z,1,1.63380807033,2018_Nov_14_1236,59.9860135434,chinese_cond2,001,1016,
images/cola.jpg,comb,x,sounds/greatgatsby_chinese.wav,,,,,,,,,0,0,0,0,0,105,105,157,345.940444649,9.62149351835e-06,346.900551538,0.960116189555,,,,x,1,0.950460662832,2018_Nov_14_1236,59.9860135434,chinese_cond2,001,1016,
images/bandaid01.jpg,door handle,x,sounds/greatgatsby_chinese.wav,,,,,,,,,0,0,0,0,0,106,106,170,348.008532053,9.62160993367e-06,349.451158705,1.4426362738,,,,x,1,1.4339297507,2018_Nov_14_1236,59.9860135434,chinese_cond2,001,1016,
images/microphone01.jpg,diaper,x,sounds/greatgatsby_chinese.wav,,,,,,,,,0,0,0,0,0,107,107,164,350.550940713,9.62149351835e-06,351.835065476,1.28413502593,,,,z,0,1.26722197863,2018_Nov_14_1236,59.9860135434,chinese_cond2,001,1016,
images/parrot01.jpg,chameleon,x,sounds/greatgatsby_chinese.wav,,,,,,,,,0,0,0,0,0,108,108,150,352.951714028,9.30088572204e-06,354.952476053,2.00077196746,,,,x,1,1.98405487859,2018_Nov_14_1236,59.9860135434,chinese_cond2,001,1016,
images/fireextinguisher02.jpg,fire extinguisher,z,sounds/greatgatsby_chinese.wav,,,,,,,,,0,0,0,0,0,109,109,175,356.064165347,8.98004509509e-06,357.503089955,1.43893422943,,,,z,1,1.41726109025,2018_Nov_14_1236,59.9860135434,chinese_cond2,001,1016,
images/snowman.jpg,globe,x,sounds/greatgatsby_chinese.wav,,,,,,,,,0,0,0,0,0,110,110,180,358.61550824,9.94221772999e-06,360.203743289,1.58824563259,,,,x,1,1.56729795667,2018_Nov_14_1236,59.9860135434,chinese_cond2,001,1016,
images/clothespin02a.jpg,clothes pin,z,sounds/greatgatsby_chinese.wav,,,,,,,,,0,0,0,0,0,111,111,79,361.309998663,9.30088572204e-06,362.520967721,1.21097932116,,,,z,1,1.20053354593,2018_Nov_14_1236,59.9860135434,chinese_cond2,001,1016,
images/baseball01a.jpg,baseball,z,sounds/greatgatsby_chinese.wav,,,,,,,,,0,0,0,0,0,112,112,74,363.654810589,9.30088572204e-06,364.788165646,1.13336499885,,,,z,1,1.11717581132,2018_Nov_14_1236,59.9860135434,chinese_cond2,001,1016,
images/bull.jpg,button,x,sounds/greatgatsby_chinese.wav,,,,,,,,,0,0,0,0,0,113,113,141,365.894661237,9.30076930672e-06,366.838850586,0.944199291407,,,,x,1,0.933995978907,2018_Nov_14_1236,59.9860135434,chinese_cond2,001,1016,
images/arrow02.jpg,hammer,x,sounds/greatgatsby_chinese.wav,,,,,,,,,0,0,0,0,0,114,114,184,367.9377503,9.30076930672e-06,369.339296223,1.40155586565,,,,z,0,1.38393691869,2018_Nov_14_1236,59.9860135434,chinese_cond2,001,1016,
images/computermouse02a.jpg,world map,x,sounds/greatgatsby_chinese.wav,,,,,,,,,0,0,0,0,0,115,115,239,370.442904714,8.98004509509e-06,371.35641902,0.91352360649,,,,x,1,0.900464944425,2018_Nov_14_1236,59.9860135434,chinese_cond2,001,1016,
images/axe01.jpg,axe,z,sounds/greatgatsby_chinese.wav,,,,,,,,,0,0,0,0,0,116,116,104,372.461604801,8.98004509509e-06,373.373578379,0.911983840982,,,,z,1,0.900468472275,2018_Nov_14_1236,59.9860135434,chinese_cond2,001,1016,
images/hanger02a.jpg,hanger,z,sounds/greatgatsby_chinese.wav,,,,,,,,,0,0,0,0,0,117,117,88,374.467358476,8.98004509509e-06,375.84083615,1.37348729488,,,,x,0,1.35058131686,2018_Nov_14_1236,59.9860135434,chinese_cond2,001,1016,
images/butterfly.jpg,butterfly,z,sounds/greatgatsby_chinese.wav,,,,,,,,,0,0,0,0,0,118,118,91,376.948823399,9.62149351835e-06,377.991352489,1.04253903218,,,,z,1,1.03381903889,2018_Nov_14_1236,59.9860135434,chinese_cond2,001,1016,
images/tissuebox03.jpg,tissue box,z,sounds/greatgatsby_chinese.wav,,,,,,,,,0,0,0,0,0,119,119,58,379.119615511,9.94221772999e-06,379.975156246,0.855551318498,,,,z,1,0.833767531672,2018_Nov_14_1236,59.9860135434,chinese_cond2,001,1016,
images/nailclipper03a.jpg,aquarium,x,sounds/greatgatsby_chinese.wav,,,,,,,,,0,0,0,0,0,120,120,123,381.075776931,9.30088572204e-06,382.675807335,1.60004227061,,,,x,1,1.58395378839,2018_Nov_14_1236,59.9860135434,chinese_cond2,001,1016,
images/raisin.jpg,ruler,x,sounds/greatgatsby_chinese.wav,,,,,,,,,0,0,0,0,0,121,121,218,383.781895935,9.30088572204e-06,384.826346124,1.04446013109,,,,x,1,1.03384565841,2018_Nov_14_1236,59.9860135434,chinese_cond2,001,1016,
images/puzzle.jpg,puzzle,z,sounds/greatgatsby_chinese.wav,,,,,,,,,0,0,0,0,0,122,122,57,385.947640272,8.98004509509e-06,387.893577853,1.94594784419,,,,x,0,1.93388757634,2018_Nov_14_1236,59.9860135434,chinese_cond2,001,1016,
images/electricguitar02.jpg,electric guitar,z,sounds/greatgatsby_chinese.wav,,,,,,,,,0,0,0,0,0,123,123,100,388.99757794,8.98016151041e-06,390.21096553,1.21339817392,,,,z,1,1.20053867751,2018_Nov_14_1236,59.9860135434,chinese_cond2,001,1016,
images/floorlamp.jpg,floor lamp,z,sounds/greatgatsby_chinese.wav,,,,,,,,,0,0,0,0,0,124,124,26,391.304358842,9.30076930672e-06,392.611541603,1.30719334492,,,,z,1,1.28389993997,2018_Nov_14_1236,59.9860135434,chinese_cond2,001,1016,
images/fork01.jpg,cooking pot,x,sounds/greatgatsby_chinese.wav,,,,,,,,,0,0,0,0,0,125,125,160,393.706426894,9.30088572204e-06,395.595583012,1.88916606025,,,,x,1,1.86736367177,2018_Nov_14_1236,59.9860135434,chinese_cond2,001,1016,
images/nailpolish02b.jpg,nail polish,z,sounds/greatgatsby_chinese.wav,,,,,,,,,0,0,0,0,0,126,126,94,396.787512664,8.98004509509e-06,398.146203007,1.3587002852,,,,z,1,1.35056880885,2018_Nov_14_1236,59.9860135434,chinese_cond2,001,1016,
images/shotglass.jpg,shot glass,z,sounds/greatgatsby_chinese.wav,,,,,,,,,0,0,0,0,0,127,127,86,399.255802184,3.65617452189e-05,401.130267187,1.87448296288,,,,x,0,1.85070334992,2018_Nov_14_1236,59.9860135434,chinese_cond2,001,1016,
images/thumbtack02a.jpg,thumb tack,z,sounds/greatgatsby_chinese.wav,,,,,,,,,0,0,0,0,0,128,128,60,402.242061676,9.30088572204e-06,403.797575503,1.55552344816,,,,z,1,1.53395325923,2018_Nov_14_1236,59.9860135434,chinese_cond2,001,1016,
images/donut.jpg,rhinoceros,x,sounds/greatgatsby_chinese.wav,,,,,,,,,0,0,0,0,0,129,129,216,404.92569805,8.98004509509e-06,406.164812972,1.23912518483,,,,x,1,1.21722209081,2018_Nov_14_1236,59.9860135434,chinese_cond2,001,1016,
images/volleyball.jpg,volley ball,z,sounds/greatgatsby_chinese.wav,,,,,,,,,0,0,0,0,0,130,130,2,407.296794395,9.62149351835e-06,408.081927975,0.785143843503,,,,z,1,0.767102190643,2018_Nov_14_1236,59.9860135434,chinese_cond2,001,1016,
images/candle08a.jpg,screw driver,x,sounds/greatgatsby_chinese.wav,,,,,,,,,0,0,0,0,0,131,131,221,409.197739453,9.30088572204e-06,410.36583914,1.16810994979,,,,x,1,1.15050222795,2018_Nov_14_1236,59.9860135434,chinese_cond2,001,1016,
images/tulip02.jpg,sport shorts,x,sounds/greatgatsby_chinese.wav,,,,,,,,,0,0,0,0,0,132,132,225,411.460864264,9.30088572204e-06,412.749723782,1.2888697813,,,,x,1,1.26723448664,2018_Nov_14_1236,59.9860135434,chinese_cond2,001,1016,
images/pineapple01a.jpg,pineapple,z,sounds/greatgatsby_chinese.wav,,,,,,,,,0,0,0,0,0,133,133,51,413.863378434,9.62149351835e-06,414.783528068,0.920159896952,,,,z,1,0.900458850781,2018_Nov_14_1236,59.9860135434,chinese_cond2,001,1016,
images/lychee02a.jpg,lychee,z,sounds/greatgatsby_chinese.wav,,,,,,,,,0,0,0,0,0,134,134,62,415.908035165,9.30076930672e-06,417.784253211,1.87622798793,,,,x,0,1.86736174743,2018_Nov_14_1236,59.9860135434,chinese_cond2,001,1016,
images/battery03b.jpg,battery,z,sounds/greatgatsby_chinese.wav,,,,,,,,,0,0,0,0,0,135,135,34,418.896262581,9.30088572204e-06,419.718053231,0.82180123392,,,,z,1,0.800436945749,2018_Nov_14_1236,59.9860135434,chinese_cond2,001,1016,
images/masquerademask02b.jpg,mirror,x,sounds/greatgatsby_chinese.wav,,,,,,,,,0,0,0,0,0,136,136,204,420.8237435,9.62149351835e-06,421.968595965,1.14486272796,,,,x,1,1.13379572274,2018_Nov_14_1236,59.9860135434,chinese_cond2,001,1016,
images/cherry01.jpg,highlighter,x,sounds/greatgatsby_chinese.wav,,,,,,,,,0,0,0,0,0,137,137,187,423.079732983,9.62160993367e-06,424.219154094,1.13943137403,,,,x,1,1.11720082734,2018_Nov_14_1236,59.9860135434,chinese_cond2,001,1016,
images/dreamcatcher.jpg,dream catcher,z,sounds/greatgatsby_chinese.wav,,,,,,,,,0,0,0,0,0,138,138,48,425.31819332,8.98004509509e-06,427.686631877,2.36844849924,,,,z,1,2.35080710205,2018_Nov_14_1236,59.9860135434,chinese_cond2,001,1016,
images/mitten01.jpg,mitten,z,sounds/greatgatsby_chinese.wav,,,,,,,,,0,0,0,0,0,139,139,102,428.807619739,9.30088572204e-06,429.953859629,1.14625015284,,,,x,0,1.13386211137,2018_Nov_14_1236,59.9860135434,chinese_cond2,001,1016,
images/calculator02b.jpg,dice,x,sounds/greatgatsby_chinese.wav,,,,,,,,,0,0,0,0,0,140,140,165,431.058183641,9.94221772999e-06,432.70453049,1.64635743282,,,,x,1,1.63399504882,2018_Nov_14_1236,59.9860135434,chinese_cond2,001,1016,
images/notebook02b.jpg,notebook,z,sounds/greatgatsby_chinese.wav,,,,,,,,,0,0,0,0,0,141,141,7,433.811902603,9.30088572204e-06,434.538300588,0.726407605922,,,,z,1,0.717103906441,2018_Nov_14_1236,59.9860135434,chinese_cond2,001,1016,
images/bench02.jpg,electric toothbrush,x,sounds/greatgatsby_chinese.wav,,,,,,,,,0,0,0,0,0,142,142,172,435.649358068,8.98004509509e-06,437.32229113,1.67294300487,,,,x,1,1.65065023908,2018_Nov_14_1236,59.9860135434,chinese_cond2,001,1016,
images/bullet (2).jpg,rubber glove,x,sounds/greatgatsby_chinese.wav,,,,,,,,,0,0,0,0,0,143,143,217,438.428121553,8.65943729877e-06,440.172988066,1.7448764547,,,,x,1,1.73400637007,2018_Nov_14_1236,59.9860135434,chinese_cond2,001,1016,
images/button07.jpg,radish,x,sounds/greatgatsby_chinese.wav,,,,,,,,,0,0,0,0,0,144,144,215,441.285864336,8.65943729877e-06,442.640238139,1.35438374581,,,,z,0,1.33390207274,2018_Nov_14_1236,59.9860135434,chinese_cond2,001,1016,
images/orange.jpg,bat,x,sounds/greatgatsby_chinese.wav,,,,,,,,,0,0,0,0,0,145,145,128,443.765647736,9.62149351835e-06,445.140839004,1.37520088954,,,,x,1,1.35056624305,2018_Nov_14_1236,59.9860135434,chinese_cond2,001,1016,
images/birthdaycandle.jpg,birthday candle,z,sounds/greatgatsby_chinese.wav,,,,,,,,,0,0,0,0,0,146,146,55,446.237836862,9.30076930672e-06,447.49141102,1.25358410028,,,,z,1,1.23388112988,2018_Nov_14_1236,59.9860135434,chinese_cond2,001,1016,
images/banjo.jpg,knife,x,sounds/greatgatsby_chinese.wav,,,,,,,,,0,0,0,0,0,147,147,191,448.588941269,9.62149351835e-06,449.608576248,1.0196449206,,,,x,1,1.00048684946,2018_Nov_14_1236,59.9860135434,chinese_cond2,001,1016,
images/hairpin.jpg,hair pin,z,sounds/greatgatsby_chinese.wav,,,,,,,,,0,0,0,0,0,148,148,28,450.700157504,9.62160993367e-06,451.992569292,1.29243968986,,,,z,1,1.28390346782,2018_Nov_14_1236,59.9860135434,chinese_cond2,001,1016,
images/tie01.jpg,bench,x,sounds/greatgatsby_chinese.wav,,,,,,,,,0,0,0,0,0,149,149,130,453.091914803,9.30076930672e-06,454.776500823,1.68459596147,,,,z,0,1.6673224275,2018_Nov_14_1236,59.9860135434,chinese_cond2,001,1016,
images/radio03a.jpg,radio,z,sounds/greatgatsby_chinese.wav,,,,,,,,,0,0,0,0,0,150,150,37,455.89093546,8.98004509509e-06,456.876994824,0.986068664934,,,,z,1,0.967145038419,2018_Nov_14_1236,59.9860135434,chinese_cond2,001,1016,
images/grasshopper.jpg,cauliflower,x,sounds/greatgatsby_chinese.wav,,,,,,,,,0,0,0,0,0,151,151,148,457.971039834,9.94221772999e-06,460.127791567,2.15676167503,,,,x,1,2.13410521531,2018_Nov_14_1236,59.9860135434,chinese_cond2,001,1016,
images/lightbulb03b.jpg,treadmill,x,sounds/greatgatsby_chinese.wav,,,,,,,,,0,0,0,0,0,152,152,234,461.230518726,9.30076930672e-06,462.411955778,1.18144699477,,,,x,1,1.1674919267,2018_Nov_14_1236,59.9860135434,chinese_cond2,001,1016,
images/beermug01b.jpg,beer mug,z,sounds/greatgatsby_chinese.wav,,,,,,,,,0,0,0,0,0,153,153,111,463.529389767,9.62160993367e-06,465.212336919,1.68295709405,,,,z,1,1.66731633374,2018_Nov_14_1236,59.9860135434,chinese_cond2,001,1016,
images/ceilingfan02.jpg,paper clip,x,sounds/greatgatsby_chinese.wav,,,,,,,,,0,0,0,0,0,154,154,208,466.311857542,9.30076930672e-06,467.362863842,1.0510159214,,,,x,1,1.03383988549,2018_Nov_14_1236,59.9860135434,chinese_cond2,001,1016,
images/nametag01a.jpg,name tag,z,sounds/greatgatsby_chinese.wav,,,,,,,,,0,0,0,0,0,155,155,108,468.485497627,9.30076930672e-06,469.763420993,1.27793362876,,,,z,1,1.26719824551,2018_Nov_14_1236,59.9860135434,chinese_cond2,001,1016,
images/cat.jpg,black olive,x,sounds/greatgatsby_chinese.wav,,,,,,,,,0,0,0,0,0,156,156,133,470.894567908,9.62160993367e-06,471.847269426,0.952711780323,,,,x,1,0.933813811163,2018_Nov_14_1236,59.9860135434,chinese_cond2,001,1016,
images/doorhandle.jpg,doll,x,sounds/greatgatsby_chinese.wav,,,,,,,,,0,0,0,0,0,157,157,168,472.951658543,9.30076930672e-06,474.181403377,1.22975509672,,,,x,1,1.21745429048,2018_Nov_14_1236,59.9860135434,chinese_cond2,001,1016,
images/plate01b.jpg,plate,z,sounds/greatgatsby_chinese.wav,,,,,,,,,0,0,0,0,0,158,158,3,475.281753376,9.62149351835e-06,476.148301142,0.866557387402,,,,z,1,0.850453831605,2018_Nov_14_1236,59.9860135434,chinese_cond2,001,1016,
images/egg01b (1).jpg,egg,z,sounds/greatgatsby_chinese.wav,,,,,,,,,0,0,0,0,0,159,159,19,477.26333456,9.30088572204e-06,477.982068674,0.718743736041,,,,z,1,0.700401891256,2018_Nov_14_1236,59.9860135434,chinese_cond2,001,1016,
images/hammer02a.jpg,flower,x,sounds/greatgatsby_chinese.wav,,,,,,,,,0,0,0,0,0,160,160,176,479.07797545,9.30088572204e-06,480.015910805,0.937945296522,,,,x,1,0.917117248289,2018_Nov_14_1236,59.9860135434,chinese_cond2,001,1016,
images/pepper05a.jpg,lighter,x,sounds/greatgatsby_chinese.wav,,,,,,,,,0,0,0,0,0,161,161,198,481.137593982,9.62160993367e-06,482.083061071,0.94547735143,,,,x,1,0.933810283314,2018_Nov_14_1236,59.9860135434,chinese_cond2,001,1016,
images/desktopcomputer.jpg,desktop computer,z,sounds/greatgatsby_chinese.wav,,,,,,,,,0,0,0,0,0,162,162,16,483.219299379,9.62149351835e-06,484.1002432,0.88095376303,,,,z,1,0.867154884618,2018_Nov_14_1236,59.9860135434,chinese_cond2,001,1016,
images/kiwi03.jpg,backpack,x,sounds/greatgatsby_chinese.wav,,,,,,,,,0,0,0,0,0,163,163,125,485.228905195,8.98004509509e-06,486.167400522,0.938504948863,,,,x,1,0.917148037115,2018_Nov_14_1236,59.9860135434,chinese_cond2,001,1016,
images/pouch01b.jpg,pouch,z,sounds/greatgatsby_chinese.wav,,,,,,,,,0,0,0,0,0,164,164,25,487.280400589,8.98004509509e-06,488.634633277,1.35424198851,,,,z,1,1.33389822405,2018_Nov_14_1236,59.9860135434,chinese_cond2,001,1016,
images/panda.jpg,panda,z,sounds/greatgatsby_chinese.wav,,,,,,,,,0,0,0,0,0,165,165,83,489.744481651,9.62160993367e-06,490.385061034,0.640589645947,,,,z,1,0.617071097018,2018_Nov_14_1236,59.9860135434,chinese_cond2,001,1016,
images/doll.jpg,carrot,x,sounds/greatgatsby_chinese.wav,,,,,,,,,0,0,0,0,0,166,166,146,491.496783683,9.30088572204e-06,492.502241977,1.00546855736,,,,x,1,0.98382845195,2018_Nov_14_1236,59.9860135434,chinese_cond2,001,1016,
images/cheetah.jpg,cheetah,z,sounds/greatgatsby_chinese.wav,,,,,,,,,0,0,0,0,0,167,167,82,493.605766119,9.30076930672e-06,494.902812919,1.29705706239,,,,x,0,1.2838935256,2018_Nov_14_1236,59.9860135434,chinese_cond2,001,1016,
images/ladder.jpg,ladder,z,sounds/greatgatsby_chinese.wav,,,,,,,,,0,0,0,0,0,168,168,113,495.995806616,9.30076930672e-06,497.520133213,1.52433653933,,,,z,1,1.50063004985,2018_Nov_14_1236,59.9860135434,chinese_cond2,001,1016,
images/stapler03a.jpg,candy cane,x,sounds/greatgatsby_chinese.wav,,,,,,,,,0,0,0,0,0,169,169,145,498.633357783,9.94221772999e-06,500.87091113,2.23756296886,,,,x,1,2.21744755551,2018_Nov_14_1236,59.9860135434,chinese_cond2,001,1016,
images/bowl02b (1).jpg,bowl,z,sounds/greatgatsby_chinese.wav,,,,,,,,,0,0,0,0,0,170,170,24,501.989749221,9.62149351835e-06,502.804721093,0.814981813659,,,,z,1,0.800449133036,2018_Nov_14_1236,59.9860135434,chinese_cond2,001,1016,
images/tent.jpg,tent,z,sounds/greatgatsby_chinese.wav,,,,,,,,,0,0,0,0,0,171,171,11,503.93178912,9.62149351835e-06,505.005078885,1.07329970715,,,,z,1,1.05033824488,2018_Nov_14_1236,59.9860135434,chinese_cond2,001,1016,
images/triangleruler02.jpg,bottle of red wine,x,sounds/greatgatsby_chinese.wav,,,,,,,,,0,0,0,0,0,172,172,134,506.116831361,9.30088572204e-06,507.305921379,1.1891002811,,,,x,1,1.16732162563,2018_Nov_14_1236,59.9860135434,chinese_cond2,001,1016,
images/dragonfly02.jpg,dragon fly,z,sounds/greatgatsby_chinese.wav,,,,,,,,,0,0,0,0,0,173,173,29,508.404438797,1.02630583569e-05,509.973107822,1.56867992925,,,,z,1,1.55063731421,2018_Nov_14_1236,59.9860135434,chinese_cond2,001,1016,
images/beachumbrella01.jpg,beach umbrella,z,sounds/greatgatsby_chinese.wav,,,,,,,,,0,0,0,0,0,174,174,92,511.081619445,9.30076930672e-06,512.807108836,1.72550125769,,,,z,1,1.71731718373,2018_Nov_14_1236,59.9860135434,chinese_cond2,001,1016,
images/licenseplate.jpg,license plate,z,sounds/greatgatsby_chinese.wav,,,,,,,,,0,0,0,0,0,175,175,40,513.924563351,9.62149351835e-06,515.191022021,1.2664682921,,,,z,1,1.2505520354,2018_Nov_14_1236,59.9860135434,chinese_cond2,001,1016,
images/cigar.jpg,crocodile,x,sounds/greatgatsby_chinese.wav,,,,,,,,,0,0,0,0,0,176,176,162,516.289889022,9.30088572204e-06,518.908581988,2.6187025879,,,,x,1,2.60086074215,2018_Nov_14_1236,59.9860135434,chinese_cond2,001,1016,
images/ladybug03.jpg,giraffe,x,sounds/greatgatsby_chinese.wav,,,,,,,,,0,0,0,0,0,177,177,178,520.012304655,9.30088572204e-06,521.159119591,1.14682487887,,,,z,0,1.13384447177,2018_Nov_14_1236,59.9860135434,chinese_cond2,001,1016,
images/ashtray02b.jpg,ashtray,z,sounds/greatgatsby_chinese.wav,,,,,,,,,0,0,0,0,0,178,178,43,522.274534663,9.62149351835e-06,523.709739908,1.43521550787,,,,z,1,1.41724665789,2018_Nov_14_1236,59.9860135434,chinese_cond2,001,1016,
images/flipflop01b.jpg,flip flop,z,sounds/greatgatsby_chinese.wav,,,,,,,,,0,0,0,0,0,179,179,27,524.827620977,9.62160993367e-06,525.960300282,1.13268924667,,,,z,1,1.11720339314,2018_Nov_14_1236,59.9860135434,chinese_cond2,001,1016,
images/pen03c.jpg,pepper,x,sounds/greatgatsby_chinese.wav,,,,,,,,,0,0,0,0,0,180,180,211,527.055127843,9.30076930672e-06,528.010762965,0.955645384965,,,,x,1,0.933782380889,2018_Nov_14_1236,59.9860135434,chinese_cond2,001,1016,
images/lettuce.jpg,mushroom,x,sounds/greatgatsby_chinese.wav,,,,,,,,,0,0,0,0,0,181,181,205,529.135029844,9.62160993367e-06,529.927901701,0.792881799163,,,,x,1,0.783774378942,2018_Nov_14_1236,59.9860135434,chinese_cond2,001,1016,
images/pictureframe04.jpg,picture frame,z,sounds/greatgatsby_chinese.wav,,,,,,,,,0,0,0,0,0,182,182,41,531.053172106,9.30088572204e-06,532.295145264,1.2419834208,,,,z,1,1.23389107198,2018_Nov_14_1236,59.9860135434,chinese_cond2,001,1016,
images/candycane01a.jpg,lip,x,sounds/greatgatsby_chinese.wav,,,,,,,,,0,0,0,0,0,183,183,200,533.389911889,9.62149351835e-06,534.478986417,1.08908446971,,,,x,1,1.06716117065,2018_Nov_14_1236,59.9860135434,chinese_cond2,001,1016,
images/lamp04b.jpg,parking meter,x,sounds/greatgatsby_chinese.wav,,,,,,,,,0,0,0,0,0,184,184,209,535.602183061,9.62149351835e-06,537.646438895,2.04426577617,,,,x,1,2.03408138594,2018_Nov_14_1236,59.9860135434,chinese_cond2,001,1016,
images/apricot.jpg,apricot,z,sounds/greatgatsby_chinese.wav,,,,,,,,,0,0,0,0,0,185,185,32,538.765170508,9.30076930672e-06,539.930302915,1.16514234897,,,,x,0,1.15052628168,2018_Nov_14_1236,59.9860135434,chinese_cond2,001,1016,
images/eyedrops.jpg,bicycle,x,sounds/greatgatsby_chinese.wav,,,,,,,,,0,0,0,0,0,186,186,131,541.031892809,9.62149351835e-06,541.830760803,0.798878578469,,,,x,1,0.783746155794,2018_Nov_14_1236,59.9860135434,chinese_cond2,001,1016,
images/acousticguitar02.jpg,acoustic guitar,z,sounds/greatgatsby_chinese.wav,,,,,,,,,0,0,0,0,0,187,187,97,542.946235207,9.30088572204e-06,544.214703174,1.26847822987,,,,z,1,1.25057544769,2018_Nov_14_1236,59.9860135434,chinese_cond2,001,1016,
images/flashlight05.jpg,flash light,z,sounds/greatgatsby_chinese.wav,,,,,,,,,0,0,0,0,0,188,188,8,545.318275745,9.30088572204e-06,546.248492386,0.930227225297,,,,z,1,0.917131359805,2018_Nov_14_1236,59.9860135434,chinese_cond2,001,1016,
images/cloud.jpg,ceiling fan,x,sounds/greatgatsby_chinese.wav,,,,,,,,,0,0,0,0,0,189,189,149,547.3547654,9.30076930672e-06,548.415685404,1.06093026733,,,,x,1,1.05050501821,2018_Nov_14_1236,59.9860135434,chinese_cond2,001,1016,
images/cockroach02.jpg,belt,x,sounds/greatgatsby_chinese.wav,,,,,,,,,0,0,0,0,0,190,190,129,549.515673313,9.94221772999e-06,550.34948767,0.83382526075,,,,x,1,0.817123566405,2018_Nov_14_1236,59.9860135434,chinese_cond2,001,1016,
images/leek.jpg,donut,x,sounds/greatgatsby_chinese.wav,,,,,,,,,0,0,0,0,0,191,191,169,551.454432912,9.94221772999e-06,552.466653859,1.01223088976,,,,x,1,1.00045157049,2018_Nov_14_1236,59.9860135434,chinese_cond2,001,1016,
images/razor04a.jpg,razor,z,sounds/greatgatsby_chinese.wav,,,,,,,,,0,0,0,0,0,192,192,36,553.569007061,9.30088572204e-06,555.367369605,1.79837280675,,,,x,0,1.78400401282,2018_Nov_14_1236,59.9860135434,chinese_cond2,001,1016,
images/belt02a.jpg,snowman,x,sounds/greatgatsby_chinese.wav,,,,,,,,,0,0,0,0,0,193,193,224,556.471684316,9.94221772999e-06,558.018001563,1.54632783053,,,,x,1,1.53395582491,2018_Nov_14_1236,59.9860135434,chinese_cond2,001,1016,
images/squirrel.jpg,binder,x,sounds/greatgatsby_chinese.wav,,,,,,,,,0,0,0,0,0,194,194,132,559.121813068,9.62149351835e-06,561.202106987,2.08030482288,,,,z,0,2.06742383842,2018_Nov_14_1236,59.9860135434,chinese_cond2,001,1016,
images/lily.jpg,kiwi,x,sounds/greatgatsby_chinese.wav,,,,,,,,,0,0,0,0,0,195,195,190,562.302078539,9.30076930672e-06,563.586005099,1.28393714316,,,,x,1,1.26722646866,2018_Nov_14_1236,59.9860135434,chinese_cond2,001,1016,
,,,sounds/greatgatsby_chinese.wav,,,,,,,,,0,0,0,0,,,,,,,,,,,,,,,2018_Nov_14_1236,59.9860135434,chinese_cond2,001,1016,
images/baseball01a.jpg,baseball,z,sounds/animalfarm_english.wav,,,,,,,,,0,1,1,1,0,0,0,74,584.744202627,9.30076930672e-06,587.541787751,2.79759506637,,,574.588802719,x,0,2.78427373641,2018_Nov_14_1236,59.9860135434,chinese_cond2,001,1016,
images/sportshorts02.jpg,tape,x,sounds/animalfarm_english.wav,,,,,,,,,0,1,1,1,0,1,1,230,588.647482831,8.98016151041e-06,590.725858858,2.07838596904,,,,z,0,2.06740908534,2018_Nov_14_1236,59.9860135434,chinese_cond2,001,1016,
images/donut.jpg,rhinoceros,x,sounds/animalfarm_english.wav,,,,,,,,,0,1,1,1,0,2,2,216,591.850166469,1.02629419416e-05,593.593221247,1.74306536198,,,,x,1,1.73400348355,2018_Nov_14_1236,59.9860135434,chinese_cond2,001,1016,
images/belt02a.jpg,snowman,x,sounds/animalfarm_english.wav,,,,,,,,,0,1,1,1,0,3,3,224,594.694317877,8.98004509509e-06,596.177184015,1.48287575995,,,,x,1,1.46728278673,2018_Nov_14_1236,59.9860135434,chinese_cond2,001,1016,
images/basketball01.jpg,basket ball,z,sounds/animalfarm_english.wav,,,,,,,,,0,1,1,1,0,4,4,33,597.314445413,9.62149351835e-06,598.211002092,0.89656726236,,,,z,1,0.883805584745,2018_Nov_14_1236,59.9860135434,chinese_cond2,001,1016,
images/ceilingfan02.jpg,paper clip,x,sounds/animalfarm_english.wav,,,,,,,,,0,1,1,1,0,5,5,208,599.307627597,9.30076930672e-06,600.161458265,0.853839968913,,,,x,1,0.833781963913,2018_Nov_14_1236,59.9860135434,chinese_cond2,001,1016,
images/toucan.jpg,toucan,z,sounds/animalfarm_english.wav,,,,,,,,,0,1,1,1,0,6,6,81,601.261665224,9.62149351835e-06,602.462047712,1.20039275091,,,,x,0,1.18388701498,2018_Nov_14_1236,59.9860135434,chinese_cond2,001,1016,
images/bowl02b (1).jpg,bowl,z,sounds/animalfarm_english.wav,,,,,,,,,0,1,1,1,0,7,7,24,603.577389339,9.94221772999e-06,604.329127548,0.751748793409,,,,z,1,0.733754286077,2018_Nov_14_1236,59.9860135434,chinese_cond2,001,1016,
images/ostrich.jpg,ostrich,z,sounds/animalfarm_english.wav,,,,,,,,,0,1,1,1,0,8,8,76,605.427365301,9.62160993367e-06,606.346286586,0.918931227527,,,,z,1,0.900465585873,2018_Nov_14_1236,59.9860135434,chinese_cond2,001,1016,
images/lollipop03b.jpg,lollipop,z,sounds/animalfarm_english.wav,,,,,,,,,0,1,1,1,0,9,9,42,607.438802094,9.30088572204e-06,608.963574488,1.52478297835,,,,x,0,1.50059669523,2018_Nov_14_1236,59.9860135434,chinese_cond2,001,1016,
images/highlighter03b.jpg,coin,x,sounds/animalfarm_english.wav,,,,,,,,,0,1,1,1,0,10,10,156,610.065315761,9.30076930672e-06,610.947451369,0.882145549986,,,,x,1,0.867173165432,2018_Nov_14_1236,59.9860135434,chinese_cond2,001,1016,
images/graduationcap.jpg,graduation cap,z,sounds/animalfarm_english.wav,,,,,,,,,0,1,1,1,0,11,11,35,612.048907844,8.98004509509e-06,613.097928581,1.0490303582,,,,z,1,1.03384597925,2018_Nov_14_1236,59.9860135434,chinese_cond2,001,1016,
images/lip.jpg,boxing glove,x,sounds/animalfarm_english.wav,,,,,,,,,0,1,1,1,0,12,12,136,614.2801283,9.30076930672e-06,615.631845278,1.35172659962,,,,z,0,1.33389180969,2018_Nov_14_1236,59.9860135434,chinese_cond2,001,1016,
images/volleyball.jpg,volley ball,z,sounds/animalfarm_english.wav,,,,,,,,,0,1,1,1,0,13,13,2,616.762529077,9.62149351835e-06,618.01576584,1.25324734673,,,,z,1,1.23388209206,2018_Nov_14_1236,59.9860135434,chinese_cond2,001,1016,
images/elbow.jpg,elbow,z,sounds/animalfarm_english.wav,,,,,,,,,0,1,1,1,0,14,14,105,619.125288365,8.98004509509e-06,619.86619658,0.740918477764,,,,z,1,0.717072796891,2018_Nov_14_1236,59.9860135434,chinese_cond2,001,1016,
images/bracelet02a.jpg,chess knight,x,sounds/animalfarm_english.wav,,,,,,,,,0,1,1,1,0,15,15,152,620.972803461,9.62149351835e-06,621.933363524,0.960570325842,,,,x,1,0.950474774465,2018_Nov_14_1236,59.9860135434,chinese_cond2,001,1016,
images/cola.jpg,comb,x,sounds/animalfarm_english.wav,,,,,,,,,0,1,1,1,0,16,16,157,623.053042216,9.30076930672e-06,624.400634444,1.34760184947,,,,x,1,1.33390976989,2018_Nov_14_1236,59.9860135434,chinese_cond2,001,1016,
images/binder03b.jpg,dj mixer,x,sounds/animalfarm_english.wav,,,,,,,,,0,1,1,1,0,17,17,167,625.51338852,8.98004509509e-06,627.201316739,1.6879381605,,,,x,1,1.6673307661,2018_Nov_14_1236,59.9860135434,chinese_cond2,001,1016,
images/gps.jpg,gps,z,sounds/animalfarm_english.wav,,,,,,,,,0,1,1,1,0,18,18,21,628.318223147,8.98004509509e-06,629.151777722,0.833564196597,,,,z,1,0.817116189981,2018_Nov_14_1236,59.9860135434,chinese_cond2,001,1016,
images/dragonfly02.jpg,dragon fly,z,sounds/animalfarm_english.wav,,,,,,,,,0,1,1,1,0,19,19,29,630.24762709,9.30088572204e-06,631.152252064,0.904635236599,,,,z,1,0.883802056895,2018_Nov_14_1236,59.9860135434,chinese_cond2,001,1016,
images/floorlamp.jpg,floor lamp,z,sounds/animalfarm_english.wav,,,,,,,,,0,1,1,1,0,20,20,26,632.243361545,9.30088572204e-06,632.969360877,0.7260092746,,,,z,1,0.717096850742,2018_Nov_14_1236,59.9860135434,chinese_cond2,001,1016,
images/tulip02.jpg,sport shorts,x,sounds/animalfarm_english.wav,,,,,,,,,0,1,1,1,0,21,21,225,634.062376383,9.62160993367e-06,635.019685652,0.957319852081,,,,x,1,0.933634209214,2018_Nov_14_1236,59.9860135434,chinese_cond2,001,1016,
images/headphones02b.jpg,headphones,z,sounds/animalfarm_english.wav,,,,,,,,,0,1,1,1,0,22,22,101,636.127170016,9.62160993367e-06,637.070339483,0.943179409136,,,,z,1,0.933805151843,2018_Nov_14_1236,59.9860135434,chinese_cond2,001,1016,
images/hairdryer03a.jpg,hairdryer,z,sounds/animalfarm_english.wav,,,,,,,,,0,1,1,1,0,23,23,119,638.167378072,9.62160993367e-06,639.020807202,0.853439392522,,,,z,1,0.833781963913,2018_Nov_14_1236,59.9860135434,chinese_cond2,001,1016,
images/8ball.jpg,nail clipper,x,sounds/animalfarm_english.wav,,,,,,,,,0,1,1,1,0,24,24,206,640.136020541,9.94221772999e-06,640.987969559,0.851959601161,,,,x,1,0.833798320615,2018_Nov_14_1236,59.9860135434,chinese_cond2,001,1016,
images/bottleofredwine02.jpg,pipe,x,sounds/animalfarm_english.wav,,,,,,,,,0,1,1,1,0,25,25,213,642.084658886,9.30076930672e-06,643.105120675,1.02047237218,,,,x,1,1.00047626579,2018_Nov_14_1236,59.9860135434,chinese_cond2,001,1016,
images/blackolive.jpg,tank,x,sounds/animalfarm_english.wav,,,,,,,,,0,1,1,1,0,26,26,229,644.219582252,9.62149351835e-06,645.772446309,1.55287399923,,,,x,1,1.53395229706,2018_Nov_14_1236,59.9860135434,chinese_cond2,001,1016,
images/comb02a.jpg,diploma,x,sounds/animalfarm_english.wav,,,,,,,,,0,1,1,1,0,27,27,166,646.875113173,8.98004509509e-06,647.672884314,0.797781082569,,,,x,1,0.783765719621,2018_Nov_14_1236,59.9860135434,chinese_cond2,001,1016,
images/calculator02b.jpg,dice,x,sounds/animalfarm_english.wav,,,,,,,,,0,1,1,1,0,28,28,165,648.774841429,9.30076930672e-06,649.97344682,1.19861533341,,,,z,0,1.1838652062,2018_Nov_14_1236,59.9860135434,chinese_cond2,001,1016,
images/screw03c.jpg,screw,z,sounds/animalfarm_english.wav,,,,,,,,,0,1,1,1,0,29,29,84,651.066945007,9.30088572204e-06,652.073975139,1.00704071543,,,,z,1,0.983833904145,2018_Nov_14_1236,59.9860135434,chinese_cond2,001,1016,
images/mitten01.jpg,mitten,z,sounds/animalfarm_english.wav,,,,,,,,,0,1,1,1,0,30,30,102,653.192863262,9.62149351835e-06,653.974407691,0.781554691843,,,,z,1,0.767089682631,2018_Nov_14_1236,59.9860135434,chinese_cond2,001,1016,
images/gamecontroller01.jpg,game controller,z,sounds/animalfarm_english.wav,,,,,,,,,0,1,1,1,0,31,31,112,655.092500755,9.62149351835e-06,655.741510202,0.649020031095,,,,z,1,0.633728853078,2018_Nov_14_1236,59.9860135434,chinese_cond2,001,1016,
images/shotglass.jpg,shot glass,z,sounds/animalfarm_english.wav,,,,,,,,,0,1,1,1,0,32,32,86,656.849089819,8.98004509509e-06,657.758728252,0.909648695495,,,,z,1,0.900528446538,2018_Nov_14_1236,59.9860135434,chinese_cond2,001,1016,
images/masquerademask02b.jpg,mirror,x,sounds/animalfarm_english.wav,,,,,,,,,0,1,1,1,0,33,33,204,658.861958296,9.94221772999e-06,659.509087375,0.647139021778,,,,z,0,0.633747454733,2018_Nov_14_1236,59.9860135434,chinese_cond2,001,1016,
images/stapler03a.jpg,candy cane,x,sounds/animalfarm_english.wav,,,,,,,,,0,1,1,1,0,34,34,145,660.617808427,8.98016151041e-06,661.709600075,1.09180126921,,,,x,1,1.08384330117,2018_Nov_14_1236,59.9860135434,chinese_cond2,001,1016,
images/cupcake.jpg,scissors,x,sounds/animalfarm_english.wav,,,,,,,,,0,1,1,1,0,35,35,219,662.827196026,9.30076930672e-06,663.626723737,0.799537653336,,,,x,1,0.783756418852,2018_Nov_14_1236,59.9860135434,chinese_cond2,001,1016,
images/broadsword.jpg,teapot,x,sounds/animalfarm_english.wav,,,,,,,,,0,1,1,1,0,36,36,231,664.718897039,8.98004509509e-06,665.577442257,0.858555481071,,,,x,1,0.850685389712,2018_Nov_14_1236,59.9860135434,chinese_cond2,001,1016,
images/plate01b.jpg,plate,z,sounds/animalfarm_english.wav,,,,,,,,,0,1,1,1,0,37,37,3,666.676444601,9.30076930672e-06,667.410971816,0.734537157812,,,,z,1,0.717087229132,2018_Nov_14_1236,59.9860135434,chinese_cond2,001,1016,
images/hammer02a.jpg,flower,x,sounds/animalfarm_english.wav,,,,,,,,,0,1,1,1,0,38,38,176,668.504380523,9.62160993367e-06,669.32811376,0.823743500281,,,,x,1,0.800451698829,2018_Nov_14_1236,59.9860135434,chinese_cond2,001,1016,
images/cheetah.jpg,cheetah,z,sounds/animalfarm_english.wav,,,,,,,,,0,1,1,1,0,39,39,82,670.428788967,9.94221772999e-06,671.561974364,1.13319598057,,,,z,1,1.11718415003,2018_Nov_14_1236,59.9860135434,chinese_cond2,001,1016,
images/tape01a.jpg,tie,x,sounds/animalfarm_english.wav,,,,,,,,,0,1,1,1,0,40,40,232,672.686459652,9.62160993367e-06,673.795843627,1.10939455882,,,,z,0,1.10051388596,2018_Nov_14_1236,59.9860135434,chinese_cond2,001,1016,
images/grasshopper.jpg,cauliflower,x,sounds/animalfarm_english.wav,,,,,,,,,0,1,1,1,0,41,41,148,674.888171835,9.30076930672e-06,676.479833753,1.59167185961,,,,x,1,1.56730757828,2018_Nov_14_1236,59.9860135434,chinese_cond2,001,1016,
images/tissuebox03.jpg,tissue box,z,sounds/animalfarm_english.wav,,,,,,,,,0,1,1,1,0,42,42,58,677.603171834,8.98016151041e-06,678.430292171,0.827130279038,,,,z,1,0.817114265636,2018_Nov_14_1236,59.9860135434,chinese_cond2,001,1016,
images/skateboard.jpg,key,x,sounds/animalfarm_english.wav,,,,,,,,,0,1,1,1,0,43,43,189,679.520000436,9.30076930672e-06,680.330750059,0.810760206659,,,,x,1,0.80043854937,2018_Nov_14_1236,59.9860135434,chinese_cond2,001,1016,
images/bandaid01.jpg,door handle,x,sounds/animalfarm_english.wav,,,,,,,,,0,1,1,1,0,44,44,170,681.437785739,9.62149351835e-06,682.31455125,0.876775132259,,,,x,1,0.867119284812,2018_Nov_14_1236,59.9860135434,chinese_cond2,001,1016,
images/umbrella01.jpg,umbrella,z,sounds/animalfarm_english.wav,,,,,,,,,0,1,1,1,0,45,45,53,683.427527905,9.30076930672e-06,684.215021647,0.787505608518,,,,z,1,0.767102831975,2018_Nov_14_1236,59.9860135434,chinese_cond2,001,1016,
images/ashtray02b.jpg,ashtray,z,sounds/animalfarm_english.wav,,,,,,,,,0,1,1,1,0,46,46,43,685.328460456,8.98016151041e-06,686.999024377,1.67057418416,,,,z,1,1.65064735257,2018_Nov_14_1236,59.9860135434,chinese_cond2,001,1016,
images/electricguitar02.jpg,electric guitar,z,sounds/animalfarm_english.wav,,,,,,,,,0,1,1,1,0,47,47,100,688.099970269,9.30076930672e-06,688.882808153,0.782847825554,,,,z,1,0.767096096999,2018_Nov_14_1236,59.9860135434,chinese_cond2,001,1016,
images/djmixer01.jpg,light bulb,x,sounds/animalfarm_english.wav,,,,,,,,,0,1,1,1,0,48,48,196,690.003403777,9.62160993367e-06,691.133343511,1.12994967622,,,,x,1,1.11718415003,2018_Nov_14_1236,59.9860135434,chinese_cond2,001,1016,
images/leek.jpg,donut,x,sounds/animalfarm_english.wav,,,,,,,,,0,1,1,1,0,49,49,169,692.233355474,8.98016151041e-06,693.100493039,0.867148149526,,,,x,1,0.850455755834,2018_Nov_14_1236,59.9860135434,chinese_cond2,001,1016,
images/doll.jpg,carrot,x,sounds/animalfarm_english.wav,,,,,,,,,0,1,1,1,0,50,50,146,694.211412931,8.98004509509e-06,694.950927949,0.73952463863,,,,x,1,0.71708787058,2018_Nov_14_1236,59.9860135434,chinese_cond2,001,1016,
images/candycane01a.jpg,lip,x,sounds/animalfarm_english.wav,,,,,,,,,0,1,1,1,0,51,51,200,696.04363749,9.62149351835e-06,697.45154966,1.40792243253,,,,x,1,1.3839272972,2018_Nov_14_1236,59.9860135434,chinese_cond2,001,1016,
images/microphone01.jpg,diaper,x,sounds/animalfarm_english.wav,,,,,,,,,0,1,1,1,0,52,52,164,698.550602997,9.30088572204e-06,700.702337743,2.15174468828,,,,x,1,2.13411644043,2018_Nov_14_1236,59.9860135434,chinese_cond2,001,1016,
images/parkfountain.jpg,park fountain,z,sounds/animalfarm_english.wav,,,,,,,,,0,1,1,1,0,53,53,93,701.822396486,9.62149351835e-06,702.586108691,0.763722467585,,,,z,1,0.750433209469,2018_Nov_14_1236,59.9860135434,chinese_cond2,001,1016,
images/banana04a.jpg,banana,z,sounds/animalfarm_english.wav,,,,,,,,,0,1,1,1,0,54,54,118,703.692369196,9.30076930672e-06,704.369857733,0.6774981583,,,,z,1,0.667068739654,2018_Nov_14_1236,59.9860135434,chinese_cond2,001,1016,
images/lighter02b.jpg,stapler,x,sounds/animalfarm_english.wav,,,,,,,,,0,1,1,1,0,55,55,227,705.471260007,9.30088572204e-06,707.303909517,1.83266009344,,,,x,1,1.81735576608,2018_Nov_14_1236,59.9860135434,chinese_cond2,001,1016,
images/beermug01b.jpg,beer mug,z,sounds/animalfarm_english.wav,,,,,,,,,0,1,1,1,0,56,56,111,708.419594953,9.30076930672e-06,709.121012557,0.70142786717,,,,z,1,0.68375407753,2018_Nov_14_1236,59.9860135434,chinese_cond2,001,1016,
images/marker01a.jpg,marker,z,sounds/animalfarm_english.wav,,,,,,,,,0,1,1,1,0,57,57,95,710.217612084,1.02629419416e-05,711.154830955,0.93723041669,,,,z,1,0.917143867817,2018_Nov_14_1236,59.9860135434,chinese_cond2,001,1016,
images/bus.jpg,microphone,x,sounds/animalfarm_english.wav,,,,,,,,,0,1,1,1,0,58,58,203,712.272253718,8.98016151041e-06,713.272005162,0.999761065352,,,,x,1,0.983809208963,2018_Nov_14_1236,59.9860135434,chinese_cond2,001,1016,
images/bull.jpg,button,x,sounds/animalfarm_english.wav,,,,,,,,,0,1,1,1,0,59,59,141,714.376523209,8.65932088345e-06,715.405857973,1.02934470645,,,,x,1,1.01716481068,2018_Nov_14_1236,59.9860135434,chinese_cond2,001,1016,
images/hairband.jpg,hairband,z,sounds/animalfarm_english.wav,,,,,,,,,0,1,1,1,0,60,60,66,716.513555614,9.30088572204e-06,718.123187985,1.60964263394,,,,z,1,1.60065035138,2018_Nov_14_1236,59.9860135434,chinese_cond2,001,1016,
images/dice05a.jpg,band aid,x,sounds/animalfarm_english.wav,,,,,,,,,0,1,1,1,0,61,61,126,719.234831737,9.62149351835e-06,721.057213791,1.82239231654,,,,x,1,1.80068550201,2018_Nov_14_1236,59.9860135434,chinese_cond2,001,1016,
images/lock02a.jpg,lock,z,sounds/animalfarm_english.wav,,,,,,,,,0,1,1,1,0,62,62,65,722.168157737,9.30076930672e-06,722.890991585,0.722843790893,,,,z,1,0.700421775808,2018_Nov_14_1236,59.9860135434,chinese_cond2,001,1016,
images/charcoalbarbecue.jpg,charcoal barbecue,z,sounds/animalfarm_english.wav,,,,,,,,,0,1,1,1,0,63,63,77,724.007991323,8.98004509509e-06,724.79144338,0.783461679239,,,,z,1,0.767085513216,2018_Nov_14_1236,59.9860135434,chinese_cond2,001,1016,
images/arrow02.jpg,hammer,x,sounds/animalfarm_english.wav,,,,,,,,,0,1,1,1,0,64,64,184,725.888446049,9.62149351835e-06,726.991974361,1.10353793297,,,,x,1,1.08384298044,2018_Nov_14_1236,59.9860135434,chinese_cond2,001,1016,
images/diploma01.jpg,glasses,x,sounds/animalfarm_english.wav,,,,,,,,,0,1,1,1,0,65,65,179,728.121206591,8.98004509509e-06,729.742917832,1.6217317665,,,,x,1,1.60086843942,2018_Nov_14_1236,59.9860135434,chinese_cond2,001,1016,
images/puma.jpg,puma,z,sounds/animalfarm_english.wav,,,,,,,,,0,1,1,1,0,66,66,4,730.839886825,9.30076930672e-06,732.359918692,1.52004212944,,,,z,1,1.5005989403,2018_Nov_14_1236,59.9860135434,chinese_cond2,001,1016,
images/ruler02b.jpg,watermelon,x,sounds/animalfarm_english.wav,,,,,,,,,0,1,1,1,0,67,67,238,733.46096112,9.62160993367e-06,734.393760181,0.932809644146,,,,x,1,0.917141943588,2018_Nov_14_1236,59.9860135434,chinese_cond2,001,1016,
images/showerhead01.jpg,skateboard,x,sounds/animalfarm_english.wav,,,,,,,,,0,1,1,1,0,68,68,223,735.501991176,8.98004509509e-06,736.560931069,1.05895015621,,,,x,1,1.05048705789,2018_Nov_14_1236,59.9860135434,chinese_cond2,001,1016,
images/key03b.jpg,cigar,x,sounds/animalfarm_english.wav,,,,,,,,,0,1,1,1,0,69,69,153,737.663065542,9.30076930672e-06,738.828172612,1.16511733294,,,,x,1,1.15053878969,2018_Nov_14_1236,59.9860135434,chinese_cond2,001,1016,
images/aquarium.jpg,computer mouse,x,sounds/animalfarm_english.wav,,,,,,,,,0,1,1,1,0,70,70,159,739.963470255,8.98016151041e-06,741.145389988,1.18192935432,,,,x,1,1.16720648797,2018_Nov_14_1236,59.9860135434,chinese_cond2,001,1016,
images/dolphin01.jpg,dolphin,z,sounds/animalfarm_english.wav,,,,,,,,,0,1,1,1,0,71,71,99,742.244104006,9.30076930672e-06,742.879123106,0.635028721881,,,,z,1,0.617048967513,2018_Nov_14_1236,59.9860135434,chinese_cond2,001,1016,
images/magnifyingglass01b.jpg,magnifying glass,z,sounds/animalfarm_english.wav,,,,,,,,,0,1,1,1,0,72,72,64,743.986102661,9.30076930672e-06,744.846284822,0.860192424152,,,,x,0,0.850460245856,2018_Nov_14_1236,59.9860135434,chinese_cond2,001,1016,
images/bowtie.jpg,bowtie,z,sounds/animalfarm_english.wav,,,,,,,,,0,1,1,1,0,73,73,89,745.956297404,8.98004509509e-06,747.596958891,1.6406717496,,,,z,1,1.61732574692,2018_Nov_14_1236,59.9860135434,chinese_cond2,001,1016,
images/acousticguitar02.jpg,acoustic guitar,z,sounds/animalfarm_english.wav,,,,,,,,,0,1,1,1,0,74,74,97,748.709579869,9.30088572204e-06,749.314000899,0.604431292159,,,,z,1,0.583710363717,2018_Nov_14_1236,59.9860135434,chinese_cond2,001,1016,
images/camera01a.jpg,bull,x,sounds/animalfarm_english.wav,,,,,,,,,0,1,1,1,0,75,75,138,750.423570569,9.62160993367e-06,751.281163897,0.857603591052,,,,x,1,0.833787736949,2018_Nov_14_1236,59.9860135434,chinese_cond2,001,1016,
images/corkscrew02a.jpg,masquerade mask,x,sounds/animalfarm_english.wav,,,,,,,,,0,1,1,1,0,76,76,201,752.386673603,8.98004509509e-06,753.948455857,1.56179251685,,,,x,1,1.5506289755,2018_Nov_14_1236,59.9860135434,chinese_cond2,001,1016,
images/lion.jpg,lion,z,sounds/animalfarm_english.wav,,,,,,,,,0,1,1,1,0,77,77,44,755.059757082,9.94221772999e-06,755.715554519,0.655807379517,,,,z,1,0.633735908894,2018_Nov_14_1236,59.9860135434,chinese_cond2,001,1016,
images/banjo.jpg,knife,x,sounds/animalfarm_english.wav,,,,,,,,,0,1,1,1,0,78,78,191,756.811353534,9.62160993367e-06,757.565986221,0.754643591237,,,,x,1,0.733752041007,2018_Nov_14_1236,59.9860135434,chinese_cond2,001,1016,
images/cockroach02.jpg,belt,x,sounds/animalfarm_english.wav,,,,,,,,,0,1,1,1,0,79,79,129,758.663817304,9.30076930672e-06,759.683005522,1.01919848158,,,,x,1,1.00031975552,2018_Nov_14_1236,59.9860135434,chinese_cond2,001,1016,
images/ladder.jpg,ladder,z,sounds/animalfarm_english.wav,,,,,,,,,0,1,1,1,0,80,80,113,760.774640981,9.62149351835e-06,761.450497706,0.675874043838,,,,z,1,0.667229098617,2018_Nov_14_1236,59.9860135434,chinese_cond2,001,1016,
images/flower01.jpg,bus,x,sounds/animalfarm_english.wav,,,,,,,,,0,1,1,1,0,81,81,140,762.564543954,9.30088572204e-06,763.417391943,0.852858572849,,,,x,1,0.83377041819,2018_Nov_14_1236,59.9860135434,chinese_cond2,001,1016,
images/birthdaycandle.jpg,birthday candle,z,sounds/animalfarm_english.wav,,,,,,,,,0,1,1,1,0,82,82,55,764.51239205,8.98004509509e-06,765.35119934,0.838817552314,,,,z,1,0.817105606198,2018_Nov_14_1236,59.9860135434,chinese_cond2,001,1016,
images/cocktailshrimp01.jpg,cocktail shrimp,z,sounds/animalfarm_english.wav,,,,,,,,,0,1,1,1,0,83,83,30,766.465758095,9.30088572204e-06,767.335006624,0.869258471881,,,,z,1,0.850454152329,2018_Nov_14_1236,59.9860135434,chinese_cond2,001,1016,
images/daisy.jpg,daisy,z,sounds/animalfarm_english.wav,,,,,,,,,0,1,1,1,0,84,84,6,768.437251744,9.30088572204e-06,769.235465796,0.798223993741,,,,z,1,0.783765719621,2018_Nov_14_1236,59.9860135434,chinese_cond2,001,1016,
images/rhinoceros01.jpg,envelope,x,sounds/animalfarm_english.wav,,,,,,,,,0,1,1,1,0,85,85,173,770.347827314,8.98004509509e-06,771.219387256,0.871606445988,,,,x,1,0.850479809684,2018_Nov_14_1236,59.9860135434,chinese_cond2,001,1016,
images/nailclipper03a.jpg,aquarium,x,sounds/animalfarm_english.wav,,,,,,,,,0,1,1,1,0,86,86,123,772.317086844,9.30076930672e-06,773.336469418,1.01939251577,,,,x,1,1.00050096097,2018_Nov_14_1236,59.9860135434,chinese_cond2,001,1016,
images/licenseplate.jpg,license plate,z,sounds/animalfarm_english.wav,,,,,,,,,0,1,1,1,0,87,87,40,774.454325792,9.62160993367e-06,775.170244005,0.715928155463,,,,z,1,0.700411192141,2018_Nov_14_1236,59.9860135434,chinese_cond2,001,1016,
images/dreamcatcher.jpg,dream catcher,z,sounds/animalfarm_english.wav,,,,,,,,,0,1,1,1,0,88,88,48,776.269008697,9.30076930672e-06,777.154037499,0.885038744309,,,,z,1,0.867121850606,2018_Nov_14_1236,59.9860135434,chinese_cond2,001,1016,
images/globe.jpg,cloud,x,sounds/animalfarm_english.wav,,,,,,,,,0,1,1,1,0,89,89,154,778.281783845,8.98016151041e-06,779.071170142,0.789396239328,,,,x,1,0.767104114871,2018_Nov_14_1236,59.9860135434,chinese_cond2,001,1016,
images/tank.jpg,wallet,x,sounds/animalfarm_english.wav,,,,,,,,,0,1,1,1,0,90,90,237,780.175773499,9.62149351835e-06,780.921616276,0.745853360742,,,,x,1,0.733767114696,2018_Nov_14_1236,59.9860135434,chinese_cond2,001,1016,
images/eraser.jpg,eraser,z,sounds/animalfarm_english.wav,,,,,,,,,0,1,1,1,0,91,91,110,782.027664146,9.94233414531e-06,782.638783364,0.611129481113,,,,z,1,0.600485502393,2018_Nov_14_1236,59.9860135434,chinese_cond2,001,1016,
images/coin01b.jpg,arrow,x,sounds/animalfarm_english.wav,,,,,,,,,0,1,1,1,0,92,92,124,783.740596798,9.30076930672e-06,784.489162468,0.748575291829,,,,x,1,0.733774170512,2018_Nov_14_1236,59.9860135434,chinese_cond2,001,1016,
images/safe.jpg,safe,z,sounds/animalfarm_english.wav,,,,,,,,,0,1,1,1,0,93,93,78,785.598907571,9.62149351835e-06,786.823033752,1.22413644358,,,,z,1,1.20054156391,2018_Nov_14_1236,59.9860135434,chinese_cond2,001,1016,
images/parkingmeter.jpg,ear,x,sounds/animalfarm_english.wav,,,,,,,,,0,1,1,1,0,94,94,171,787.923352321,8.98004509509e-06,789.190266411,1.26692403189,,,,x,1,1.25054626237,2018_Nov_14_1236,59.9860135434,chinese_cond2,001,1016,
images/triangleruler02.jpg,bottle of red wine,x,sounds/animalfarm_english.wav,,,,,,,,,0,1,1,1,0,95,95,134,790.299922996,9.62149351835e-06,792.074319589,1.77440685662,,,,x,1,1.75069876364,2018_Nov_14_1236,59.9860135434,chinese_cond2,001,1016,
images/ladybug03.jpg,giraffe,x,sounds/animalfarm_english.wav,,,,,,,,,0,1,1,1,0,96,96,178,793.176091651,9.30076930672e-06,794.008355337,0.832274270128,,,,x,1,0.817374367616,2018_Nov_14_1236,59.9860135434,chinese_cond2,001,1016,
images/apple06.jpg,apple,z,sounds/animalfarm_english.wav,,,,,,,,,0,1,1,1,0,97,97,13,795.135104251,9.30088572204e-06,795.891886067,0.756792079075,,,,z,1,0.733746909536,2018_Nov_14_1236,59.9860135434,chinese_cond2,001,1016,
images/sock03.jpg,sock,z,sounds/animalfarm_english.wav,,,,,,,,,0,1,1,1,0,98,98,90,796.99612541,9.30076930672e-06,797.92569356,0.929578092648,,,,z,1,0.917129114852,2018_Nov_14_1236,59.9860135434,chinese_cond2,001,1016,
images/cookingpot.jpg,grasshopper,x,sounds/animalfarm_english.wav,,,,,,,,,0,1,1,1,0,99,99,183,799.040209018,8.65932088345e-06,799.826168126,0.785968729295,,,,x,1,0.767112453585,2018_Nov_14_1236,59.9860135434,chinese_cond2,001,1016,
images/coffeepot03b.jpg,coffee pot,z,sounds/animalfarm_english.wav,,,,,,,,,0,1,1,1,0,100,100,107,800.94719255,9.62149351835e-06,801.826645033,0.879462746554,,,,z,1,0.867127623525,2018_Nov_14_1236,59.9860135434,chinese_cond2,001,1016,
images/scissors04a.jpg,leek,x,sounds/animalfarm_english.wav,,,,,,,,,0,1,1,1,0,101,101,194,802.919188764,8.98016151041e-06,803.660422828,0.741244006203,,,,x,1,0.717097171466,2018_Nov_14_1236,59.9860135434,chinese_cond2,001,1016,
images/lemon02.jpg,lemon,z,sounds/animalfarm_english.wav,,,,,,,,,0,1,1,1,0,102,102,14,804.771111162,9.30088572204e-06,805.394168454,0.623067234992,,,,z,1,0.600386721431,2018_Nov_14_1236,59.9860135434,chinese_cond2,001,1016,
images/flipflop01b.jpg,flip flop,z,sounds/animalfarm_english.wav,,,,,,,,,0,1,1,1,0,103,103,27,806.51044369,8.98004509509e-06,807.111243817,0.600810710224,,,,x,0,0.58372223028,2018_Nov_14_1236,59.9860135434,chinese_cond2,001,1016,
images/clothespin02a.jpg,clothes pin,z,sounds/animalfarm_english.wav,,,,,,,,,0,1,1,1,0,104,104,79,808.214964238,9.30088572204e-06,808.945022894,0.73006923974,,,,z,1,0.717092039878,2018_Nov_14_1236,59.9860135434,chinese_cond2,001,1016,
images/egg01b (1).jpg,egg,z,sounds/animalfarm_english.wav,,,,,,,,,0,1,1,1,0,105,105,19,810.056508853,9.30088572204e-06,810.678764993,0.622265761485,,,,z,1,0.60039441858,2018_Nov_14_1236,59.9860135434,chinese_cond2,001,1016,
images/gorilla.jpg,gorilla,z,sounds/animalfarm_english.wav,,,,,,,,,0,1,1,1,0,106,106,80,811.789900408,9.62149351835e-06,812.37919158,0.589301755885,,,,z,1,0.567065757117,2018_Nov_14_1236,59.9860135434,chinese_cond2,001,1016,
images/bench02.jpg,electric toothbrush,x,sounds/animalfarm_english.wav,,,,,,,,,0,1,1,1,0,107,107,172,813.487549579,8.65943729877e-06,814.796587371,1.30906665709,,,,x,1,1.3005820706,2018_Nov_14_1236,59.9860135434,chinese_cond2,001,1016,
images/carrot02.jpg,corkscrew,x,sounds/animalfarm_english.wav,,,,,,,,,0,1,1,1,0,108,108,161,815.900883802,8.98004509509e-06,817.163657426,1.26278388721,,,,x,1,1.25054946961,2018_Nov_14_1236,59.9860135434,chinese_cond2,001,1016,
images/lily.jpg,kiwi,x,sounds/animalfarm_english.wav,,,,,,,,,0,1,1,1,0,109,109,190,818.261981772,9.62149351835e-06,819.214148974,0.952177785337,,,,x,1,0.933798737475,2018_Nov_14_1236,59.9860135434,chinese_cond2,001,1016,
images/scooter.jpg,pen,x,sounds/animalfarm_english.wav,,,,,,,,,0,1,1,1,0,110,110,212,820.307747866,9.62149351835e-06,821.247978597,0.940241635079,,,,x,1,0.91713552922,2018_Nov_14_1236,59.9860135434,chinese_cond2,001,1016,
images/mailbox01.jpg,mail box,z,sounds/animalfarm_english.wav,,,,,,,,,0,1,1,1,0,111,111,73,822.366397189,8.98004509509e-06,823.131764297,0.765376729425,,,,z,1,0.75042904017,2018_Nov_14_1236,59.9860135434,chinese_cond2,001,1016,
images/mushroom01.jpg,shower head,x,sounds/animalfarm_english.wav,,,,,,,,,0,1,1,1,0,112,112,222,824.247000728,9.62149351835e-06,825.082234261,0.835243795067,,,,x,1,0.817104644026,2018_Nov_14_1236,59.9860135434,chinese_cond2,001,1016,
images/radish01.jpg,raisin,x,sounds/animalfarm_english.wav,,,,,,,,,0,1,1,1,0,113,113,214,826.19180778,9.30088572204e-06,826.982709468,0.790912271943,,,,z,0,0.767112453585,2018_Nov_14_1236,59.9860135434,chinese_cond2,001,1016,
images/broom02.jpg,broom,z,sounds/animalfarm_english.wav,,,,,,,,,0,1,1,1,0,114,114,116,828.0755396,9.94221772999e-06,829.183234354,1.10770533863,,,,x,0,1.08384682902,2018_Nov_14_1236,59.9860135434,chinese_cond2,001,1016,
images/cloud.jpg,ceiling fan,x,sounds/animalfarm_english.wav,,,,,,,,,0,1,1,1,0,115,115,149,830.2873499,9.62149351835e-06,831.200370621,0.913030984229,,,,x,1,0.900458850781,2018_Nov_14_1236,59.9860135434,chinese_cond2,001,1016,
images/desktopcomputer.jpg,desktop computer,z,sounds/animalfarm_english.wav,,,,,,,,,0,1,1,1,0,116,116,16,832.335370639,9.30076930672e-06,833.100823379,0.765462681768,,,,z,1,0.750422946527,2018_Nov_14_1236,59.9860135434,chinese_cond2,001,1016,
images/leaf01a.jpg,leaf,z,sounds/animalfarm_english.wav,,,,,,,,,0,1,1,1,0,117,117,68,834.202283702,9.30088572204e-06,834.867924607,0.665650526178,,,,z,1,0.650412908057,2018_Nov_14_1236,59.9860135434,chinese_cond2,001,1016,
images/squirrel.jpg,binder,x,sounds/animalfarm_english.wav,,,,,,,,,0,1,1,1,0,118,118,132,835.969879157,9.30076930672e-06,837.468539679,1.49867078557,,,,x,1,1.48393348698,2018_Nov_14_1236,59.9860135434,chinese_cond2,001,1016,
images/bicycle.jpg,hand bag,x,sounds/animalfarm_english.wav,,,,,,,,,0,1,1,1,0,119,119,186,838.579421085,9.62160993367e-06,839.519048225,0.939638044452,,,,x,1,0.917141622747,2018_Nov_14_1236,59.9860135434,chinese_cond2,001,1016,
images/treadmill.jpg,lily,x,sounds/animalfarm_english.wav,,,,,,,,,0,1,1,1,0,120,120,199,840.626963313,9.62149351835e-06,841.419498738,0.792550818529,,,,x,1,0.783768926747,2018_Nov_14_1236,59.9860135434,chinese_cond2,001,1016,
images/barrel01.jpg,barrel,z,sounds/animalfarm_english.wav,,,,,,,,,0,1,1,1,0,121,121,9,842.549937829,8.65932088345e-06,843.586687586,1.03675969935,,,,z,1,1.01715583063,2018_Nov_14_1236,59.9860135434,chinese_cond2,001,1016,
images/pen03c.jpg,pepper,x,sounds/animalfarm_english.wav,,,,,,,,,0,1,1,1,0,122,122,211,844.680044336,9.62149351835e-06,845.487137136,0.807102742256,,,,x,1,0.783764757332,2018_Nov_14_1236,59.9860135434,chinese_cond2,001,1016,
images/notebook02b.jpg,notebook,z,sounds/animalfarm_english.wav,,,,,,,,,0,1,1,1,0,123,123,7,846.592700081,8.98016151041e-06,847.270914401,0.678224263131,,,,z,1,0.667028970667,2018_Nov_14_1236,59.9860135434,chinese_cond2,001,1016,
images/beachumbrella01.jpg,beach umbrella,z,sounds/animalfarm_english.wav,,,,,,,,,0,1,1,1,0,124,124,92,848.376159194,8.98004509509e-06,849.121345462,0.74519621022,,,,z,1,0.733741457341,2018_Nov_14_1236,59.9860135434,chinese_cond2,001,1016,
images/dresser02.jpg,dresser,z,sounds/animalfarm_english.wav,,,,,,,,,0,1,1,1,0,125,125,87,850.244691561,9.30076930672e-06,851.171849197,0.927167899208,,,,x,0,0.917114361771,2018_Nov_14_1236,59.9860135434,chinese_cond2,001,1016,
images/wallet01.jpg,lamp,x,sounds/animalfarm_english.wav,,,,,,,,,0,1,1,1,0,126,126,193,852.277834206,9.94233414531e-06,853.122314029,0.844490086194,,,,x,1,0.833787416108,2018_Nov_14_1236,59.9860135434,chinese_cond2,001,1016,
images/thumbtack02a.jpg,thumb tack,z,sounds/animalfarm_english.wav,,,,,,,,,0,1,1,1,0,127,127,60,854.231752527,8.98016151041e-06,855.589566669,1.35782408447,,,,x,0,1.33390175202,2018_Nov_14_1236,59.9860135434,chinese_cond2,001,1016,
images/fireextinguisher02.jpg,fire extinguisher,z,sounds/animalfarm_english.wav,,,,,,,,,0,1,1,1,0,128,128,175,856.69932428,9.94221772999e-06,857.84011261,1.14079859341,,,,z,1,1.11717645277,2018_Nov_14_1236,59.9860135434,chinese_cond2,001,1016,
images/pictureframe04.jpg,picture frame,z,sounds/animalfarm_english.wav,,,,,,,,,0,1,1,1,0,129,129,41,858.961342935,9.30076930672e-06,860.207342062,1.24600874854,,,,z,1,1.23380415759,2018_Nov_14_1236,59.9860135434,chinese_cond2,001,1016,
images/snowman.jpg,globe,x,sounds/animalfarm_english.wav,,,,,,,,,0,1,1,1,0,130,130,180,861.317671833,9.30076930672e-06,862.107814062,0.790152491652,,,,x,1,0.767109246459,2018_Nov_14_1236,59.9860135434,chinese_cond2,001,1016,
images/electrictoothbrush01a.jpg,banjo,x,sounds/animalfarm_english.wav,,,,,,,,,0,1,1,1,0,131,131,127,863.202263818,9.30076930672e-06,864.191643572,0.989390017348,,,,x,1,0.967150811339,2018_Nov_14_1236,59.9860135434,chinese_cond2,001,1016,
images/50dollarbill.jpg,cherry,x,sounds/animalfarm_english.wav,,,,,,,,,0,1,1,1,0,132,132,151,865.313250419,9.30088572204e-06,866.242140573,0.928900416242,,,,x,1,0.917143867817,2018_Nov_14_1236,59.9860135434,chinese_cond2,001,1016,
images/saltshaker03c.jpg,salt shaker,z,sounds/animalfarm_english.wav,,,,,,,,,0,1,1,1,0,133,133,63,867.352982851,9.30088572204e-06,868.175938348,0.822966080625,,,,z,1,0.800440152991,2018_Nov_14_1236,59.9860135434,chinese_cond2,001,1016,
images/ear.jpg,bullet,x,sounds/animalfarm_english.wav,,,,,,,,,0,1,1,1,0,134,134,139,869.27879668,9.62160993367e-06,870.109729388,0.830942970933,,,,x,1,0.81709919183,2018_Nov_14_1236,59.9860135434,chinese_cond2,001,1016,
images/screwdriver02b.jpg,cola,x,sounds/animalfarm_english.wav,,,,,,,,,0,1,1,1,0,135,135,158,871.203159903,9.30088572204e-06,872.47697263,1.27382266941,,,,x,1,1.25055652531,2018_Nov_14_1236,59.9860135434,chinese_cond2,001,1016,
images/nametag01a.jpg,name tag,z,sounds/animalfarm_english.wav,,,,,,,,,0,1,1,1,0,136,136,108,873.599008918,1.02630583569e-05,874.344101216,0.745103522902,,,,z,1,0.73377096327,2018_Nov_14_1236,59.9860135434,chinese_cond2,001,1016,
images/corn01.jpg,corn,z,sounds/animalfarm_english.wav,,,,,,,,,0,1,1,1,0,137,137,22,875.443413693,9.30076930672e-06,876.22786607,0.784462318406,,,,z,1,0.767089041066,2018_Nov_14_1236,59.9860135434,chinese_cond2,001,1016,
images/seagull.jpg,seagull,z,sounds/animalfarm_english.wav,,,,,,,,,0,1,1,1,0,138,138,50,877.334414259,9.30088572204e-06,878.36171888,1.02731424279,,,,z,1,1.01715807559,2018_Nov_14_1236,59.9860135434,chinese_cond2,001,1016,
images/rubberglove02a.jpg,lady bug,x,sounds/animalfarm_english.wav,,,,,,,,,0,1,1,1,0,139,139,192,879.466701005,9.30076930672e-06,880.778957841,1.31226741953,,,,x,1,1.30055320589,2018_Nov_14_1236,59.9860135434,chinese_cond2,001,1016,
images/apricot.jpg,apricot,z,sounds/animalfarm_english.wav,,,,,,,,,0,1,1,1,0,140,140,32,881.896036795,9.30076930672e-06,882.729439029,0.833412176347,,,,x,0,0.817110416945,2018_Nov_14_1236,59.9860135434,chinese_cond2,001,1016,
images/bed.jpg,bed,z,sounds/animalfarm_english.wav,,,,,,,,,0,1,1,1,0,141,141,103,883.849016696,8.98004509509e-06,884.596549014,0.747541939374,,,,z,1,0.733753323788,2018_Nov_14_1236,59.9860135434,chinese_cond2,001,1016,
images/lychee02a.jpg,lychee,z,sounds/animalfarm_english.wav,,,,,,,,,0,1,1,1,0,142,142,62,885.719943541,9.30076930672e-06,886.54702026,0.827086340752,,,,z,1,0.817106568371,2018_Nov_14_1236,59.9860135434,chinese_cond2,001,1016,
images/panda.jpg,panda,z,sounds/animalfarm_english.wav,,,,,,,,,0,1,1,1,0,143,143,83,887.655485058,8.98016151041e-06,888.44748328,0.792008164222,,,,z,1,0.783773096045,2018_Nov_14_1236,59.9860135434,chinese_cond2,001,1016,
images/cherry01.jpg,highlighter,x,sounds/animalfarm_english.wav,,,,,,,,,0,1,1,1,0,144,144,187,889.555284834,9.30076930672e-06,890.33126866,0.775993447052,,,,x,1,0.767110849964,2018_Nov_14_1236,59.9860135434,chinese_cond2,001,1016,
images/aloe02.jpg,broad sword,x,sounds/animalfarm_english.wav,,,,,,,,,0,1,1,1,0,145,145,137,891.454259404,9.62149351835e-06,892.865061881,1.41081274033,,,,x,1,1.40043559868,2018_Nov_14_1236,59.9860135434,chinese_cond2,001,1016,
images/bowlingball.jpg,bowling ball,z,sounds/animalfarm_english.wav,,,,,,,,,0,1,1,1,0,146,146,20,893.999019566,9.62160993367e-06,895.132414712,1.13340508856,,,,z,1,1.11717035912,2018_Nov_14_1236,59.9860135434,chinese_cond2,001,1016,
images/crocodile.jpg,triangle ruler,x,sounds/animalfarm_english.wav,,,,,,,,,0,1,1,1,0,147,147,235,896.230830143,8.98004509509e-06,897.866427176,1.63560729648,,,,x,1,1.61731612543,2018_Nov_14_1236,59.9860135434,chinese_cond2,001,1016,
images/pouch01b.jpg,pouch,z,sounds/animalfarm_english.wav,,,,,,,,,0,1,1,1,0,148,148,25,898.979027629,9.30076930672e-06,899.716858878,0.737841832917,,,,z,1,0.717083380558,2018_Nov_14_1236,59.9860135434,chinese_cond2,001,1016,
images/hanger02a.jpg,hanger,z,sounds/animalfarm_english.wav,,,,,,,,,0,1,1,1,0,149,149,88,900.811129674,9.30088572204e-06,901.834044952,1.0229249004,,,,x,0,1.0005012817,2018_Nov_14_1236,59.9860135434,chinese_cond2,001,1016,
images/cat.jpg,black olive,x,sounds/animalfarm_english.wav,,,,,,,,,0,1,1,1,0,150,150,133,902.96592118,8.98016151041e-06,904.55135027,1.58543903206,,,,x,1,1.56728801446,2018_Nov_14_1236,59.9860135434,chinese_cond2,001,1016,
images/doorhandle.jpg,doll,x,sounds/animalfarm_english.wav,,,,,,,,,0,1,1,1,0,151,151,168,905.654811551,8.98004509509e-06,906.585171874,0.930369944661,,,,x,1,0.917126549175,2018_Nov_14_1236,59.9860135434,chinese_cond2,001,1016,
images/computerkeyboard01a.jpg,computer keyboard,z,sounds/animalfarm_english.wav,,,,,,,,,0,1,1,1,0,152,152,61,907.702982386,9.30076930672e-06,908.485637139,0.782664695755,,,,z,1,0.76711213286,2018_Nov_14_1236,59.9860135434,chinese_cond2,001,1016,
images/lettuce.jpg,mushroom,x,sounds/animalfarm_english.wav,,,,,,,,,0,1,1,1,0,153,153,205,909.610014346,9.94221772999e-06,910.335900785,0.725897023338,,,,x,1,0.716888384195,2018_Nov_14_1236,59.9860135434,chinese_cond2,001,1016,
images/tie01.jpg,bench,x,sounds/animalfarm_english.wav,,,,,,,,,0,1,1,1,0,154,154,130,911.435454763,9.94221772999e-06,913.253442343,1.81799752219,,,,z,0,1.80067876691,2018_Nov_14_1236,59.9860135434,chinese_cond2,001,1016,
images/cake.jpg,cake,z,sounds/animalfarm_english.wav,,,,,,,,,0,1,1,1,0,155,155,23,914.370041183,9.30088572204e-06,915.25392791,0.883896668674,,,,z,1,0.867121209158,2018_Nov_14_1236,59.9860135434,chinese_cond2,001,1016,
images/kiwi03.jpg,backpack,x,sounds/animalfarm_english.wav,,,,,,,,,0,1,1,1,0,156,156,125,916.382832367,9.94221772999e-06,917.154384836,0.771562090726,,,,x,1,0.750428077881,2018_Nov_14_1236,59.9860135434,chinese_cond2,001,1016,
images/battery03b.jpg,battery,z,sounds/animalfarm_english.wav,,,,,,,,,0,1,1,1,0,157,157,34,918.264508386,9.62160993367e-06,919.08819544,0.823697316926,,,,z,1,0.800446246634,2018_Nov_14_1236,59.9860135434,chinese_cond2,001,1016,
images/cactus.jpg,cactus,z,sounds/animalfarm_english.wav,,,,,,,,,0,1,1,1,0,158,158,70,920.202789795,9.62149351835e-06,921.605450533,1.40267068031,,,,z,1,1.38391735486,2018_Nov_14_1236,59.9860135434,chinese_cond2,001,1016,
images/sunglasses03a.jpg,sun glasses,z,sounds/animalfarm_english.wav,,,,,,,,,0,1,1,1,0,159,159,17,922.715927835,9.30088572204e-06,923.439256551,0.723339299788,,,,z,1,0.700442301808,2018_Nov_14_1236,59.9860135434,chinese_cond2,001,1016,
images/cigar.jpg,crocodile,x,sounds/animalfarm_english.wav,,,,,,,,,0,1,1,1,0,160,160,162,924.538007452,9.62149351835e-06,926.056518154,1.51852064475,,,,x,1,1.50060246815,2018_Nov_14_1236,59.9860135434,chinese_cond2,001,1016,
images/envelope02a.jpg,grand piano,x,sounds/animalfarm_english.wav,,,,,,,,,0,1,1,1,0,161,161,182,927.180042251,8.98004509509e-06,928.32373436,1.14370172995,,,,x,1,1.13384992408,2018_Nov_14_1236,59.9860135434,chinese_cond2,001,1016,
images/lipstick04.jpg,lipstick,z,sounds/animalfarm_english.wav,,,,,,,,,0,1,1,1,0,162,162,56,929.424390965,9.62149351835e-06,930.057496343,0.633115961566,,,,z,1,0.617068851949,2018_Nov_14_1236,59.9860135434,chinese_cond2,001,1016,
images/atm.jpg,atm,z,sounds/animalfarm_english.wav,,,,,,,,,0,1,1,1,0,163,163,96,931.196414569,9.30076930672e-06,931.841250196,0.644845890347,,,,z,1,0.633717948687,2018_Nov_14_1236,59.9860135434,chinese_cond2,001,1016,
images/antelope.jpg,antelope,z,sounds/animalfarm_english.wav,,,,,,,,,0,1,1,1,0,164,164,12,932.9463032,1.02630583569e-05,933.775054706,0.828761770041,,,,x,0,0.817099512671,2018_Nov_14_1236,59.9860135434,chinese_cond2,001,1016,
images/paperclip04.jpg,eye drops,x,sounds/animalfarm_english.wav,,,,,,,,,0,1,1,1,0,165,165,174,934.883218992,9.62149351835e-06,935.892235649,1.00902659935,,,,x,1,1.00050480966,2018_Nov_14_1236,59.9860135434,chinese_cond2,001,1016,
images/hat05.jpg,hat,z,sounds/animalfarm_english.wav,,,,,,,,,0,1,1,1,0,166,166,15,936.99872194,9.62160993367e-06,937.725996125,0.727284127381,,,,z,1,0.717084342614,2018_Nov_14_1236,59.9860135434,chinese_cond2,001,1016,
images/lightswitch02a.jpg,fork,x,sounds/animalfarm_english.wav,,,,,,,,,0,1,1,1,0,167,167,177,938.840189262,9.94221772999e-06,939.676476672,0.83629799413,,,,x,1,0.817107530544,2018_Nov_14_1236,59.9860135434,chinese_cond2,001,1016,
images/honeycomb.jpg,honey comb,z,sounds/animalfarm_english.wav,,,,,,,,,0,1,1,1,0,168,168,59,940.792923492,9.62149351835e-06,941.693611656,0.900698747602,,,,z,1,0.883781531011,2018_Nov_14_1236,59.9860135434,chinese_cond2,001,1016,
images/ant.jpg,ant,z,sounds/animalfarm_english.wav,,,,,,,,,0,1,1,1,0,169,169,98,942.789129723,9.62160993367e-06,943.594081412,0.804962272407,,,,z,1,0.783779831138,2018_Nov_14_1236,59.9860135434,chinese_cond2,001,1016,
images/croissant02b.jpg,croissant,z,sounds/animalfarm_english.wav,,,,,,,,,0,1,1,1,0,170,170,39,944.706258196,8.98004509509e-06,945.794603091,1.08835515764,,,,z,1,1.06715571834,2018_Nov_14_1236,59.9860135434,chinese_cond2,001,1016,
images/weight01.jpg,weight,z,sounds/animalfarm_english.wav,,,,,,,,,0,1,1,1,0,171,171,67,946.900052822,9.62149351835e-06,947.545033735,0.644991175504,,,,z,1,0.633744247607,2018_Nov_14_1236,59.9860135434,chinese_cond2,001,1016,
images/knife04.jpg,tooth brush,x,sounds/animalfarm_english.wav,,,,,,,,,0,1,1,1,0,172,172,233,948.643751602,9.30076930672e-06,949.562182189,0.918440529495,,,,x,1,0.900454040035,2018_Nov_14_1236,59.9860135434,chinese_cond2,001,1016,
images/swan.jpg,swan,z,sounds/animalfarm_english.wav,,,,,,,,,0,1,1,1,0,173,173,54,950.655992434,9.62149351835e-06,951.646019076,0.990036584204,,,,z,1,0.967156263534,2018_Nov_14_1236,59.9860135434,chinese_cond2,001,1016,
images/redfox.jpg,red fox,z,sounds/animalfarm_english.wav,,,,,,,,,0,1,1,1,0,174,174,1,952.760099641,9.30076930672e-06,953.413097212,0.653008476249,,,,z,1,0.633725645952,2018_Nov_14_1236,59.9860135434,chinese_cond2,001,1016,
images/giraffe.jpg,lettuce,x,sounds/animalfarm_english.wav,,,,,,,,,0,1,1,1,0,175,175,195,954.514646375,9.30076930672e-06,955.446950568,0.932314455975,,,,x,1,0.917153168702,2018_Nov_14_1236,59.9860135434,chinese_cond2,001,1016,
images/hairpin.jpg,hair pin,z,sounds/animalfarm_english.wav,,,,,,,,,0,1,1,1,0,176,176,28,956.538795455,1.02629419416e-05,957.247364743,0.708579230239,,,,z,1,0.700410229969,2018_Nov_14_1236,59.9860135434,chinese_cond2,001,1016,
images/diaper01a.jpg,camera,x,sounds/animalfarm_english.wav,,,,,,,,,0,1,1,1,0,177,177,143,958.369588009,9.94221772999e-06,959.364541837,0.994964411482,,,,x,1,0.983825886156,2018_Nov_14_1236,59.9860135434,chinese_cond2,001,1016,
images/mattress.jpg,cat,x,sounds/animalfarm_english.wav,,,,,,,,,0,1,1,1,0,178,178,147,960.470912349,9.94221772999e-06,961.264992029,0.794089942705,,,,x,1,0.783768926747,2018_Nov_14_1236,59.9860135434,chinese_cond2,001,1016,
images/parkbench03.jpg,park bench,z,sounds/animalfarm_english.wav,,,,,,,,,0,1,1,1,0,179,179,71,962.370814754,8.98016151041e-06,964.015663531,1.64486898202,,,,z,1,1.63398606866,2018_Nov_14_1236,59.9860135434,chinese_cond2,001,1016,
images/candy.jpg,candy,z,sounds/animalfarm_english.wav,,,,,,,,,0,1,1,1,0,180,180,31,965.119676126,8.65943729877e-06,965.666077081,0.546410575742,,,,z,1,0.53373292624,2018_Nov_14_1236,59.9860135434,chinese_cond2,001,1016,
images/button07.jpg,radish,x,sounds/animalfarm_english.wav,,,,,,,,,0,1,1,1,0,181,181,215,966.778903639,9.30076930672e-06,968.133309515,1.35441549681,,,,x,1,1.33390335564,2018_Nov_14_1236,59.9860135434,chinese_cond2,001,1016,
images/flashlight05.jpg,flash light,z,sounds/animalfarm_english.wav,,,,,,,,,0,1,1,1,0,182,182,8,969.236992091,9.94221772999e-06,970.383844231,1.14686272352,,,,z,1,1.13384383032,2018_Nov_14_1236,59.9860135434,chinese_cond2,001,1016,
images/raisin.jpg,ruler,x,sounds/animalfarm_english.wav,,,,,,,,,0,1,1,1,0,183,183,218,971.489939888,8.98004509509e-06,972.200953686,0.711023419746,,,,x,1,0.700407985016,2018_Nov_14_1236,59.9860135434,chinese_cond2,001,1016,
images/computermouse02a.jpg,world map,x,sounds/animalfarm_english.wav,,,,,,,,,0,1,1,1,0,184,184,239,973.303418498,9.62149351835e-06,975.201690375,1.89828246052,,,,x,1,1.88404131227,2018_Nov_14_1236,59.9860135434,chinese_cond2,001,1016,
images/printer03a.jpg,printer,z,sounds/animalfarm_english.wav,,,,,,,,,0,1,1,1,0,185,185,72,976.311632719,9.30076930672e-06,977.102153074,0.790530938539,,,,z,1,0.767112453585,2018_Nov_14_1236,59.9860135434,chinese_cond2,001,1016,
images/nailpolish02b.jpg,nail polish,z,sounds/animalfarm_english.wav,,,,,,,,,0,1,1,1,0,186,186,94,978.211772777,8.98004509509e-06,979.652751261,1.44098842621,,,,z,1,1.41725820373,2018_Nov_14_1236,59.9860135434,chinese_cond2,001,1016,
images/table02.jpg,table,z,sounds/animalfarm_english.wav,,,,,,,,,0,1,1,1,0,187,187,49,980.768439583,9.94221772999e-06,981.386498812,0.618069170509,,,,z,1,0.600392814958,2018_Nov_14_1236,59.9860135434,chinese_cond2,001,1016,
images/fork01.jpg,cooking pot,x,sounds/animalfarm_english.wav,,,,,,,,,0,1,1,1,0,188,188,160,982.481303923,9.30076930672e-06,983.753745261,1.27245160122,,,,x,1,1.25055844965,2018_Nov_14_1236,59.9860135434,chinese_cond2,001,1016,
images/lantern03.jpg,lantern,z,sounds/animalfarm_english.wav,,,,,,,,,0,1,1,1,0,189,189,5,984.861259773,9.62149351835e-06,985.520827246,0.659578057355,,,,z,1,0.650405210676,2018_Nov_14_1236,59.9860135434,chinese_cond2,001,1016,
images/butterfly.jpg,butterfly,z,sounds/animalfarm_english.wav,,,,,,,,,0,1,1,1,0,190,190,91,986.629326041,9.30076930672e-06,987.354612418,0.725296639837,,,,z,1,0.717105830787,2018_Nov_14_1236,59.9860135434,chinese_cond2,001,1016,
images/handfan01b.jpg,handfan,z,sounds/animalfarm_english.wav,,,,,,,,,0,1,1,1,0,191,191,69,988.470045449,8.98016151041e-06,990.705404446,2.23536829778,,,,x,0,2.2174337646,2018_Nov_14_1236,59.9860135434,chinese_cond2,001,1016,
images/puzzle.jpg,puzzle,z,sounds/animalfarm_english.wav,,,,,,,,,0,1,1,1,0,192,192,57,991.826624187,9.62149351835e-06,992.672548522,0.84593459859,,,,z,1,0.833785812603,2018_Nov_14_1236,59.9860135434,chinese_cond2,001,1016,
images/swallow.jpg,mattress,x,sounds/animalfarm_english.wav,,,,,,,,,0,1,1,1,0,193,193,202,993.775716026,9.30076930672e-06,995.189827669,1.41412158473,,,,x,1,1.40058184613,2018_Nov_14_1236,59.9860135434,chinese_cond2,001,1016,
images/candle08a.jpg,screw driver,x,sounds/animalfarm_english.wav,,,,,,,,,0,1,1,1,0,194,194,221,996.304147168,8.98004509509e-06,997.206983499,0.902846273268,,,,x,1,0.883796283975,2018_Nov_14_1236,59.9860135434,chinese_cond2,001,1016,
images/bat.jpg,hand,x,sounds/animalfarm_english.wav,,,,,,,,,0,1,1,1,0,195,195,185,998.30588161,8.98004509509e-06,999.307476859,1.00160487124,,,,x,1,0.983805680997,2018_Nov_14_1236,59.9860135434,chinese_cond2,001,1016,
images/highheelshoe02a.jpg,high heel shoe,z,sounds/animalfarm_english.wav,,,,,,,,,0,1,1,1,0,196,196,75,1000.41497085,9.62149351835e-06,1001.19126064,0.776300053112,,,,z,1,0.767103152699,2018_Nov_14_1236,59.9860135434,chinese_cond2,001,1016,
images/chessknight02b (1).jpg,cockroach,x,sounds/animalfarm_english.wav,,,,,,,,,0,1,1,1,0,197,197,155,1002.3021058,9.94233414531e-06,1003.70853112,1.40643526462,,,,x,1,1.38391446846,2018_Nov_14_1236,59.9860135434,chinese_cond2,001,1016,
images/bullet (2).jpg,rubber glove,x,sounds/animalfarm_english.wav,,,,,,,,,0,1,1,1,0,198,198,217,1004.81397027,9.62149351835e-06,1005.94253541,1.12859239895,,,,x,1,1.11713924946,2018_Nov_14_1236,59.9860135434,chinese_cond2,001,1016,
images/pipe.jpg,icecube,x,sounds/animalfarm_english.wav,,,,,,,,,0,1,1,1,0,199,199,188,1007.0522385,9.30088572204e-06,1007.82618993,0.773961700615,,,,x,1,0.750430322951,2018_Nov_14_1236,59.9860135434,chinese_cond2,001,1016,
images/handbag02a.jpg,candle,x,sounds/animalfarm_english.wav,,,,,,,,,0,1,1,1,0,200,200,144,1008.94361687,9.30076930672e-06,1010.34346491,1.39985798614,,,,x,1,1.3839026019,2018_Nov_14_1236,59.9860135434,chinese_cond2,001,1016,
images/peach01.jpg,peach,z,sounds/animalfarm_english.wav,,,,,,,,,0,1,1,1,0,201,201,106,1011.47449188,9.30076930672e-06,1012.32727765,0.852795391344,,,,z,1,0.833780681016,2018_Nov_14_1236,59.9860135434,chinese_cond2,001,1016,
images/icecube02 (2).jpg,aloe,x,sounds/animalfarm_english.wav,,,,,,,,,0,1,1,1,0,202,202,122,1013.4385189,9.62149351835e-06,1014.37776503,0.939256390324,,,,x,1,0.917133925599,2018_Nov_14_1236,59.9860135434,chinese_cond2,001,1016,
images/straw.jpg,straw,z,sounds/animalfarm_english.wav,,,,,,,,,0,1,1,1,0,203,203,109,1015.46995437,9.30088572204e-06,1016.52829195,1.0583481692,,,,x,0,1.033830264,2018_Nov_14_1236,59.9860135434,chinese_cond2,001,1016,
images/razor04a.jpg,razor,z,sounds/animalfarm_english.wav,,,,,,,,,0,1,1,1,0,204,204,36,1017.62954702,9.62149351835e-06,1018.8955198,1.26598272542,,,,x,0,1.2505411309,2018_Nov_14_1236,59.9860135434,chinese_cond2,001,1016,
images/dryingmachine01.jpg,drying machine,z,sounds/animalfarm_english.wav,,,,,,,,,0,1,1,1,0,205,205,18,1020.01972125,9.30076930672e-06,1020.79597384,0.776262849919,,,,z,1,0.767091286252,2018_Nov_14_1236,59.9860135434,chinese_cond2,001,1016,
images/radio03a.jpg,radio,z,sounds/animalfarm_english.wav,,,,,,,,,0,1,1,1,0,206,206,37,1021.91113458,9.94221772999e-06,1022.69644391,0.785319917486,,,,z,1,0.76710251125,2018_Nov_14_1236,59.9860135434,chinese_cond2,001,1016,
images/spoon02b.jpg,spoon,z,sounds/animalfarm_english.wav,,,,,,,,,0,1,1,1,0,207,207,38,1023.79022305,9.30076930672e-06,1024.59689956,0.806687412784,,,,z,1,0.783774699667,2018_Nov_14_1236,59.9860135434,chinese_cond2,001,1016,
images/lightbulb03b.jpg,treadmill,x,sounds/animalfarm_english.wav,,,,,,,,,0,1,1,1,0,208,208,234,1025.70043685,9.62149351835e-06,1026.86410261,1.16367602767,,,,x,1,1.15051858441,2018_Nov_14_1236,59.9860135434,chinese_cond2,001,1016,
images/teapot.jpg,light switch,x,sounds/animalfarm_english.wav,,,,,,,,,0,1,1,1,0,209,209,197,1027.98349106,9.62149351835e-06,1029.29803044,1.3145499673,,,,x,1,1.30056218593,2018_Nov_14_1236,59.9860135434,chinese_cond2,001,1016,
images/orange.jpg,bat,x,sounds/animalfarm_english.wav,,,,,,,,,0,1,1,1,0,210,210,128,1030.42376749,9.62149351835e-06,1031.34852648,0.924769572332,,,,x,1,0.900468472275,2018_Nov_14_1236,59.9860135434,chinese_cond2,001,1016,
images/pepper05a.jpg,lighter,x,sounds/animalfarm_english.wav,,,,,,,,,0,1,1,1,0,211,211,198,1032.47042486,9.62149351835e-06,1033.63239916,1.16198456252,,,,x,1,1.15050319,2018_Nov_14_1236,59.9860135434,chinese_cond2,001,1016,
images/parrot01.jpg,chameleon,x,sounds/animalfarm_english.wav,,,,,,,,,0,1,1,1,0,212,212,150,1034.74660256,9.62149351835e-06,1035.84962221,1.10303055763,,,,x,1,1.08385612979,2018_Nov_14_1236,59.9860135434,chinese_cond2,001,1016,
images/feather03b.jpg,feather,z,sounds/animalfarm_english.wav,,,,,,,,,0,1,1,1,0,213,213,114,1036.95145842,9.62149351835e-06,1037.65003414,0.698586308514,,,,z,1,0.683742531692,2018_Nov_14_1236,59.9860135434,chinese_cond2,001,1016,
images/plant01.jpg,plant,z,sounds/animalfarm_english.wav,,,,,,,,,0,1,1,1,0,214,214,47,1038.76368559,8.98016151041e-06,1039.53381503,0.77013938711,,,,z,1,0.750419739285,2018_Nov_14_1236,59.9860135434,chinese_cond2,001,1016,
images/paintbrush03a.jpg,paint brush,z,sounds/animalfarm_english.wav,,,,,,,,,0,1,1,1,0,215,215,0,1040.63467497,9.30076930672e-06,1041.38426662,0.749601588468,,,,z,1,0.733739532996,2018_Nov_14_1236,59.9860135434,chinese_cond2,001,1016,
images/blueberry02.jpg,blueberry,z,sounds/animalfarm_english.wav,,,,,,,,,0,1,1,1,0,216,216,46,1042.50032184,9.94233414531e-06,1043.1013439,0.601032326114,,,,z,1,0.583727682475,2018_Nov_14_1236,59.9860135434,chinese_cond2,001,1016,
images/fryingpan01.jpg,frying pan,z,sounds/animalfarm_english.wav,,,,,,,,,0,1,1,1,0,217,217,45,1044.20298768,9.62149351835e-06,1044.98513249,0.782155075227,,,,z,1,0.767095455551,2018_Nov_14_1236,59.9860135434,chinese_cond2,001,1016,
images/medal01.jpg,medal,z,sounds/animalfarm_english.wav,,,,,,,,,0,1,1,1,0,218,218,115,1046.08677242,9.62160993367e-06,1046.71888485,0.632123019663,,,,z,1,0.617054098984,2018_Nov_14_1236,59.9860135434,chinese_cond2,001,1016,
images/pingpongpaddle01c (1).jpg,ping pong paddle,z,sounds/animalfarm_english.wav,,,,,,,,,0,1,1,1,0,219,219,10,1047.83107286,9.30088572204e-06,1048.55265751,0.721595237032,,,,z,1,0.700415361556,2018_Nov_14_1236,59.9860135434,chinese_cond2,001,1016,
images/watermelon01.jpg,orange,x,sounds/animalfarm_english.wav,,,,,,,,,0,1,1,1,0,220,220,207,1049.68265241,9.94233414531e-06,1050.48646716,0.803825328243,,,,x,1,0.783777586184,2018_Nov_14_1236,59.9860135434,chinese_cond2,001,1016,
images/lamp04b.jpg,parking meter,x,sounds/animalfarm_english.wav,,,,,,,,,0,1,1,1,0,221,221,209,1051.6081978,9.62149351835e-06,1052.75367246,1.14548524108,,,,x,1,1.13383741607,2018_Nov_14_1236,59.9860135434,chinese_cond2,001,1016,
images/gluestick.jpg,squirrel,x,sounds/animalfarm_english.wav,,,,,,,,,0,1,1,1,0,222,222,226,1053.86346856,8.98004509509e-06,1054.87086431,1.00740537141,,,,x,1,0.983821716858,2018_Nov_14_1236,59.9860135434,chinese_cond2,001,1016,
,,,sounds/animalfarm_english.wav,,,,,,,,,0,1,1,1,,,,,,,,,,,,,,,2018_Nov_14_1236,59.9860135434,chinese_cond2,001,1016,
