images,name,corrAns,sounds,trials_3.thisRepN,trials_3.thisTrialN,trials_3.thisN,trials_3.thisIndex,trials_4.thisRepN,trials_4.thisTrialN,trials_4.thisN,trials_4.thisIndex,trials_2.thisRepN,trials_2.thisTrialN,trials_2.thisN,trials_2.thisIndex,trials.thisRepN,trials.thisTrialN,trials.thisN,trials.thisIndex,begin_global,begin_routine,end_global,end_routine,key_resp_2.keys,key_resp_2.corr,key_resp_2.rt,begin_book,key_resp_1.keys,key_resp_1.corr,key_resp_1.rt,date,frameRate,expName,session,participant,
images/volleyball.jpg,volley ball,z,,0,0,0,0,,,,,,,,,,,,,,,,,,,,,,,,2018_Nov_14_1236,59.9883024154,spanish_cond1,001,1017,
images/puma.jpg,puma,z,,,,,,0,0,0,0,,,,,,,,,48.1705910991,9.62160993367e-06,49.7106005539,1.54002003849,z,1,1.51728871313,,,,,2018_Nov_14_1236,59.9883024154,spanish_cond1,001,1017,
images/teapot.jpg,light switch,x,sounds/animalfarm_spanish.wav,,,,,,,,,0,0,0,1,0,0,0,197,91.905687578,8.65943729877e-06,93.0546150274,1.14893675025,,,,81.706712149,x,1,1.13385009812,2018_Nov_14_1236,59.9883024154,spanish_cond1,001,1017,
images/pineapple01a.jpg,pineapple,z,sounds/animalfarm_spanish.wav,,,,,,,,,0,0,0,1,0,1,1,51,94.1749894483,9.30076930672e-06,95.1384530665,0.963473560521,,,,,z,1,0.9504674169,2018_Nov_14_1236,59.9883024154,spanish_cond1,001,1017,
images/bicycle.jpg,hand bag,x,sounds/animalfarm_spanish.wav,,,,,,,,,0,0,0,1,0,2,2,186,96.2497209739,9.30088572204e-06,97.055598033,0.805887001567,,,,,x,1,0.783746441593,2018_Nov_14_1236,59.9883024154,spanish_cond1,001,1017,
images/tie01.jpg,bench,x,sounds/animalfarm_spanish.wav,,,,,,,,,0,0,0,1,0,3,3,130,98.1538322149,8.65943729877e-06,99.2728025252,1.1189796112,,,,,x,1,1.10049204808,2018_Nov_14_1236,59.9883024154,spanish_cond1,001,1017,
images/tent.jpg,tent,z,sounds/animalfarm_spanish.wav,,,,,,,,,0,0,0,1,0,4,4,11,100.400744326,9.62160993367e-06,101.18994685,0.789212787175,,,,,z,1,0.767086659791,2018_Nov_14_1236,59.9883024154,spanish_cond1,001,1017,
images/lily.jpg,kiwi,x,sounds/animalfarm_spanish.wav,,,,,,,,,0,0,0,1,0,5,5,190,102.291120107,9.30088572204e-06,103.107115229,0.816005385597,,,,,x,1,0.800457538688,2018_Nov_14_1236,59.9883024154,spanish_cond1,001,1017,
images/magnifyingglass01b.jpg,magnifying glass,z,sounds/animalfarm_spanish.wav,,,,,,,,,0,0,0,1,0,6,6,64,104.215235273,9.62149351835e-06,104.957555962,0.742330951849,,,,,z,1,0.733766454505,2018_Nov_14_1236,59.9883024154,spanish_cond1,001,1017,
images/comb02a.jpg,diploma,x,sounds/animalfarm_spanish.wav,,,,,,,,,0,0,0,1,0,7,7,166,106.063472662,9.30076930672e-06,106.924690858,0.861228138092,,,,,x,1,0.850435922155,2018_Nov_14_1236,59.9883024154,spanish_cond1,001,1017,
images/electricguitar02.jpg,electric guitar,z,sounds/animalfarm_spanish.wav,,,,,,,,,0,0,0,1,0,8,8,100,108.027875027,9.30088572204e-06,108.825156158,0.797290752875,,,,,z,1,0.783748045214,2018_Nov_14_1236,59.9883024154,spanish_cond1,001,1017,
images/lemon02.jpg,lemon,z,sounds/animalfarm_spanish.wav,,,,,,,,,0,0,0,1,0,9,9,14,109.938222982,8.98004509509e-06,110.708988296,0.770775577053,,,,,z,1,0.750440348056,2018_Nov_14_1236,59.9883024154,spanish_cond1,001,1017,
images/doorhandle.jpg,doll,x,sounds/animalfarm_spanish.wav,,,,,,,,,0,0,0,1,0,10,10,168,111.812604795,9.30088572204e-06,112.859486951,1.04689209838,,,,,x,1,1.03381764144,2018_Nov_14_1236,59.9883024154,spanish_cond1,001,1017,
images/volleyball.jpg,volley ball,z,sounds/animalfarm_spanish.wav,,,,,,,,,0,0,0,1,0,11,11,2,113.991024981,9.30088572204e-06,114.79330068,0.802285319893,,,,,z,1,0.783755742479,2018_Nov_14_1236,59.9883024154,spanish_cond1,001,1017,
images/dice05a.jpg,band aid,x,sounds/animalfarm_spanish.wav,,,,,,,,,0,0,0,1,0,12,12,126,115.906783156,9.94233414531e-06,116.710591574,0.803818680579,,,,,x,1,0.783907442936,2018_Nov_14_1236,59.9883024154,spanish_cond1,001,1017,
images/shotglass.jpg,shot glass,z,sounds/animalfarm_spanish.wav,,,,,,,,,0,0,0,1,0,13,13,86,117.820243696,8.98016151041e-06,118.894325443,1.07409136917,,,,,z,1,1.05050436372,2018_Nov_14_1236,59.9883024154,spanish_cond1,001,1017,
images/eraser.jpg,eraser,z,sounds/animalfarm_spanish.wav,,,,,,,,,0,0,0,1,0,14,14,110,120.001677684,9.30088572204e-06,121.378247126,1.37657906313,,,,,z,1,1.36720699375,2018_Nov_14_1236,59.9883024154,spanish_cond1,001,1017,
images/button07.jpg,radish,x,sounds/animalfarm_spanish.wav,,,,,,,,,0,0,0,1,0,15,15,215,122.491108689,9.62160993367e-06,123.495450592,1.00435248634,,,,,x,1,0.983811034588,2018_Nov_14_1236,59.9883024154,spanish_cond1,001,1017,
images/flamingo.jpg,flamingo,z,sounds/animalfarm_spanish.wav,,,,,,,,,0,0,0,1,0,16,16,52,124.594185417,8.98016151041e-06,125.42909498,0.834919826477,,,,,z,1,0.816931944573,2018_Nov_14_1236,59.9883024154,spanish_cond1,001,1017,
images/highheelshoe02a.jpg,high heel shoe,z,sounds/animalfarm_spanish.wav,,,,,,,,,0,0,0,1,0,17,17,75,126.536171724,9.30088572204e-06,127.596478562,1.06031678116,,,,,z,1,1.05051623029,2018_Nov_14_1236,59.9883024154,spanish_cond1,001,1017,
images/daisy.jpg,daisy,z,sounds/animalfarm_spanish.wav,,,,,,,,,0,0,0,1,0,18,18,6,128.699741628,8.65943729877e-06,129.74700512,1.04727375472,,,,,z,1,1.03383271524,2018_Nov_14_1236,59.9883024154,spanish_cond1,001,1017,
images/parkfountain.jpg,park fountain,z,sounds/animalfarm_spanish.wav,,,,,,,,,0,0,0,1,0,19,19,93,130.866667543,8.98016151041e-06,131.980882543,1.11422462179,,,,,z,1,1.10048050212,2018_Nov_14_1236,59.9883024154,spanish_cond1,001,1017,
images/chessknight02b (1).jpg,cockroach,x,sounds/animalfarm_spanish.wav,,,,,,,,,0,0,0,1,0,20,20,155,133.090314652,8.98016151041e-06,134.164582737,1.07427834882,,,,,x,1,1.05032508145,2018_Nov_14_1236,59.9883024154,spanish_cond1,001,1017,
images/dryingmachine01.jpg,drying machine,z,sounds/animalfarm_spanish.wav,,,,,,,,,0,0,0,1,0,21,21,18,135.287093151,8.98016151041e-06,136.148587166,0.861503636348,,,,,z,1,0.850460296846,2018_Nov_14_1236,59.9883024154,spanish_cond1,001,1017,
images/bench02.jpg,electric toothbrush,x,sounds/animalfarm_spanish.wav,,,,,,,,,0,0,0,1,0,22,22,172,137.258313374,9.30088572204e-06,138.165732197,0.907428444247,,,,,x,1,0.883783388534,2018_Nov_14_1236,59.9883024154,spanish_cond1,001,1017,
images/ostrich.jpg,ostrich,z,sounds/animalfarm_spanish.wav,,,,,,,,,0,0,0,1,0,23,23,76,139.266839385,9.62160993367e-06,140.316105129,1.04927600746,,,,,z,1,1.03365760227,2018_Nov_14_1236,59.9883024154,spanish_cond1,001,1017,
images/honeycomb.jpg,honey comb,z,sounds/animalfarm_spanish.wav,,,,,,,,,0,0,0,1,0,24,24,59,141.431250537,8.98016151041e-06,142.583484606,1.1522443319,,,,,z,1,1.13383630721,2018_Nov_14_1236,59.9883024154,spanish_cond1,001,1017,
images/boxingglove02a.jpg,bracelet,x,sounds/animalfarm_spanish.wav,,,,,,,,,0,0,0,1,0,25,25,135,143.695672979,9.30088572204e-06,144.700669149,1.00500579225,,,,,x,1,0.983794036438,2018_Nov_14_1236,59.9883024154,spanish_cond1,001,1017,
images/cupcake.jpg,scissors,x,sounds/animalfarm_spanish.wav,,,,,,,,,0,0,0,1,0,26,26,219,145.819026885,9.30088572204e-06,146.601149523,0.782132901135,,,,,z,0,0.767091791262,2018_Nov_14_1236,59.9883024154,spanish_cond1,001,1017,
images/diploma01.jpg,glasses,x,sounds/animalfarm_spanish.wav,,,,,,,,,0,0,0,1,0,27,27,179,147.733505068,8.98016151041e-06,149.135108281,1.401612835,,,,,x,1,1.38389980979,2018_Nov_14_1236,59.9883024154,spanish_cond1,001,1017,
images/treadmill.jpg,lily,x,sounds/animalfarm_spanish.wav,,,,,,,,,0,0,0,1,0,28,28,199,150.242131143,8.98016151041e-06,151.202287821,0.960166620207,,,,,x,1,0.950469020405,2018_Nov_14_1236,59.9883024154,spanish_cond1,001,1017,
images/scissors04a.jpg,leek,x,sounds/animalfarm_spanish.wav,,,,,,,,,0,0,0,1,0,29,29,194,152.297640979,9.94221772999e-06,154.153017908,1.85538783344,,,,,x,1,1.83402566018,2018_Nov_14_1236,59.9883024154,spanish_cond1,001,1017,
images/ceilingfan02.jpg,paper clip,x,sounds/animalfarm_spanish.wav,,,,,,,,,0,0,0,1,0,30,30,208,155.25203689,8.98016151041e-06,156.403580771,1.15155446401,,,,,x,1,1.1338606819,2018_Nov_14_1236,59.9883024154,spanish_cond1,001,1017,
images/bed.jpg,bed,z,sounds/animalfarm_spanish.wav,,,,,,,,,0,0,0,1,0,31,31,103,157.523489507,9.30088572204e-06,158.204012331,0.680532766622,,,,,z,1,0.667067673174,2018_Nov_14_1236,59.9883024154,spanish_cond1,001,1017,
images/hand01a.jpg,cupcake,x,sounds/animalfarm_spanish.wav,,,,,,,,,0,0,0,1,0,32,32,163,159.316060229,8.98016151041e-06,160.371051139,1.05500053242,,,,,x,1,1.03365728154,2018_Nov_14_1236,59.9883024154,spanish_cond1,001,1017,
images/highlighter03b.jpg,coin,x,sounds/animalfarm_spanish.wav,,,,,,,,,0,0,0,1,0,33,33,156,161.472775072,1.09045067802e-05,162.354875323,0.882111477084,,,,,x,1,0.866947852308,2018_Nov_14_1236,59.9883024154,spanish_cond1,001,1017,
images/lantern03.jpg,lantern,z,sounds/animalfarm_spanish.wav,,,,,,,,,0,0,0,1,0,34,34,5,163.462950467,9.30088572204e-06,164.438886872,0.97594698891,,,,,z,1,0.9671490076,2018_Nov_14_1236,59.9883024154,spanish_cond1,001,1017,
images/tape01a.jpg,tie,x,sounds/animalfarm_spanish.wav,,,,,,,,,0,0,0,1,0,35,35,232,165.564964329,9.30088572204e-06,166.4060362,0.841081171529,,,,,x,1,0.817101284512,2018_Nov_14_1236,59.9883024154,spanish_cond1,001,1017,
images/cactus.jpg,cactus,z,sounds/animalfarm_spanish.wav,,,,,,,,,0,0,0,1,0,36,36,70,167.5187714,9.62149351835e-06,168.30634114,0.787580003496,,,,,z,1,0.766931752092,2018_Nov_14_1236,59.9883024154,spanish_cond1,001,1017,
images/lightbulb03b.jpg,treadmill,x,sounds/animalfarm_spanish.wav,,,,,,,,,0,0,0,1,0,37,37,234,169.410478488,9.62160993367e-06,170.190295152,0.779826285434,,,,,x,1,0.767083452549,2018_Nov_14_1236,59.9883024154,spanish_cond1,001,1017,
images/clothespin02a.jpg,clothes pin,z,sounds/animalfarm_spanish.wav,,,,,,,,,0,0,0,1,0,38,38,79,171.296200306,8.98016151041e-06,172.107609138,0.811418132391,,,,,z,1,0.800582298543,2018_Nov_14_1236,59.9883024154,spanish_cond1,001,1017,
images/gps.jpg,gps,z,sounds/animalfarm_spanish.wav,,,,,,,,,0,0,0,1,0,39,39,21,173.226713509,8.98016151041e-06,174.391332167,1.16462827951,,,,,z,1,1.15051661513,2018_Nov_14_1236,59.9883024154,spanish_cond1,001,1017,
images/hairband.jpg,hairband,z,sounds/animalfarm_spanish.wav,,,,,,,,,0,0,0,1,0,40,40,66,175.501787371,8.98004509509e-06,176.341825883,0.840048133512,,,,,z,1,0.817110906122,2018_Nov_14_1236,59.9883024154,spanish_cond1,001,1017,
images/computerkeyboard01a.jpg,computer keyboard,z,sounds/animalfarm_spanish.wav,,,,,,,,,0,0,0,1,0,41,41,61,177.459523898,8.98016151041e-06,178.292300355,0.832785758073,,,,,z,1,0.8171064161,2018_Nov_14_1236,59.9883024154,spanish_cond1,001,1017,
images/doll.jpg,carrot,x,sounds/animalfarm_spanish.wav,,,,,,,,,0,0,0,1,0,42,42,146,179.404160311,9.30088572204e-06,180.226337946,0.822186935926,,,,,x,1,0.800663761329,2018_Nov_14_1236,59.9883024154,spanish_cond1,001,1017,
images/lychee02a.jpg,lychee,z,sounds/animalfarm_spanish.wav,,,,,,,,,0,0,0,1,0,43,43,62,181.351085379,8.98004509509e-06,182.393320949,1.04224551213,,,,,z,1,1.0338349602,2018_Nov_14_1236,59.9883024154,spanish_cond1,001,1017,
images/camera01a.jpg,bull,x,sounds/animalfarm_spanish.wav,,,,,,,,,0,0,0,1,0,44,44,138,183.50460361,8.98016151041e-06,184.677215884,1.17262189591,,,,,x,1,1.15051757731,2018_Nov_14_1236,59.9883024154,spanish_cond1,001,1017,
images/plant01.jpg,plant,z,sounds/animalfarm_spanish.wav,,,,,,,,,0,0,0,1,0,45,45,47,185.790148006,9.62160993367e-06,186.844420184,1.0542817997,,,,,z,1,1.03383239452,2018_Nov_14_1236,59.9883024154,spanish_cond1,001,1017,
images/banjo.jpg,knife,x,sounds/animalfarm_spanish.wav,,,,,,,,,0,0,0,1,0,46,46,191,187.942121971,8.98016151041e-06,189.1783105,1.2361994338,,,,,x,1,1.21719358768,2018_Nov_14_1236,59.9883024154,spanish_cond1,001,1017,
images/50dollarbill.jpg,cherry,x,sounds/animalfarm_spanish.wav,,,,,,,,,0,0,0,1,0,47,47,151,190.298798456,9.30088572204e-06,190.978767718,0.679979204549,,,,,z,0,0.66706735245,2018_Nov_14_1236,59.9883024154,spanish_cond1,001,1017,
images/fryingpan01.jpg,frying pan,z,sounds/animalfarm_spanish.wav,,,,,,,,,0,0,0,1,0,48,48,45,192.080498706,8.65943729877e-06,193.229309734,1.14882032899,,,,,z,1,1.13382572355,2018_Nov_14_1236,59.9883024154,spanish_cond1,001,1017,
images/snowman.jpg,globe,x,sounds/animalfarm_spanish.wav,,,,,,,,,0,0,0,1,0,49,49,180,194.341046534,9.30088572204e-06,195.496551943,1.15551471012,,,,,x,1,1.13384304231,2018_Nov_14_1236,59.9883024154,spanish_cond1,001,1017,
images/dolphin01.jpg,dolphin,z,sounds/animalfarm_spanish.wav,,,,,,,,,0,0,0,1,0,50,50,99,196.597806983,8.65943729877e-06,197.763758231,1.16596086964,,,,,z,1,1.15050988016,2018_Nov_14_1236,59.9883024154,spanish_cond1,001,1017,
images/crocodile.jpg,triangle ruler,x,sounds/animalfarm_spanish.wav,,,,,,,,,0,0,0,1,0,51,51,235,198.861980546,9.30076930672e-06,199.747580491,0.885609886842,,,,,x,1,0.867098590476,2018_Nov_14_1236,59.9883024154,spanish_cond1,001,1017,
images/table02.jpg,table,z,sounds/animalfarm_spanish.wav,,,,,,,,,0,0,0,1,0,52,52,49,200.863322758,8.98016151041e-06,201.481332192,0.6180187352,,,,,z,1,0.600366646657,2018_Nov_14_1236,59.9883024154,spanish_cond1,001,1017,
images/sportshorts02.jpg,tape,x,sounds/animalfarm_spanish.wav,,,,,,,,,0,0,0,1,0,53,53,230,202.588480777,9.62160993367e-06,203.348483381,0.760012546554,,,,,x,1,0.750422708457,2018_Nov_14_1236,59.9883024154,spanish_cond1,001,1017,
images/kiwi03.jpg,backpack,x,sounds/animalfarm_spanish.wav,,,,,,,,,0,0,0,1,0,54,54,125,204.477777657,9.30088572204e-06,205.232117314,0.754349599825,,,,,x,1,0.73357819207,2018_Nov_14_1236,59.9883024154,spanish_cond1,001,1017,
images/parkbench03.jpg,park bench,z,sounds/animalfarm_spanish.wav,,,,,,,,,0,0,0,1,0,55,55,71,206.337868844,8.98004509509e-06,207.282788131,0.94492922991,,,,,z,1,0.933800258441,2018_Nov_14_1236,59.9883024154,spanish_cond1,001,1017,
images/ladder.jpg,ladder,z,sounds/animalfarm_spanish.wav,,,,,,,,,0,0,0,1,0,56,56,113,208.376268927,9.30088572204e-06,209.199930211,0.823671226506,,,,,z,1,0.800438616192,2018_Nov_14_1236,59.9883024154,spanish_cond1,001,1017,
images/bowtie.jpg,bowtie,z,sounds/animalfarm_spanish.wav,,,,,,,,,0,0,0,1,0,57,57,89,210.311316785,9.62160993367e-06,211.033960041,0.722653518897,,,,,z,1,0.700663376483,2018_Nov_14_1236,59.9883024154,spanish_cond1,001,1017,
images/aquarium.jpg,computer mouse,x,sounds/animalfarm_spanish.wav,,,,,,,,,0,0,0,1,0,58,58,159,212.169840936,8.65943729877e-06,213.284258952,1.11442763731,,,,,x,1,1.10048980312,2018_Nov_14_1236,59.9883024154,spanish_cond1,001,1017,
images/corkscrew02a.jpg,masquerade mask,x,sounds/animalfarm_spanish.wav,,,,,,,,,0,0,0,1,0,59,59,201,214.387557297,8.98016151041e-06,215.634842405,1.24729472981,,,,,x,1,1.23387261282,2018_Nov_14_1236,59.9883024154,spanish_cond1,001,1017,
images/broadsword.jpg,teapot,x,sounds/animalfarm_spanish.wav,,,,,,,,,0,0,0,1,0,60,60,231,216.727761621,8.98016151041e-06,217.91875081,1.19099881081,,,,,x,1,1.16720045102,2018_Nov_14_1236,59.9883024154,spanish_cond1,001,1017,
images/pipe.jpg,icecube,x,sounds/animalfarm_spanish.wav,,,,,,,,,0,0,0,1,0,61,61,188,219.028390103,8.98016151041e-06,220.102619061,1.07423825876,,,,,x,1,1.05050019431,2018_Nov_14_1236,59.9883024154,spanish_cond1,001,1017,
images/notebook02b.jpg,notebook,z,sounds/animalfarm_spanish.wav,,,,,,,,,0,0,0,1,0,62,62,7,221.209032876,9.30088572204e-06,221.969732404,0.760709470371,,,,,z,1,0.750407955376,2018_Nov_14_1236,59.9883024154,spanish_cond1,001,1017,
images/bus.jpg,microphone,x,sounds/animalfarm_spanish.wav,,,,,,,,,0,0,0,1,0,63,63,203,223.087657489,8.98016151041e-06,223.820182759,0.732535211835,,,,,x,1,0.717051188112,2018_Nov_14_1236,59.9883024154,spanish_cond1,001,1017,
images/lip.jpg,boxing glove,x,sounds/animalfarm_spanish.wav,,,,,,,,,0,0,0,1,0,64,64,136,224.923236715,8.98016151041e-06,225.77067006,0.847442645696,,,,,x,1,0.833767480799,2018_Nov_14_1236,59.9883024154,spanish_cond1,001,1017,
images/candycane01a.jpg,lip,x,sounds/animalfarm_spanish.wav,,,,,,,,,0,0,0,1,0,65,65,200,226.864226225,8.98016151041e-06,227.937868266,1.07365198329,,,,,x,1,1.05048415833,2018_Nov_14_1236,59.9883024154,spanish_cond1,001,1017,
images/handfan01b.jpg,handfan,z,sounds/animalfarm_spanish.wav,,,,,,,,,0,0,0,1,0,66,66,69,229.052527142,9.30076930672e-06,229.855043701,0.802527142456,,,,,z,1,0.783788455883,2018_Nov_14_1236,59.9883024154,spanish_cond1,001,1017,
images/skateboard.jpg,key,x,sounds/animalfarm_spanish.wav,,,,,,,,,0,0,0,1,0,67,67,189,230.94675188,9.30088572204e-06,231.705487321,0.758745062514,,,,,x,1,0.750432009343,2018_Nov_14_1236,59.9883024154,spanish_cond1,001,1017,
images/rhinoceros01.jpg,envelope,x,sounds/animalfarm_spanish.wav,,,,,,,,,0,0,0,1,0,68,68,173,232.818487755,9.30088572204e-06,233.722908491,0.904430677765,,,,,x,1,0.884057603893,2018_Nov_14_1236,59.9883024154,spanish_cond1,001,1017,
images/cloud.jpg,ceiling fan,x,sounds/animalfarm_spanish.wav,,,,,,,,,0,0,0,1,0,69,69,149,234.827961493,9.30088572204e-06,235.856501051,1.02854950051,,,,,x,1,1.01715465228,2018_Nov_14_1236,59.9883024154,spanish_cond1,001,1017,
images/giraffe.jpg,lettuce,x,sounds/animalfarm_spanish.wav,,,,,,,,,0,0,0,1,0,70,70,195,236.957557566,8.98016151041e-06,237.923668083,0.966119818273,,,,,x,1,0.950450097909,2018_Nov_14_1236,59.9883024154,spanish_cond1,001,1017,
images/cookingpot.jpg,grasshopper,x,sounds/animalfarm_spanish.wav,,,,,,,,,0,0,0,1,0,71,71,183,239.037101169,9.30088572204e-06,239.64076321,0.603671662626,,,,,x,1,0.583711034153,2018_Nov_14_1236,59.9883024154,spanish_cond1,001,1017,
images/battery03b.jpg,battery,z,sounds/animalfarm_spanish.wav,,,,,,,,,0,0,0,1,0,72,72,34,240.749618664,9.30088572204e-06,241.941329152,1.19171978848,,,,,z,1,1.16718730156,2018_Nov_14_1236,59.9883024154,spanish_cond1,001,1017,
images/wallet01.jpg,lamp,x,sounds/animalfarm_spanish.wav,,,,,,,,,0,0,0,1,0,73,73,193,243.047253549,9.30088572204e-06,243.691901637,0.644657708704,,,,,x,1,0.633859719732,2018_Nov_14_1236,59.9883024154,spanish_cond1,001,1017,
images/cherry01.jpg,highlighter,x,sounds/animalfarm_spanish.wav,,,,,,,,,0,0,0,1,0,74,74,187,244.800209302,9.30088572204e-06,245.425515749,0.625315748504,,,,,x,1,0.617046954576,2018_Nov_14_1236,59.9883024154,spanish_cond1,001,1017,
images/electrictoothbrush01a.jpg,banjo,x,sounds/animalfarm_spanish.wav,,,,,,,,,0,0,0,1,0,75,75,127,246.519663001,9.30088572204e-06,247.275976046,0.756322667119,,,,,x,1,0.733744966332,2018_Nov_14_1236,59.9883024154,spanish_cond1,001,1017,
images/flashlight05.jpg,flash light,z,sounds/animalfarm_spanish.wav,,,,,,,,,0,0,0,1,0,76,76,8,248.377964572,8.65943729877e-06,249.243136279,0.86518164922,,,,,z,1,0.850447788835,2018_Nov_14_1236,59.9883024154,spanish_cond1,001,1017,
images/djmixer01.jpg,light bulb,x,sounds/animalfarm_spanish.wav,,,,,,,,,0,0,0,1,0,77,77,196,250.364768562,8.98016151041e-06,251.260291573,0.89553231129,,,,,x,1,0.88378082274,2018_Nov_14_1236,59.9883024154,spanish_cond1,001,1017,
images/orange.jpg,bat,x,sounds/animalfarm_spanish.wav,,,,,,,,,0,0,0,1,0,78,78,128,252.385920023,8.98016151041e-06,253.060566301,0.674655899871,,,,,x,1,0.650221232441,2018_Nov_14_1236,59.9883024154,spanish_cond1,001,1017,
images/icecube02 (2).jpg,aloe,x,sounds/animalfarm_spanish.wav,,,,,,,,,0,0,0,1,0,79,79,122,254.171251782,9.30088572204e-06,254.944552064,0.773310224409,,,,,x,1,0.750426877756,2018_Nov_14_1236,59.9883024154,spanish_cond1,001,1017,
images/calculator02b.jpg,dice,x,sounds/animalfarm_spanish.wav,,,,,,,,,0,0,0,1,0,80,80,165,256.047470356,9.62160993367e-06,256.87835136,0.830891267047,,,,,x,1,0.817101284629,2018_Nov_14_1236,59.9883024154,spanish_cond1,001,1017,
images/dreamcatcher.jpg,dream catcher,z,sounds/animalfarm_spanish.wav,,,,,,,,,0,0,0,1,0,81,81,48,257.978102225,9.30088572204e-06,258.77891929,0.800826366292,,,,,z,1,0.783864466473,2018_Nov_14_1236,59.9883024154,spanish_cond1,001,1017,
images/dragonfly02.jpg,dragon fly,z,sounds/animalfarm_spanish.wav,,,,,,,,,0,0,0,1,0,82,82,29,259.876787852,9.30088572204e-06,260.79598382,0.919205910992,,,,,z,1,0.900454395567,2018_Nov_14_1236,59.9883024154,spanish_cond1,001,1017,
images/parrot01.jpg,chameleon,x,sounds/animalfarm_spanish.wav,,,,,,,,,0,0,0,1,0,83,83,150,261.910304017,8.65943729877e-06,262.696452969,0.786159215495,,,,,x,1,0.767094036331,2018_Nov_14_1236,59.9883024154,spanish_cond1,001,1017,
images/envelope02a.jpg,grand piano,x,sounds/animalfarm_spanish.wav,,,,,,,,,0,0,0,1,0,84,84,182,263.818611874,9.30088572204e-06,265.330431676,1.5118300647,,,,,x,1,1.50060744304,2018_Nov_14_1236,59.9883024154,spanish_cond1,001,1017,
images/banana04a.jpg,banana,z,sounds/animalfarm_spanish.wav,,,,,,,,,0,0,0,1,0,85,85,118,266.437447482,9.30088572204e-06,267.147553166,0.710114984424,,,,,z,1,0.700407442288,2018_Nov_14_1236,59.9883024154,spanish_cond1,001,1017,
images/saltshaker03c.jpg,salt shaker,z,sounds/animalfarm_spanish.wav,,,,,,,,,0,0,0,1,0,86,86,63,268.258664883,9.94233414531e-06,269.081360159,0.822705860366,,,,,z,1,0.800433484721,2018_Nov_14_1236,59.9883024154,spanish_cond1,001,1017,
images/squirrel.jpg,binder,x,sounds/animalfarm_spanish.wav,,,,,,,,,0,0,0,1,0,87,87,132,270.263473111,9.30088572204e-06,271.498616095,1.23515260476,,,,,x,1,1.21719198406,2018_Nov_14_1236,59.9883024154,spanish_cond1,001,1017,
images/tank.jpg,wallet,x,sounds/animalfarm_spanish.wav,,,,,,,,,0,0,0,1,0,88,88,237,272.602824642,9.30088572204e-06,273.449124884,0.846309863846,,,,,x,1,0.833799873479,2018_Nov_14_1236,59.9883024154,spanish_cond1,001,1017,
images/axe01.jpg,axe,z,sounds/animalfarm_spanish.wav,,,,,,,,,0,0,0,1,0,89,89,104,274.552984489,9.30088572204e-06,275.499433288,0.946458741906,,,,,z,1,0.933625145466,2018_Nov_14_1236,59.9883024154,spanish_cond1,001,1017,
images/8ball.jpg,nail clipper,x,sounds/animalfarm_spanish.wav,,,,,,,,,0,0,0,1,0,90,90,206,276.616219498,8.98016151041e-06,277.816852085,1.20064317121,,,,,x,1,1.1838679302,2018_Nov_14_1236,59.9883024154,spanish_cond1,001,1017,
images/safe.jpg,safe,z,sounds/animalfarm_spanish.wav,,,,,,,,,0,0,0,1,0,91,91,78,278.927273614,8.98016151041e-06,279.800674987,0.87341131526,,,,,z,1,0.850446185097,2018_Nov_14_1236,59.9883024154,spanish_cond1,001,1017,
images/flipflop01b.jpg,flip flop,z,sounds/animalfarm_spanish.wav,,,,,,,,,0,0,0,1,0,92,92,27,280.917189547,8.98016151041e-06,281.6678018,0.750621875399,,,,,z,1,0.733746890561,2018_Nov_14_1236,59.9883024154,spanish_cond1,001,1017,
images/floorlamp.jpg,floor lamp,z,sounds/animalfarm_spanish.wav,,,,,,,,,0,0,0,1,0,93,93,26,282.760652061,9.30088572204e-06,283.35155363,0.590911510866,,,,,z,1,0.567052214406,2018_Nov_14_1236,59.9883024154,spanish_cond1,001,1017,
images/screw03c.jpg,screw,z,sounds/animalfarm_spanish.wav,,,,,,,,,0,0,0,1,0,94,94,84,284.446898769,9.30088572204e-06,285.101987884,0.655098736752,,,,,z,1,0.633732394082,2018_Nov_14_1236,59.9883024154,spanish_cond1,001,1017,
images/mattress.jpg,cat,x,sounds/animalfarm_spanish.wav,,,,,,,,,0,0,0,1,0,95,95,147,286.206308363,9.62160993367e-06,287.002451902,0.796153481002,,,,,x,1,0.783769533387,2018_Nov_14_1236,59.9883024154,spanish_cond1,001,1017,
images/seagull.jpg,seagull,z,sounds/animalfarm_spanish.wav,,,,,,,,,0,0,0,1,0,96,96,50,288.111686446,9.30076930672e-06,289.03630386,0.924627355766,,,,,z,1,0.900476204581,2018_Nov_14_1236,59.9883024154,spanish_cond1,001,1017,
images/leek.jpg,donut,x,sounds/animalfarm_spanish.wav,,,,,,,,,0,0,0,1,0,97,97,169,290.139237547,9.30088572204e-06,290.870072944,0.730845339946,,,,,x,1,0.717075242195,2018_Nov_14_1236,59.9883024154,spanish_cond1,001,1017,
images/aloe02.jpg,broad sword,x,sounds/animalfarm_spanish.wav,,,,,,,,,0,0,0,1,0,98,98,137,291.991522738,9.30088572204e-06,293.120615602,1.12910248537,,,,,x,1,1.11717171455,2018_Nov_14_1236,59.9883024154,spanish_cond1,001,1017,
images/glasses01b.jpg,calculator,x,sounds/animalfarm_spanish.wav,,,,,,,,,0,0,0,1,0,99,99,142,294.213269262,8.98016151041e-06,294.937735809,0.724476168631,,,,,x,1,0.700409045792,2018_Nov_14_1236,59.9883024154,spanish_cond1,001,1017,
images/mushroom01.jpg,shower head,x,sounds/animalfarm_spanish.wav,,,,,,,,,0,0,0,1,0,100,100,222,296.055432542,9.30088572204e-06,296.888211565,0.832788965199,,,,,x,1,0.817101284512,2018_Nov_14_1236,59.9883024154,spanish_cond1,001,1017,
images/broom02.jpg,broom,z,sounds/animalfarm_spanish.wav,,,,,,,,,0,0,0,1,0,101,101,116,297.983266773,8.98016151041e-06,298.705349091,0.722090976662,,,,,z,1,0.700429892633,2018_Nov_14_1236,59.9883024154,spanish_cond1,001,1017,
images/cocktailshrimp01.jpg,cocktail shrimp,z,sounds/animalfarm_spanish.wav,,,,,,,,,0,0,0,1,0,102,102,30,299.820167685,9.30088572204e-06,300.789166283,0.969008540153,,,,,z,1,0.950434061931,2018_Nov_14_1236,59.9883024154,spanish_cond1,001,1017,
images/cheetah.jpg,cheetah,z,sounds/animalfarm_spanish.wav,,,,,,,,,0,0,0,1,0,103,103,82,301.89118656,9.62160993367e-06,302.689485976,0.79830967926,,,,,z,1,0.783595382702,2018_Nov_14_1236,59.9883024154,spanish_cond1,001,1017,
images/swan.jpg,swan,z,sounds/animalfarm_spanish.wav,,,,,,,,,0,0,0,1,0,104,104,54,303.781506536,9.30088572204e-06,305.17359079,1.39209451736,,,,,z,1,1.38390686561,2018_Nov_14_1236,59.9883024154,spanish_cond1,001,1017,
images/coffeepot03b.jpg,coffee pot,z,sounds/animalfarm_spanish.wav,,,,,,,,,0,0,0,1,0,105,105,107,306.295031283,8.98016151041e-06,307.040728508,0.745707167545,,,,,z,1,0.73375490855,2018_Nov_14_1236,59.9883024154,spanish_cond1,001,1017,
images/ant.jpg,ant,z,sounds/animalfarm_spanish.wav,,,,,,,,,0,0,0,1,0,106,106,98,308.135304562,9.62160993367e-06,308.858086368,0.722791107604,,,,,z,1,0.700639001792,2018_Nov_14_1236,59.9883024154,spanish_cond1,001,1017,
images/antelope.jpg,antelope,z,sounds/animalfarm_spanish.wav,,,,,,,,,0,0,0,1,0,107,107,12,309.962802294,8.98016151041e-06,311.008371745,1.0455790722,,,,,z,1,1.03382886655,2018_Nov_14_1236,59.9883024154,spanish_cond1,001,1017,
images/cake.jpg,cake,z,sounds/animalfarm_spanish.wav,,,,,,,,,0,0,0,1,0,108,108,23,312.189018367,9.62160993367e-06,312.892160265,0.703152160975,,,,,z,1,0.683731624391,2018_Nov_14_1236,59.9883024154,spanish_cond1,001,1017,
images/grandpiano.jpg,tulip,x,sounds/animalfarm_spanish.wav,,,,,,,,,0,0,0,1,0,109,109,236,314.006272635,9.62160993367e-06,315.059364564,1.05310219282,,,,,x,1,1.03382662148,2018_Nov_14_1236,59.9883024154,spanish_cond1,001,1017,
images/remotecontrol01c.jpg,remote control,z,sounds/animalfarm_spanish.wav,,,,,,,,,0,0,0,1,0,110,110,85,316.169990391,8.98016151041e-06,317.259911841,1.08993299527,,,,,z,1,1.06716799433,2018_Nov_14_1236,59.9883024154,spanish_cond1,001,1017,
images/plate01b.jpg,plate,z,sounds/animalfarm_spanish.wav,,,,,,,,,0,0,0,1,0,111,111,3,318.360624864,9.30088572204e-06,319.160377782,0.799763501389,,,,,z,1,0.783760232502,2018_Nov_14_1236,59.9883024154,spanish_cond1,001,1017,
images/lighter02b.jpg,stapler,x,sounds/animalfarm_spanish.wav,,,,,,,,,0,0,0,1,0,112,112,227,320.262021534,8.98016151041e-06,321.21088407,0.948872157373,,,,,x,1,0.933796730475,2018_Nov_14_1236,59.9883024154,spanish_cond1,001,1017,
images/marker01a.jpg,marker,z,sounds/animalfarm_spanish.wav,,,,,,,,,0,0,0,1,0,113,113,95,322.310309084,9.30088572204e-06,323.361410307,1.05111116532,,,,,z,1,1.03381988639,2018_Nov_14_1236,59.9883024154,spanish_cond1,001,1017,
images/backpack01b.jpg,swallow,x,sounds/animalfarm_spanish.wav,,,,,,,,,0,0,0,1,0,114,114,228,324.493214214,8.98016151041e-06,325.311891835,0.818686922546,,,,,x,1,0.800428032409,2018_Nov_14_1236,59.9883024154,spanish_cond1,001,1017,
images/ladybug03.jpg,giraffe,x,sounds/animalfarm_spanish.wav,,,,,,,,,0,0,0,1,0,115,115,178,326.414867857,9.30088572204e-06,327.529103383,1.11424546852,,,,,x,1,1.10050134896,2018_Nov_14_1236,59.9883024154,spanish_cond1,001,1017,
images/sock03.jpg,sock,z,sounds/animalfarm_spanish.wav,,,,,,,,,0,0,0,1,0,116,116,90,328.634922905,9.30088572204e-06,330.079744374,1.44483173115,,,,,z,1,1.43392918771,2018_Nov_14_1236,59.9883024154,spanish_cond1,001,1017,
images/candle08a.jpg,screw driver,x,sounds/animalfarm_spanish.wav,,,,,,,,,0,0,0,1,0,117,117,221,331.193264374,9.30088572204e-06,331.963527441,0.770272688591,,,,,x,1,0.750408596825,2018_Nov_14_1236,59.9883024154,spanish_cond1,001,1017,
images/nailclipper03a.jpg,aquarium,x,sounds/animalfarm_spanish.wav,,,,,,,,,0,0,0,1,0,118,118,123,333.062855277,8.98016151041e-06,334.364119426,1.30127344944,,,,,x,1,1.28387569159,2018_Nov_14_1236,59.9883024154,spanish_cond1,001,1017,
images/puma.jpg,puma,z,sounds/animalfarm_spanish.wav,,,,,,,,,0,0,0,1,0,119,119,4,335.463231417,9.30088572204e-06,336.147897298,0.684675502242,,,,,z,1,0.667057410115,2018_Nov_14_1236,59.9883024154,spanish_cond1,001,1017,
images/ashtray02b.jpg,ashtray,z,sounds/animalfarm_spanish.wav,,,,,,,,,0,0,0,1,0,120,120,43,337.262284525,8.65943729877e-06,338.115041174,0.852766912547,,,,,z,1,0.833764594281,2018_Nov_14_1236,59.9883024154,spanish_cond1,001,1017,
images/lamp04b.jpg,parking meter,x,sounds/animalfarm_spanish.wav,,,,,,,,,0,0,0,1,0,121,121,209,339.237023042,9.30088572204e-06,340.315628861,1.07861576113,,,,,x,1,1.06719846267,2018_Nov_14_1236,59.9883024154,spanish_cond1,001,1017,
images/feather03b.jpg,feather,z,sounds/animalfarm_spanish.wav,,,,,,,,,0,0,0,1,0,122,122,114,341.41744965,8.98016151041e-06,342.466119818,1.04868011037,,,,,z,1,1.03382116929,2018_Nov_14_1236,59.9883024154,spanish_cond1,001,1017,
images/barrel01.jpg,barrel,z,sounds/animalfarm_spanish.wav,,,,,,,,,0,0,0,1,0,123,123,9,343.596554573,9.30088572204e-06,344.266567094,0.670022783917,,,,,x,0,0.650387685862,2018_Nov_14_1236,59.9883024154,spanish_cond1,001,1017,
images/swallow.jpg,mattress,x,sounds/animalfarm_spanish.wav,,,,,,,,,0,0,0,1,0,124,124,202,345.367827266,9.94233414531e-06,346.233713215,0.865895891911,,,,,x,1,0.850434639258,2018_Nov_14_1236,59.9883024154,spanish_cond1,001,1017,
images/panda.jpg,panda,z,sounds/animalfarm_spanish.wav,,,,,,,,,0,0,0,1,0,125,125,83,347.344289651,9.94233414531e-06,348.300904942,0.956625554711,,,,,z,1,0.93380603136,2018_Nov_14_1236,59.9883024154,spanish_cond1,001,1017,
images/fireextinguisher02.jpg,fire extinguisher,z,sounds/animalfarm_spanish.wav,,,,,,,,,0,0,0,1,0,126,126,175,349.411480416,8.98016151041e-06,350.20136479,0.789893675013,,,,,z,1,0.767067095847,2018_Nov_14_1236,59.9883024154,spanish_cond1,001,1017,
images/desktopcomputer.jpg,desktop computer,z,sounds/animalfarm_spanish.wav,,,,,,,,,0,0,0,1,0,127,127,16,351.339120933,9.62160993367e-06,352.118501418,0.779390748241,,,,,z,1,0.767084414721,2018_Nov_14_1236,59.9883024154,spanish_cond1,001,1017,
images/bull.jpg,button,x,sounds/animalfarm_spanish.wav,,,,,,,,,0,0,0,1,0,128,128,141,353.224278605,9.30088572204e-06,354.152340868,0.928072526236,,,,,x,1,0.917082426255,2018_Nov_14_1236,59.9883024154,spanish_cond1,001,1017,
images/blueberry02.jpg,blueberry,z,sounds/animalfarm_spanish.wav,,,,,,,,,0,0,0,1,0,129,129,46,355.265124497,8.98016151041e-06,356.036145424,0.771030228469,,,,,z,1,0.75041276624,2018_Nov_14_1236,59.9883024154,spanish_cond1,001,1017,
images/printer03a.jpg,printer,z,sounds/animalfarm_spanish.wav,,,,,,,,,0,0,0,1,0,130,130,72,357.14560736,8.65943729877e-06,358.019955497,0.874357758905,,,,,z,1,0.850438808673,2018_Nov_14_1236,59.9883024154,spanish_cond1,001,1017,
images/lock02a.jpg,lock,z,sounds/animalfarm_spanish.wav,,,,,,,,,0,0,0,1,0,131,131,65,359.130204799,9.30088572204e-06,359.803732728,0.673537871218,,,,,z,1,0.650395062403,2018_Nov_14_1236,59.9883024154,spanish_cond1,001,1017,
images/donut.jpg,rhinoceros,x,sounds/animalfarm_spanish.wav,,,,,,,,,0,0,0,1,0,132,132,216,360.92925983,9.30088572204e-06,362.404572115,1.47532800003,,,,,x,1,1.45072752051,2018_Nov_14_1236,59.9883024154,spanish_cond1,001,1017,
images/arrow02.jpg,hammer,x,sounds/animalfarm_spanish.wav,,,,,,,,,0,0,0,1,0,133,133,184,363.502684423,9.30088572204e-06,364.521552681,1.01887819963,,,,,x,1,1.00046696782,2018_Nov_14_1236,59.9883024154,spanish_cond1,001,1017,
images/raisin.jpg,ruler,x,sounds/animalfarm_spanish.wav,,,,,,,,,0,0,0,1,0,134,134,218,365.626334675,9.30088572204e-06,366.688761791,1.0624373795,,,,,x,1,1.05048319628,2018_Nov_14_1236,59.9883024154,spanish_cond1,001,1017,
images/toothbrush03a.jpg,parrot,x,sounds/animalfarm_spanish.wav,,,,,,,,,0,0,0,1,0,135,135,210,367.781085751,8.98016151041e-06,368.505872697,0.724796246854,,,,,x,1,0.700400386471,2018_Nov_14_1236,59.9883024154,spanish_cond1,001,1017,
images/ear.jpg,bullet,x,sounds/animalfarm_spanish.wav,,,,,,,,,0,0,0,1,0,136,136,139,369.610951678,9.62149351835e-06,370.339667119,0.728726024507,,,,,x,1,0.717077166424,2018_Nov_14_1236,59.9883024154,spanish_cond1,001,1017,
images/elbow.jpg,elbow,z,sounds/animalfarm_spanish.wav,,,,,,,,,0,0,0,1,0,137,137,105,371.451165944,8.98016151041e-06,372.190123246,0.738967244281,,,,,z,1,0.717079411494,2018_Nov_14_1236,59.9883024154,spanish_cond1,001,1017,
images/bowlingball.jpg,bowling ball,z,sounds/animalfarm_spanish.wav,,,,,,,,,0,0,0,1,0,138,138,20,373.322038443,8.98016151041e-06,374.323981042,1.00195189985,,,,,z,1,0.98380686529,2018_Nov_14_1236,59.9883024154,spanish_cond1,001,1017,
images/redfox.jpg,red fox,z,sounds/animalfarm_spanish.wav,,,,,,,,,0,0,0,1,0,139,139,1,375.436337151,9.30088572204e-06,376.274451986,0.838124777889,,,,,z,1,0.817090059281,2018_Nov_14_1236,59.9883024154,spanish_cond1,001,1017,
images/binder03b.jpg,dj mixer,x,sounds/animalfarm_spanish.wav,,,,,,,,,0,0,0,1,0,140,140,167,377.387356847,9.62160993367e-06,378.424986882,1.03764029883,,,,,x,1,1.01714150282,2018_Nov_14_1236,59.9883024154,spanish_cond1,001,1017,
images/nailpolish02b.jpg,nail polish,z,sounds/animalfarm_spanish.wav,,,,,,,,,0,0,0,1,0,141,141,94,379.533871202,8.98016151041e-06,380.292114338,0.75825243711,,,,,z,1,0.750411483343,2018_Nov_14_1236,59.9883024154,spanish_cond1,001,1017,
images/pictureframe04.jpg,picture frame,z,sounds/animalfarm_spanish.wav,,,,,,,,,0,0,0,1,0,142,142,41,381.414011536,9.30088572204e-06,382.359298368,0.945297095459,,,,,z,1,0.933795447578,2018_Nov_14_1236,59.9883024154,spanish_cond1,001,1017,
images/radish01.jpg,raisin,x,sounds/animalfarm_spanish.wav,,,,,,,,,0,0,0,1,0,143,143,214,383.470125927,9.62160993367e-06,384.509834226,1.03971824143,,,,,x,1,1.01714470994,2018_Nov_14_1236,59.9883024154,spanish_cond1,001,1017,
images/chameleon.jpg,50 dollar bill,x,sounds/animalfarm_spanish.wav,,,,,,,,,0,0,0,1,0,144,144,120,385.621618492,8.98016151041e-06,386.526995293,0.905386422295,,,,,x,1,0.883774729096,2018_Nov_14_1236,59.9883024154,spanish_cond1,001,1017,
images/watermelon01.jpg,orange,x,sounds/animalfarm_spanish.wav,,,,,,,,,0,0,0,1,0,145,145,207,387.656039728,9.30088572204e-06,388.394112485,0.738082699478,,,,,x,1,0.717066261917,2018_Nov_14_1236,59.9883024154,spanish_cond1,001,1017,
images/sunglasses03a.jpg,sun glasses,z,sounds/animalfarm_spanish.wav,,,,,,,,,0,0,0,1,0,146,146,17,389.50292336,9.30076930672e-06,390.477964636,0.975051539601,,,,,z,1,0.967138103209,2018_Nov_14_1236,59.9883024154,spanish_cond1,001,1017,
images/coin01b.jpg,arrow,x,sounds/animalfarm_spanish.wav,,,,,,,,,0,0,0,1,0,147,147,124,391.580722248,9.94233414531e-06,392.411783176,0.831071511493,,,,,x,1,0.81710994395,2018_Nov_14_1236,59.9883024154,spanish_cond1,001,1017,
images/spoon02b.jpg,spoon,z,sounds/animalfarm_spanish.wav,,,,,,,,,0,0,0,1,0,148,148,38,393.50305261,9.30088572204e-06,394.312233722,0.809191375971,,,,,z,1,0.800415524398,2018_Nov_14_1236,59.9883024154,spanish_cond1,001,1017,
images/masquerademask02b.jpg,mirror,x,sounds/animalfarm_spanish.wav,,,,,,,,,0,0,0,1,0,149,149,204,395.417309816,8.98016151041e-06,396.396094853,0.978795300121,,,,,x,1,0.967142593232,2018_Nov_14_1236,59.9883024154,spanish_cond1,001,1017,
images/baseball01a.jpg,baseball,z,sounds/animalfarm_spanish.wav,,,,,,,,,0,0,0,1,0,150,150,74,397.528657904,9.30088572204e-06,398.246542963,0.717895001522,,,,,z,1,0.700399424182,2018_Nov_14_1236,59.9883024154,spanish_cond1,001,1017,
images/apple06.jpg,apple,z,sounds/animalfarm_spanish.wav,,,,,,,,,0,0,0,1,0,151,151,13,399.373981555,9.94233414531e-06,400.080336422,0.7063654511,,,,,z,1,0.683734190068,2018_Nov_14_1236,59.9883024154,spanish_cond1,001,1017,
images/scooter.jpg,pen,x,sounds/animalfarm_spanish.wav,,,,,,,,,0,0,0,1,0,152,152,212,401.17315397,8.98016151041e-06,401.914104224,0.740959875402,,,,,x,1,0.717047339422,2018_Nov_14_1236,59.9883024154,spanish_cond1,001,1017,
images/key03b.jpg,cigar,x,sounds/animalfarm_spanish.wav,,,,,,,,,0,0,0,1,0,153,153,153,403.015507436,8.98016151041e-06,403.88126157,0.865764076007,,,,,x,1,0.850432394305,2018_Nov_14_1236,59.9883024154,spanish_cond1,001,1017,
images/charcoalbarbecue.jpg,charcoal barbecue,z,sounds/animalfarm_spanish.wav,,,,,,,,,0,0,0,1,0,154,154,77,405.000641439,9.94233414531e-06,405.931785818,0.931154642021,,,,,z,1,0.917134703486,2018_Nov_14_1236,59.9883024154,spanish_cond1,001,1017,
images/lion.jpg,lion,z,sounds/animalfarm_spanish.wav,,,,,,,,,0,0,0,1,0,155,155,44,407.04443282,9.30088572204e-06,408.24902405,1.20460149297,,,,,z,1,1.18386985455,2018_Nov_14_1236,59.9883024154,spanish_cond1,001,1017,
images/beachumbrella01.jpg,beach umbrella,z,sounds/animalfarm_spanish.wav,,,,,,,,,0,0,0,1,0,156,156,92,409.355205023,9.30076930672e-06,410.232849196,0.877653794596,,,,,z,1,0.86712777603,2018_Nov_14_1236,59.9883024154,spanish_cond1,001,1017,
images/toucan.jpg,toucan,z,sounds/animalfarm_spanish.wav,,,,,,,,,0,0,0,1,0,157,157,81,411.333561899,9.30076930672e-06,412.083288967,0.74973765132,,,,,z,1,0.733729250962,2018_Nov_14_1236,59.9883024154,spanish_cond1,001,1017,
images/flower01.jpg,bus,x,sounds/animalfarm_spanish.wav,,,,,,,,,0,0,0,1,0,158,158,140,413.197440465,9.30088572204e-06,413.950426365,0.752995842136,,,,,x,1,0.733753946493,2018_Nov_14_1236,59.9883024154,spanish_cond1,001,1017,
images/thumbtack02a.jpg,thumb tack,z,sounds/animalfarm_spanish.wav,,,,,,,,,0,0,0,1,0,159,159,60,415.113762144,9.30088572204e-06,415.83406575,0.720313869067,,,,,z,1,0.700252213865,2018_Nov_14_1236,59.9883024154,spanish_cond1,001,1017,
images/drink.jpg,drink,z,sounds/animalfarm_spanish.wav,,,,,,,,,0,0,0,1,0,160,160,117,416.934340029,9.30076930672e-06,418.251501609,1.31717152207,,,,,z,1,1.30056690413,2018_Nov_14_1236,59.9883024154,spanish_cond1,001,1017,
images/pepper05a.jpg,lighter,x,sounds/animalfarm_spanish.wav,,,,,,,,,0,0,0,1,0,161,161,198,419.37253992,9.30088572204e-06,420.301988333,0.929458355764,,,,,x,1,0.917121554026,2018_Nov_14_1236,59.9883024154,spanish_cond1,001,1017,
images/computermouse02a.jpg,world map,x,sounds/animalfarm_spanish.wav,,,,,,,,,0,0,0,1,0,162,162,239,421.40391464,9.30088572204e-06,423.352739651,1.94883527455,,,,,x,1,1.93404368451,2018_Nov_14_1236,59.9883024154,spanish_cond1,001,1017,
images/straw.jpg,straw,z,sounds/animalfarm_spanish.wav,,,,,,,,,0,0,0,1,0,163,163,109,424.445234876,8.98004509509e-06,425.136510468,0.691285213339,,,,,z,1,0.667063503759,2018_Nov_14_1236,59.9883024154,spanish_cond1,001,1017,
images/globe.jpg,cloud,x,sounds/animalfarm_spanish.wav,,,,,,,,,0,0,0,1,0,164,164,154,426.264459966,8.98016151041e-06,427.303724389,1.03927404468,,,,,x,1,1.01716459461,2018_Nov_14_1236,59.9883024154,spanish_cond1,001,1017,
images/candy.jpg,candy,z,sounds/animalfarm_spanish.wav,,,,,,,,,0,0,0,1,0,165,165,31,428.407267122,9.30088572204e-06,429.037477373,0.630219872575,,,,,z,1,0.617040860932,2018_Nov_14_1236,59.9883024154,spanish_cond1,001,1017,
images/handbag02a.jpg,candle,x,sounds/animalfarm_spanish.wav,,,,,,,,,0,0,0,1,0,166,166,144,430.153430353,9.30088572204e-06,431.17133132,1.01791090926,,,,,x,1,1.00047530653,2018_Nov_14_1236,59.9883024154,spanish_cond1,001,1017,
images/cauliflower01.jpg,glue stick,x,sounds/animalfarm_spanish.wav,,,,,,,,,0,0,0,1,0,167,167,181,432.288582573,8.98016151041e-06,433.071795979,0.783223027131,,,,,x,1,0.767081207479,2018_Nov_14_1236,59.9883024154,spanish_cond1,001,1017,
images/bullet (2).jpg,rubber glove,x,sounds/animalfarm_spanish.wav,,,,,,,,,0,0,0,1,0,168,168,217,434.1767951,8.98016151041e-06,435.088964422,0.912178943516,,,,,x,1,0.900456319912,2018_Nov_14_1236,59.9883024154,spanish_cond1,001,1017,
images/beermug01b.jpg,beer mug,z,sounds/animalfarm_spanish.wav,,,,,,,,,0,0,0,1,0,169,169,111,436.205601818,9.30088572204e-06,437.056134918,0.850543363253,,,,,z,1,0.833789931145,2018_Nov_14_1236,59.9883024154,spanish_cond1,001,1017,
images/knife04.jpg,tooth brush,x,sounds/animalfarm_spanish.wav,,,,,,,,,0,0,0,1,0,170,170,233,438.153974614,9.62160993367e-06,439.006602014,0.852637341712,,,,,x,1,0.833779347478,2018_Nov_14_1236,59.9883024154,spanish_cond1,001,1017,
images/paperclip04.jpg,eye drops,x,sounds/animalfarm_spanish.wav,,,,,,,,,0,0,0,1,0,171,171,174,440.11303828,9.62160993367e-06,440.840405095,0.727377398522,,,,,x,1,0.717101220391,2018_Nov_14_1236,59.9883024154,spanish_cond1,001,1017,
images/mailbox01.jpg,mail box,z,sounds/animalfarm_spanish.wav,,,,,,,,,0,0,0,1,0,172,172,73,441.95997932,9.62149351835e-06,442.80753101,0.847561632632,,,,,z,1,0.833764594281,2018_Nov_14_1236,59.9883024154,spanish_cond1,001,1017,
images/umbrella01.jpg,umbrella,z,sounds/animalfarm_spanish.wav,,,,,,,,,0,0,0,1,0,173,173,53,443.920645621,9.62160993367e-06,444.958064944,1.03742958605,,,,,z,1,1.01714599284,2018_Nov_14_1236,59.9883024154,spanish_cond1,001,1017,
images/stapler03a.jpg,candy cane,x,sounds/animalfarm_spanish.wav,,,,,,,,,0,0,0,1,0,174,174,145,446.069325155,8.98016151041e-06,446.808635569,0.739320356632,,,,,x,1,0.717194549739,2018_Nov_14_1236,59.9883024154,spanish_cond1,001,1017,
images/graduationcap.jpg,graduation cap,z,sounds/animalfarm_spanish.wav,,,,,,,,,0,0,0,1,0,175,175,35,447.910930382,8.98016151041e-06,448.975724409,1.0648039697,,,,,z,1,1.05048030976,2018_Nov_14_1236,59.9883024154,spanish_cond1,001,1017,
images/bottleofredwine02.jpg,pipe,x,sounds/animalfarm_spanish.wav,,,,,,,,,0,0,0,1,0,176,176,213,450.074074692,8.98016151041e-06,451.259614213,1.18554882193,,,,,x,1,1.16718088719,2018_Nov_14_1236,59.9883024154,spanish_cond1,001,1017,
images/hairpin.jpg,hair pin,z,sounds/animalfarm_spanish.wav,,,,,,,,,0,0,0,1,0,177,177,28,452.350937528,9.30088572204e-06,453.143421334,0.792493749177,,,,,z,1,0.783763439744,2018_Nov_14_1236,59.9883024154,spanish_cond1,001,1017,
images/atm.jpg,atm,z,sounds/animalfarm_spanish.wav,,,,,,,,,0,0,0,1,0,178,178,96,454.282024498,9.30088572204e-06,454.977196513,0.695182277821,,,,,z,1,0.683712701895,2018_Nov_14_1236,59.9883024154,spanish_cond1,001,1017,
images/ruler02b.jpg,watermelon,x,sounds/animalfarm_spanish.wav,,,,,,,,,0,0,0,1,0,179,179,238,456.079821667,9.62160993367e-06,457.044383429,0.964571704622,,,,,x,1,0.95046709606,2018_Nov_14_1236,59.9883024154,spanish_cond1,001,1017,
images/dresser02.jpg,dresser,z,sounds/animalfarm_spanish.wav,,,,,,,,,0,0,0,1,0,180,180,87,458.166615458,9.30088572204e-06,459.444977017,1.27837150113,,,,,z,1,1.26720147731,2018_Nov_14_1236,59.9883024154,spanish_cond1,001,1017,
images/cola.jpg,comb,x,sounds/animalfarm_spanish.wav,,,,,,,,,0,0,0,1,0,181,181,157,460.565788579,9.30088572204e-06,461.595512555,1.02973391814,,,,,x,1,1.01715176587,2018_Nov_14_1236,59.9883024154,spanish_cond1,001,1017,
images/fork01.jpg,cooking pot,x,sounds/animalfarm_spanish.wav,,,,,,,,,0,0,0,1,0,182,182,160,462.689908685,8.98016151041e-06,463.662675418,0.972776675248,,,,,x,1,0.950461643864,2018_Nov_14_1236,59.9883024154,spanish_cond1,001,1017,
images/lettuce.jpg,mushroom,x,sounds/animalfarm_spanish.wav,,,,,,,,,0,0,0,1,0,183,183,205,464.786088336,9.30088572204e-06,465.729863938,0.943785223062,,,,,x,1,0.933801220614,2018_Nov_14_1236,59.9883024154,spanish_cond1,001,1017,
images/mirror02.jpg,8 ball,x,sounds/animalfarm_spanish.wav,,,,,,,,,0,0,0,1,0,184,184,121,466.833649456,9.30088572204e-06,467.697022888,0.863382732728,,,,,x,1,0.850453561754,2018_Nov_14_1236,59.9883024154,spanish_cond1,001,1017,
images/medal01.jpg,medal,z,sounds/animalfarm_spanish.wav,,,,,,,,,0,0,0,1,0,185,185,115,468.798312245,9.62160993367e-06,469.464111151,0.665808848571,,,,,z,1,0.650391855277,2018_Nov_14_1236,59.9883024154,spanish_cond1,001,1017,
images/lollipop03b.jpg,lollipop,z,sounds/animalfarm_spanish.wav,,,,,,,,,0,0,0,1,0,186,186,42,470.55687578,9.30076930672e-06,471.497948998,0.941083159996,,,,,z,1,0.917123157647,2018_Nov_14_1236,59.9883024154,spanish_cond1,001,1017,
images/gamecontroller01.jpg,game controller,z,sounds/animalfarm_spanish.wav,,,,,,,,,0,0,0,1,0,187,187,112,472.618638045,8.65943729877e-06,473.41510519,0.796476766467,,,,,z,1,0.783773382078,2018_Nov_14_1236,59.9883024154,spanish_cond1,001,1017,
images/hammer02a.jpg,flower,x,sounds/animalfarm_spanish.wav,,,,,,,,,0,0,0,1,0,188,188,176,474.511708833,9.30076930672e-06,475.232196532,0.720496999915,,,,,x,1,0.700400707196,2018_Nov_14_1236,59.9883024154,spanish_cond1,001,1017,
images/carrot02.jpg,corkscrew,x,sounds/animalfarm_spanish.wav,,,,,,,,,0,0,0,1,0,189,189,161,476.33481463,8.98016151041e-06,477.149339574,0.814534244593,,,,,x,1,0.800428353134,2018_Nov_14_1236,59.9883024154,spanish_cond1,001,1017,
images/worldmap.jpg,scooter,x,sounds/animalfarm_spanish.wav,,,,,,,,,0,0,0,1,0,190,190,220,478.281649256,8.98016151041e-06,478.883108274,0.60146928078,,,,,x,1,0.583713279222,2018_Nov_14_1236,59.9883024154,spanish_cond1,001,1017,
images/peach01.jpg,peach,z,sounds/animalfarm_spanish.wav,,,,,,,,,0,0,0,1,0,191,191,106,480.011626408,9.30088572204e-06,480.58351764,0.571901174728,,,,,x,0,0.550358436303,2018_Nov_14_1236,59.9883024154,spanish_cond1,001,1017,
images/mitten01.jpg,mitten,z,sounds/animalfarm_spanish.wav,,,,,,,,,0,0,0,1,0,192,192,102,481.703892703,8.98016151041e-06,482.600684159,0.896801078226,,,,,z,1,0.883781464188,2018_Nov_14_1236,59.9883024154,spanish_cond1,001,1017,
images/paintbrush03a.jpg,paint brush,z,sounds/animalfarm_spanish.wav,,,,,,,,,0,0,0,1,0,193,193,0,483.701152153,9.62149351835e-06,484.701202506,1.0000599745,,,,,z,1,0.983806544449,2018_Nov_14_1236,59.9883024154,spanish_cond1,001,1017,
images/lightswitch02a.jpg,fork,x,sounds/animalfarm_spanish.wav,,,,,,,,,0,0,0,1,0,194,194,177,485.813211917,8.98016151041e-06,486.668355042,0.855153066688,,,,,x,1,0.833771008649,2018_Nov_14_1236,59.9883024154,spanish_cond1,001,1017,
images/bat.jpg,hand,x,sounds/animalfarm_spanish.wav,,,,,,,,,0,0,0,1,0,195,195,185,487.766391981,9.30088572204e-06,488.752203344,0.985820984468,,,,,x,1,0.967135537416,2018_Nov_14_1236,59.9883024154,spanish_cond1,001,1017,
images/croissant02b.jpg,croissant,z,sounds/animalfarm_spanish.wav,,,,,,,,,0,0,0,1,0,196,196,39,489.864588639,9.94221772999e-06,490.619333044,0.754754668684,,,,,z,1,0.733744004159,2018_Nov_14_1236,59.9883024154,spanish_cond1,001,1017,
images/cigar.jpg,crocodile,x,sounds/animalfarm_spanish.wav,,,,,,,,,0,0,0,1,0,197,197,162,491.71905761,9.30088572204e-06,492.653173457,0.934125468135,,,,,x,1,0.917100386578,2018_Nov_14_1236,59.9883024154,spanish_cond1,001,1017,
images/puzzle.jpg,puzzle,z,sounds/animalfarm_spanish.wav,,,,,,,,,0,0,0,1,0,198,198,57,493.772938831,9.30088572204e-06,494.52030444,0.747375551146,,,,,z,1,0.733748173458,2018_Nov_14_1236,59.9883024154,spanish_cond1,001,1017,
images/tissuebox03.jpg,tissue box,z,sounds/animalfarm_spanish.wav,,,,,,,,,0,0,0,1,0,199,199,58,495.645639432,8.98016151041e-06,496.387414897,0.741785087157,,,,,z,1,0.733743041987,2018_Nov_14_1236,59.9883024154,spanish_cond1,001,1017,
images/razor04a.jpg,razor,z,sounds/animalfarm_spanish.wav,,,,,,,,,0,0,0,1,0,200,200,36,497.487344403,8.98016151041e-06,498.187861852,0.700527712004,,,,,z,1,0.683731945115,2018_Nov_14_1236,59.9883024154,spanish_cond1,001,1017,
images/butterfly.jpg,butterfly,z,sounds/animalfarm_spanish.wav,,,,,,,,,0,0,0,1,0,201,201,91,499.295269578,9.30076930672e-06,499.954968076,0.659708760912,,,,,z,1,0.650393138174,2018_Nov_14_1236,59.9883024154,spanish_cond1,001,1017,
images/showerhead01.jpg,skateboard,x,sounds/animalfarm_spanish.wav,,,,,,,,,0,0,0,1,0,202,202,223,501.06266477,9.30088572204e-06,502.305546718,1.24289156985,,,,,x,1,1.23386748123,2018_Nov_14_1236,59.9883024154,spanish_cond1,001,1017,
images/grasshopper.jpg,cauliflower,x,sounds/animalfarm_spanish.wav,,,,,,,,,0,0,0,1,0,203,203,148,503.398636557,9.30088572204e-06,504.322715482,0.924088546773,,,,,x,1,0.90044958482,2018_Nov_14_1236,59.9883024154,spanish_cond1,001,1017,
images/acousticguitar02.jpg,acoustic guitar,z,sounds/animalfarm_spanish.wav,,,,,,,,,0,0,0,1,0,204,204,97,505.437488855,9.62160993367e-06,506.473231456,1.03575286374,,,,,z,1,1.01714470994,2018_Nov_14_1236,59.9883024154,spanish_cond1,001,1017,
images/hairdryer03a.jpg,hairdryer,z,sounds/animalfarm_spanish.wav,,,,,,,,,0,0,0,1,0,205,205,119,507.57219784,8.98016151041e-06,508.340368212,0.768180634477,,,,,z,1,0.750421425677,2018_Nov_14_1236,59.9883024154,spanish_cond1,001,1017,
images/basketball01.jpg,basket ball,z,sounds/animalfarm_spanish.wav,,,,,,,,,0,0,0,1,0,206,206,33,509.480593254,9.62149351835e-06,510.474219914,0.993636280764,,,,,z,1,0.983803016483,2018_Nov_14_1236,59.9883024154,spanish_cond1,001,1017,
images/headphones02b.jpg,headphones,z,sounds/animalfarm_spanish.wav,,,,,,,,,0,0,0,1,0,207,207,101,511.583703016,8.98016151041e-06,512.39136488,0.807671485585,,,,,z,1,0.783759911777,2018_Nov_14_1236,59.9883024154,spanish_cond1,001,1017,
images/blackolive.jpg,tank,x,sounds/animalfarm_spanish.wav,,,,,,,,,0,0,0,1,0,208,208,229,513.507504519,8.98016151041e-06,514.558573991,1.05107909336,,,,,x,1,1.03381924506,2018_Nov_14_1236,59.9883024154,spanish_cond1,001,1017,
images/hat05.jpg,hat,z,sounds/animalfarm_spanish.wav,,,,,,,,,0,0,0,1,0,209,209,15,515.664454129,8.98004509509e-06,516.575723191,0.911278362735,,,,,z,1,0.900444773957,2018_Nov_14_1236,59.9883024154,spanish_cond1,001,1017,
images/triangleruler02.jpg,bottle of red wine,x,sounds/animalfarm_spanish.wav,,,,,,,,,0,0,0,1,0,210,210,134,517.688102071,8.65943729877e-06,518.392845001,0.704752872698,,,,,x,1,0.683729700046,2018_Nov_14_1236,59.9883024154,spanish_cond1,001,1017,
images/nametag01a.jpg,name tag,z,sounds/animalfarm_spanish.wav,,,,,,,,,0,0,0,1,0,211,211,108,519.514580236,9.62160993367e-06,520.660071174,1.14550120151,,,,,z,1,1.1338427217,2018_Nov_14_1236,59.9883024154,spanish_cond1,001,1017,
images/weight01.jpg,weight,z,sounds/animalfarm_spanish.wav,,,,,,,,,0,0,0,1,0,212,212,67,521.766169081,9.62160993367e-06,522.477185608,0.711026148871,,,,,z,1,0.700408083736,2018_Nov_14_1236,59.9883024154,spanish_cond1,001,1017,
images/parkingmeter.jpg,ear,x,sounds/animalfarm_spanish.wav,,,,,,,,,0,0,0,1,0,213,213,171,523.64069201,8.98016151041e-06,524.477684006,0.837001617649,,,,,x,1,0.817100963788,2018_Nov_14_1236,59.9883024154,spanish_cond1,001,1017,
images/apricot.jpg,apricot,z,sounds/animalfarm_spanish.wav,,,,,,,,,0,0,0,1,0,214,214,32,525.596237381,9.30088572204e-06,526.711551167,1.11532340723,,,,,z,1,1.1004923688,2018_Nov_14_1236,59.9883024154,spanish_cond1,001,1017,
images/screwdriver02b.jpg,cola,x,sounds/animalfarm_spanish.wav,,,,,,,,,0,0,0,1,0,215,215,158,527.806956601,9.62160993367e-06,528.695407102,0.888460443006,,,,,x,1,0.867135473294,2018_Nov_14_1236,59.9883024154,spanish_cond1,001,1017,
images/cat.jpg,black olive,x,sounds/animalfarm_spanish.wav,,,,,,,,,0,0,0,1,0,216,216,133,529.827292793,9.30076930672e-06,530.729219291,0.901936440961,,,,,x,1,0.883777936338,2018_Nov_14_1236,59.9883024154,spanish_cond1,001,1017,
images/tulip02.jpg,sport shorts,x,sounds/animalfarm_spanish.wav,,,,,,,,,0,0,0,1,0,217,217,225,531.824870718,9.30088572204e-06,532.713033212,0.888172116131,,,,,x,1,0.867101476993,2018_Nov_14_1236,59.9883024154,spanish_cond1,001,1017,
images/microphone01.jpg,diaper,x,sounds/animalfarm_spanish.wav,,,,,,,,,0,0,0,1,0,218,218,164,533.813283117,8.98016151041e-06,534.846921797,1.03364862211,,,,,x,1,1.01716363244,2018_Nov_14_1236,59.9883024154,spanish_cond1,001,1017,
images/bracelet02a.jpg,chess knight,x,sounds/animalfarm_spanish.wav,,,,,,,,,0,0,0,1,0,219,219,152,535.957703173,9.30088572204e-06,537.080788316,1.123094765,,,,,x,1,1.10050487693,2018_Nov_14_1236,59.9883024154,spanish_cond1,001,1017,
images/pouch01b.jpg,pouch,z,sounds/animalfarm_spanish.wav,,,,,,,,,0,0,0,1,0,220,220,25,538.195407423,9.30076930672e-06,539.064602879,0.869205397787,,,,,z,1,0.850431432016,2018_Nov_14_1236,59.9883024154,spanish_cond1,001,1017,
images/eyedrops.jpg,bicycle,x,sounds/animalfarm_spanish.wav,,,,,,,,,0,0,0,1,0,221,221,131,540.166915331,9.30088572204e-06,540.848392938,0.681487549096,,,,,x,1,0.667074408266,2018_Nov_14_1236,59.9883024154,spanish_cond1,001,1017,
images/cockroach02.jpg,belt,x,sounds/animalfarm_spanish.wav,,,,,,,,,0,0,0,1,0,222,222,129,541.948740341,8.98016151041e-06,542.782205704,0.833474022336,,,,,x,1,0.817102246685,2018_Nov_14_1236,59.9883024154,spanish_cond1,001,1017,
images/radio03a.jpg,radio,z,sounds/animalfarm_spanish.wav,,,,,,,,,0,0,0,1,0,223,223,37,543.896206143,8.98016151041e-06,544.6658406,0.769644398941,,,,,z,1,0.750259462162,2018_Nov_14_1236,59.9883024154,spanish_cond1,001,1017,
images/egg01b (1).jpg,egg,z,sounds/animalfarm_spanish.wav,,,,,,,,,0,0,0,1,0,224,224,19,545.778353541,9.62160993367e-06,546.516442975,0.738099697628,,,,,z,1,0.717059206101,2018_Nov_14_1236,59.9883024154,spanish_cond1,001,1017,
images/bowl02b (1).jpg,bowl,z,sounds/animalfarm_spanish.wav,,,,,,,,,0,0,0,1,0,225,225,24,547.634115975,9.30088572204e-06,548.81702367,1.18291699653,,,,,z,1,1.16717864212,2018_Nov_14_1236,59.9883024154,spanish_cond1,001,1017,
images/corn01.jpg,corn,z,sounds/animalfarm_spanish.wav,,,,,,,,,0,0,0,1,0,226,226,22,549.916990059,9.30088572204e-06,550.784160811,0.867180374102,,,,,z,1,0.850429187063,2018_Nov_14_1236,59.9883024154,spanish_cond1,001,1017,
images/diaper01a.jpg,camera,x,sounds/animalfarm_spanish.wav,,,,,,,,,0,0,0,1,0,227,227,143,551.904367496,9.94221772999e-06,552.801583906,0.897226352361,,,,,x,1,0.884009175119,2018_Nov_14_1236,59.9883024154,spanish_cond1,001,1017,
images/hanger02a.jpg,hanger,z,sounds/animalfarm_spanish.wav,,,,,,,,,0,0,0,1,0,228,228,88,553.894951488,8.65943729877e-06,554.585101354,0.690158845973,,,,,z,1,0.667057410115,2018_Nov_14_1236,59.9883024154,spanish_cond1,001,1017,
images/leaf01a.jpg,leaf,z,sounds/animalfarm_spanish.wav,,,,,,,,,0,0,0,1,0,229,229,68,555.689396495,9.62160993367e-06,556.468898213,0.779511659406,,,,,z,1,0.767040155362,2018_Nov_14_1236,59.9883024154,spanish_cond1,001,1017,
images/belt02a.jpg,snowman,x,sounds/animalfarm_spanish.wav,,,,,,,,,0,0,0,1,0,230,230,224,557.572574044,9.30088572204e-06,558.519417009,0.946853227098,,,,,z,0,0.933794164681,2018_Nov_14_1236,59.9883024154,spanish_cond1,001,1017,
images/lipstick04.jpg,lipstick,z,sounds/animalfarm_spanish.wav,,,,,,,,,0,0,0,1,0,231,231,56,559.619711173,9.94233414531e-06,560.41990091,0.800200000755,,,,,z,1,0.78377274063,2018_Nov_14_1236,59.9883024154,spanish_cond1,001,1017,
images/gorilla.jpg,gorilla,z,sounds/animalfarm_spanish.wav,,,,,,,,,0,0,0,1,0,232,232,80,561.530432125,9.30088572204e-06,562.20365986,0.673237998388,,,,,z,1,0.650396666024,2018_Nov_14_1236,59.9883024154,spanish_cond1,001,1017,
,,,sounds/animalfarm_spanish.wav,,,,,,,,,0,0,0,1,,,,,,,,,,,,,,,,2018_Nov_14_1236,59.9883024154,spanish_cond1,001,1017,
images/paperclip04.jpg,eye drops,x,sounds/greatgatsby_english.wav,,,,,,,,,0,1,1,0,0,0,0,174,583.333832587,9.62149351835e-06,584.425823961,1.09200163686,,,,573.20652998,x,1,1.08385824459,2018_Nov_14_1236,59.9883024154,spanish_cond1,001,1017,
images/cheetah.jpg,cheetah,z,sounds/greatgatsby_english.wav,,,,,,,,,0,1,1,0,0,1,1,82,585.52602223,8.98016151041e-06,586.192900999,0.666887749452,,,,,z,1,0.650385440909,2018_Nov_14_1236,59.9883024154,spanish_cond1,001,1017,
images/cauliflower01.jpg,glue stick,x,sounds/greatgatsby_english.wav,,,,,,,,,0,1,1,0,0,2,2,181,587.306439281,9.62160993367e-06,588.576820052,1.27039071347,,,,,x,1,1.25053656392,2018_Nov_14_1236,59.9883024154,spanish_cond1,001,1017,
images/lemon02.jpg,lemon,z,sounds/greatgatsby_english.wav,,,,,,,,,0,1,1,0,0,3,3,14,589.686288401,9.30088572204e-06,590.34392403,0.657645250787,,,,,z,1,0.633722772589,2018_Nov_14_1236,59.9883024154,spanish_cond1,001,1017,
images/tent.jpg,tent,z,sounds/greatgatsby_english.wav,,,,,,,,,0,1,1,0,0,4,4,11,591.46783182,8.98016151041e-06,592.144369702,0.676547504379,,,,,z,1,0.667066069553,2018_Nov_14_1236,59.9883024154,spanish_cond1,001,1017,
images/cake.jpg,cake,z,sounds/greatgatsby_english.wav,,,,,,,,,0,1,1,0,0,5,5,23,593.255685397,9.30076930672e-06,594.061506972,0.805831196252,,,,,z,1,0.783751252457,2018_Nov_14_1236,59.9883024154,spanish_cond1,001,1017,
images/broom02.jpg,broom,z,sounds/greatgatsby_english.wav,,,,,,,,,0,1,1,0,0,6,6,116,595.15295633,9.30088572204e-06,595.761920828,0.608974441304,,,,,z,1,0.600373061141,2018_Nov_14_1236,59.9883024154,spanish_cond1,001,1017,
images/hanger02a.jpg,hanger,z,sounds/greatgatsby_english.wav,,,,,,,,,0,1,1,0,0,7,7,88,596.853387826,9.30088572204e-06,597.429019291,0.575641407166,,,,,z,1,0.567052535247,2018_Nov_14_1236,59.9883024154,spanish_cond1,001,1017,
images/barrel01.jpg,barrel,z,sounds/greatgatsby_english.wav,,,,,,,,,0,1,1,0,0,8,8,9,598.557125941,9.30088572204e-06,599.179440395,0.62232439639,,,,,z,1,0.600380437681,2018_Nov_14_1236,59.9883024154,spanish_cond1,001,1017,
images/cockroach02.jpg,belt,x,sounds/greatgatsby_english.wav,,,,,,,,,0,1,1,0,0,9,9,129,600.275955841,8.98004509509e-06,601.363307043,1.08736114437,,,,,x,1,1.06715933478,2018_Nov_14_1236,59.9883024154,spanish_cond1,001,1017,
images/flamingo.jpg,flamingo,z,sounds/greatgatsby_english.wav,,,,,,,,,0,1,1,0,0,10,10,52,602.4598722,9.30088572204e-06,603.180433023,0.720570444711,,,,,z,1,0.700414498104,2018_Nov_14_1236,59.9883024154,spanish_cond1,001,1017,
images/skateboard.jpg,key,x,sounds/greatgatsby_english.wav,,,,,,,,,0,1,1,0,0,11,11,189,604.269717844,8.98016151041e-06,605.581020196,1.31131229491,,,,,x,1,1.30055920687,2018_Nov_14_1236,59.9883024154,spanish_cond1,001,1017,
images/microphone01.jpg,diaper,x,sounds/greatgatsby_english.wav,,,,,,,,,0,1,1,0,0,12,12,164,606.678643086,9.30076930672e-06,607.564846625,0.886213481193,,,,,x,1,0.867114947177,2018_Nov_14_1236,59.9883024154,spanish_cond1,001,1017,
images/ladybug03.jpg,giraffe,x,sounds/greatgatsby_english.wav,,,,,,,,,0,1,1,0,0,13,13,178,608.665978509,8.98016151041e-06,609.548663754,0.882695186767,,,,,x,1,0.867107570637,2018_Nov_14_1236,59.9883024154,spanish_cond1,001,1017,
images/leek.jpg,donut,x,sounds/greatgatsby_english.wav,,,,,,,,,0,1,1,0,0,14,14,169,610.647615065,9.30088572204e-06,611.415807245,0.768202443374,,,,,x,1,0.750435858034,2018_Nov_14_1236,59.9883024154,spanish_cond1,001,1017,
images/elbow.jpg,elbow,z,sounds/greatgatsby_english.wav,,,,,,,,,0,1,1,0,0,15,15,105,612.525314081,8.98016151041e-06,613.199563629,0.674258849001,,,,,z,1,0.650385440909,2018_Nov_14_1236,59.9883024154,spanish_cond1,001,1017,
images/clothespin02a.jpg,clothes pin,z,sounds/greatgatsby_english.wav,,,,,,,,,0,1,1,0,0,16,16,79,614.302593531,9.30076930672e-06,614.966661514,0.664078566013,,,,,z,1,0.650390893104,2018_Nov_14_1236,59.9883024154,spanish_cond1,001,1017,
images/butterfly.jpg,butterfly,z,sounds/greatgatsby_english.wav,,,,,,,,,0,1,1,0,0,17,17,91,616.071946396,8.98016151041e-06,617.133865493,1.06192807667,,,,,z,1,1.05048993137,2018_Nov_14_1236,59.9883024154,spanish_cond1,001,1017,
images/raisin.jpg,ruler,x,sounds/greatgatsby_english.wav,,,,,,,,,0,1,1,0,0,18,18,218,618.237246904,9.30076930672e-06,619.017697631,0.78046034812,,,,,x,1,0.767118090298,2018_Nov_14_1236,59.9883024154,spanish_cond1,001,1017,
images/honeycomb.jpg,honey comb,z,sounds/greatgatsby_english.wav,,,,,,,,,0,1,1,0,0,19,19,59,620.128139364,9.30076930672e-06,620.851451,0.723320936435,,,,,z,1,0.700402631424,2018_Nov_14_1236,59.9883024154,spanish_cond1,001,1017,
images/radio03a.jpg,radio,z,sounds/greatgatsby_english.wav,,,,,,,,,0,1,1,0,0,20,20,37,621.963450148,8.98016151041e-06,622.551885383,0.588445176836,,,,,z,1,0.567055421649,2018_Nov_14_1236,59.9883024154,spanish_cond1,001,1017,
images/fork01.jpg,cooking pot,x,sounds/greatgatsby_english.wav,,,,,,,,,0,1,1,0,0,21,21,160,623.643619539,9.30088572204e-06,624.985800138,1.34219054074,,,,,z,0,1.33388967509,2018_Nov_14_1236,59.9883024154,spanish_cond1,001,1017,
images/tie01.jpg,bench,x,sounds/greatgatsby_english.wav,,,,,,,,,0,1,1,0,0,22,22,130,626.08401668,1.02630583569e-05,627.603126118,1.51912002231,,,,,x,1,1.50056318368,2018_Nov_14_1236,59.9883024154,spanish_cond1,001,1017,
images/fireextinguisher02.jpg,fire extinguisher,z,sounds/greatgatsby_english.wav,,,,,,,,,0,1,1,0,0,23,23,175,628.712187154,9.94221772999e-06,629.403564093,0.691387522966,,,,,z,1,0.66706157953,2018_Nov_14_1236,59.9883024154,spanish_cond1,001,1017,
images/weight01.jpg,weight,z,sounds/greatgatsby_english.wav,,,,,,,,,0,1,1,0,0,24,24,67,630.506951919,9.62160993367e-06,631.77080829,1.26386663446,,,,,z,1,1.25053335668,2018_Nov_14_1236,59.9883024154,spanish_cond1,001,1017,
images/egg01b (1).jpg,egg,z,sounds/greatgatsby_english.wav,,,,,,,,,0,1,1,0,0,25,25,19,632.881481584,8.98016151041e-06,634.304774104,1.4233021423,,,,,z,1,1.40058300423,2018_Nov_14_1236,59.9883024154,spanish_cond1,001,1017,
images/pipe.jpg,icecube,x,sounds/greatgatsby_english.wav,,,,,,,,,0,1,1,0,0,26,26,188,635.411313963,9.30088572204e-06,636.171740879,0.760437179357,,,,,x,1,0.750254651415,2018_Nov_14_1236,59.9883024154,spanish_cond1,001,1017,
images/rhinoceros01.jpg,envelope,x,sounds/greatgatsby_english.wav,,,,,,,,,0,1,1,0,0,27,27,173,637.282967734,8.65943729877e-06,638.239074044,0.95611625188,,,,,x,1,0.933768507093,2018_Nov_14_1236,59.9883024154,spanish_cond1,001,1017,
images/masquerademask02b.jpg,mirror,x,sounds/greatgatsby_english.wav,,,,,,,,,0,1,1,0,0,28,28,204,639.342068988,8.98016151041e-06,640.106206951,0.764147584909,,,,,x,1,0.750428160653,2018_Nov_14_1236,59.9883024154,spanish_cond1,001,1017,
images/sock03.jpg,sock,z,sounds/greatgatsby_english.wav,,,,,,,,,0,1,1,0,0,29,29,90,641.209951417,9.30088572204e-06,641.906641719,0.696699923137,,,,,z,1,0.683735793689,2018_Nov_14_1236,59.9883024154,spanish_cond1,001,1017,
images/lettuce.jpg,mushroom,x,sounds/greatgatsby_english.wav,,,,,,,,,0,1,1,0,0,30,30,205,643.027891704,8.98016151041e-06,643.973819335,0.945936931064,,,,,x,1,0.933798654703,2018_Nov_14_1236,59.9883024154,spanish_cond1,001,1017,
images/lip.jpg,boxing glove,x,sounds/greatgatsby_english.wav,,,,,,,,,0,1,1,0,0,31,31,136,645.076464694,9.30088572204e-06,646.324404391,1.24794996006,,,,,x,1,1.2338751785,2018_Nov_14_1236,59.9883024154,spanish_cond1,001,1017,
images/corn01.jpg,corn,z,sounds/greatgatsby_english.wav,,,,,,,,,0,1,1,0,0,32,32,22,647.422525359,9.30088572204e-06,648.224875144,0.802360047586,,,,,z,1,0.783764081192,2018_Nov_14_1236,59.9883024154,spanish_cond1,001,1017,
images/dice05a.jpg,band aid,x,sounds/greatgatsby_english.wav,,,,,,,,,0,1,1,0,0,33,33,126,649.335208153,9.30088572204e-06,650.258548141,0.923349608784,,,,,x,1,0.900296922307,2018_Nov_14_1236,59.9883024154,spanish_cond1,001,1017,
images/triangleruler02.jpg,bottle of red wine,x,sounds/greatgatsby_english.wav,,,,,,,,,0,1,1,0,0,34,34,134,651.367565879,8.98016151041e-06,652.259203692,0.891647113487,,,,,x,1,0.883782426361,2018_Nov_14_1236,59.9883024154,spanish_cond1,001,1017,
images/plant01.jpg,plant,z,sounds/greatgatsby_english.wav,,,,,,,,,0,1,1,0,0,35,35,47,653.36883657,9.30088572204e-06,654.326377779,0.95755083079,,,,,z,1,0.933803786291,2018_Nov_14_1236,59.9883024154,spanish_cond1,001,1017,
images/watermelon01.jpg,orange,x,sounds/greatgatsby_english.wav,,,,,,,,,0,1,1,0,0,36,36,207,655.453469994,9.30088572204e-06,656.276854818,0.823395086802,,,,,x,1,0.800430598203,2018_Nov_14_1236,59.9883024154,spanish_cond1,001,1017,
images/coin01b.jpg,arrow,x,sounds/greatgatsby_english.wav,,,,,,,,,0,1,1,0,0,37,37,124,657.377868677,9.30088572204e-06,658.127310625,0.749451890122,,,,,x,1,0.733727006009,2018_Nov_14_1236,59.9883024154,spanish_cond1,001,1017,
images/bowlingball.jpg,bowling ball,z,sounds/greatgatsby_english.wav,,,,,,,,,0,1,1,0,0,38,38,20,659.25789291,9.30076930672e-06,660.077785739,0.81990277057,,,,,z,1,0.800420335145,2018_Nov_14_1236,59.9883024154,spanish_cond1,001,1017,
images/razor04a.jpg,razor,z,sounds/greatgatsby_english.wav,,,,,,,,,0,1,1,0,0,39,39,36,661.176043654,9.30076930672e-06,662.361686126,1.18565241422,,,,,z,1,1.16718152864,2018_Nov_14_1236,59.9883024154,spanish_cond1,001,1017,
images/pouch01b.jpg,pouch,z,sounds/greatgatsby_english.wav,,,,,,,,,0,1,1,0,0,40,40,25,663.471688794,9.62160993367e-06,664.195498187,0.723819014034,,,,,z,1,0.700412894366,2018_Nov_14_1236,59.9883024154,spanish_cond1,001,1017,
images/basketball01.jpg,basket ball,z,sounds/greatgatsby_english.wav,,,,,,,,,0,1,1,0,0,41,41,33,665.332565103,9.30076930672e-06,665.96257747,0.630021988531,,,,,z,1,0.617044709623,2018_Nov_14_1236,59.9883024154,spanish_cond1,001,1017,
images/dryingmachine01.jpg,drying machine,z,sounds/greatgatsby_english.wav,,,,,,,,,0,1,1,0,0,42,42,18,667.081937134,9.30088572204e-06,668.113107876,1.03118100518,,,,,z,1,1.01714310644,2018_Nov_14_1236,59.9883024154,spanish_cond1,001,1017,
images/showerhead01.jpg,skateboard,x,sounds/greatgatsby_english.wav,,,,,,,,,0,1,1,0,0,43,43,223,669.219334712,8.98016151041e-06,670.046918077,0.827592986287,,,,,x,1,0.817100963905,2018_Nov_14_1236,59.9883024154,spanish_cond1,001,1017,
images/ashtray02b.jpg,ashtray,z,sounds/greatgatsby_english.wav,,,,,,,,,0,1,1,0,0,44,44,43,671.159636599,8.98016151041e-06,671.880738155,0.721111178049,,,,,z,1,0.700437589898,2018_Nov_14_1236,59.9883024154,spanish_cond1,001,1017,
images/binder03b.jpg,dj mixer,x,sounds/greatgatsby_english.wav,,,,,,,,,0,1,1,0,0,45,45,167,672.991767447,8.98016151041e-06,674.114602429,1.12284460373,,,,,x,1,1.10049172735,2018_Nov_14_1236,59.9883024154,spanish_cond1,001,1017,
images/chameleon.jpg,50 dollar bill,x,sounds/greatgatsby_english.wav,,,,,,,,,0,1,1,0,0,46,46,120,675.222583281,9.30076930672e-06,675.965047973,0.742474954925,,,,,x,1,0.733750739251,2018_Nov_14_1236,59.9883024154,spanish_cond1,001,1017,
images/50dollarbill.jpg,cherry,x,sounds/greatgatsby_english.wav,,,,,,,,,0,1,1,0,0,47,47,151,677.084543622,9.62149351835e-06,677.815506025,0.730972344987,,,,,x,1,0.717074280023,2018_Nov_14_1236,59.9883024154,spanish_cond1,001,1017,
images/candycane01a.jpg,lip,x,sounds/greatgatsby_english.wav,,,,,,,,,0,1,1,0,0,48,48,200,678.908012154,9.30088572204e-06,680.549505322,1.64150278957,,,,,x,1,1.61729102221,2018_Nov_14_1236,59.9883024154,spanish_cond1,001,1017,
images/acousticguitar02.jpg,acoustic guitar,z,sounds/greatgatsby_english.wav,,,,,,,,,0,1,1,0,0,49,49,97,681.662435519,9.94221772999e-06,682.349950353,0.687524775509,,,,,z,1,0.667053240701,2018_Nov_14_1236,59.9883024154,spanish_cond1,001,1017,
images/panda.jpg,panda,z,sounds/greatgatsby_english.wav,,,,,,,,,0,1,1,0,0,50,50,83,683.458664049,8.65932088345e-06,684.30043156,0.841776491725,,,,,z,1,0.833765235846,2018_Nov_14_1236,59.9883024154,spanish_cond1,001,1017,
images/feather03b.jpg,feather,z,sounds/greatgatsby_english.wav,,,,,,,,,0,1,1,0,0,51,51,114,685.399325462,8.98004509509e-06,686.017524763,0.618209242588,,,,,z,1,0.60037498537,2018_Nov_14_1236,59.9883024154,spanish_cond1,001,1017,
images/toothbrush03a.jpg,parrot,x,sounds/greatgatsby_english.wav,,,,,,,,,0,1,1,0,0,52,52,210,687.108373092,8.98016151041e-06,687.967997952,0.859634482185,,,,,x,1,0.850436884211,2018_Nov_14_1236,59.9883024154,spanish_cond1,001,1017,
images/mitten01.jpg,mitten,z,sounds/greatgatsby_english.wav,,,,,,,,,0,1,1,0,0,53,53,102,689.08637878,9.94233414531e-06,689.785107896,0.698739700136,,,,,z,1,0.683718154207,2018_Nov_14_1236,59.9883024154,spanish_cond1,001,1017,
images/daisy.jpg,daisy,z,sounds/greatgatsby_english.wav,,,,,,,,,0,1,1,0,0,54,54,6,690.887056012,9.30088572204e-06,691.702270182,0.815224433201,,,,,z,1,0.80044150271,2018_Nov_14_1236,59.9883024154,spanish_cond1,001,1017,
images/banana04a.jpg,banana,z,sounds/greatgatsby_english.wav,,,,,,,,,0,1,1,0,0,55,55,118,692.808048331,8.98016151041e-06,693.702763128,0.894724418409,,,,,z,1,0.883789161569,2018_Nov_14_1236,59.9883024154,spanish_cond1,001,1017,
images/cookingpot.jpg,grasshopper,x,sounds/greatgatsby_english.wav,,,,,,,,,0,1,1,0,0,56,56,183,694.816352083,9.30088572204e-06,696.003335805,1.18699334317,,,,,x,1,1.16720301681,2018_Nov_14_1236,59.9883024154,spanish_cond1,001,1017,
images/apricot.jpg,apricot,z,sounds/greatgatsby_english.wav,,,,,,,,,0,1,1,0,0,57,57,32,697.118454914,9.30076930672e-06,697.937127725,0.818683394464,,,,,z,1,0.800426428788,2018_Nov_14_1236,59.9883024154,spanish_cond1,001,1017,
images/diploma01.jpg,glasses,x,sounds/greatgatsby_english.wav,,,,,,,,,0,1,1,0,0,58,58,179,699.066290185,9.62160993367e-06,700.454433757,1.38815319363,,,,,x,1,1.36725349806,2018_Nov_14_1236,59.9883024154,spanish_cond1,001,1017,
images/grandpiano.jpg,tulip,x,sounds/greatgatsby_english.wav,,,,,,,,,0,1,1,0,0,59,59,236,701.569013736,9.30076930672e-06,702.404907909,0.835906039341,,,,,x,1,0.817106736824,2018_Nov_14_1236,59.9883024154,spanish_cond1,001,1017,
images/nametag01a.jpg,name tag,z,sounds/greatgatsby_english.wav,,,,,,,,,0,1,1,0,0,60,60,108,703.524860262,9.30076930672e-06,704.938858969,1.41400800773,,,,,z,1,1.40058236278,2018_Nov_14_1236,59.9883024154,spanish_cond1,001,1017,
images/printer03a.jpg,printer,z,sounds/greatgatsby_english.wav,,,,,,,,,0,1,1,0,0,61,61,72,706.046052134,8.98016151041e-06,706.889337932,0.843295419938,,,,,z,1,0.833773253718,2018_Nov_14_1236,59.9883024154,spanish_cond1,001,1017,
images/parkbench03.jpg,park bench,z,sounds/greatgatsby_english.wav,,,,,,,,,0,1,1,0,0,62,62,71,707.994188239,9.30088572204e-06,710.006622219,2.01244456368,,,,,z,1,2.00057697459,2018_Nov_14_1236,59.9883024154,spanish_cond1,001,1017,
images/diaper01a.jpg,camera,x,sounds/greatgatsby_english.wav,,,,,,,,,0,1,1,0,0,63,63,143,711.125198365,9.62160993367e-06,711.957258976,0.832071194658,,,,,x,1,0.817112189019,2018_Nov_14_1236,59.9883024154,spanish_cond1,001,1017,
images/hairdryer03a.jpg,hairdryer,z,sounds/greatgatsby_english.wav,,,,,,,,,0,1,1,0,0,64,64,119,713.054655759,8.98016151041e-06,713.791051794,0.736414315877,,,,,z,1,0.717085825861,2018_Nov_14_1236,59.9883024154,spanish_cond1,001,1017,
images/screw03c.jpg,screw,z,sounds/greatgatsby_english.wav,,,,,,,,,0,1,1,0,0,65,65,84,714.884991539,8.98016151041e-06,715.558138453,0.673156535602,,,,,z,1,0.650392176001,2018_Nov_14_1236,59.9883024154,spanish_cond1,001,1017,
images/saltshaker03c.jpg,salt shaker,z,sounds/greatgatsby_english.wav,,,,,,,,,0,1,1,0,0,66,66,63,716.669701102,8.65943729877e-06,717.475286627,0.805594825884,,,,,z,1,0.783758949721,2018_Nov_14_1236,59.9883024154,spanish_cond1,001,1017,
images/peach01.jpg,peach,z,sounds/greatgatsby_english.wav,,,,,,,,,0,1,1,0,0,67,67,106,718.604358003,9.94233414531e-06,719.875885988,1.27153856913,,,,,z,1,1.25054554408,2018_Nov_14_1236,59.9883024154,spanish_cond1,001,1017,
images/swallow.jpg,mattress,x,sounds/greatgatsby_english.wav,,,,,,,,,0,1,1,0,0,68,68,202,720.9774672,9.30088572204e-06,721.826355008,0.848897750722,,,,,x,1,0.833772932994,2018_Nov_14_1236,59.9883024154,spanish_cond1,001,1017,
images/licenseplate.jpg,license plate,z,sounds/greatgatsby_english.wav,,,,,,,,,0,1,1,0,0,69,69,40,722.944757645,9.30088572204e-06,724.043571367,1.09882334375,,,,,z,1,1.08383900125,2018_Nov_14_1236,59.9883024154,spanish_cond1,001,1017,
images/candy.jpg,candy,z,sounds/greatgatsby_english.wav,,,,,,,,,0,1,1,0,0,70,70,31,725.145747193,8.65943729877e-06,725.894026532,0.748288640054,,,,,z,1,0.733742079814,2018_Nov_14_1236,59.9883024154,spanish_cond1,001,1017,
images/parrot01.jpg,chameleon,x,sounds/greatgatsby_english.wav,,,,,,,,,0,1,1,0,0,71,71,150,727.007481748,8.98016151041e-06,728.011209793,1.00373766676,,,,,x,1,0.983810713864,2018_Nov_14_1236,59.9883024154,spanish_cond1,001,1017,
images/envelope02a.jpg,grand piano,x,sounds/greatgatsby_english.wav,,,,,,,,,0,1,1,0,0,72,72,182,729.134783392,8.98016151041e-06,730.061559891,0.926786440425,,,,,x,1,0.916965684271,2018_Nov_14_1236,59.9883024154,spanish_cond1,001,1017,
images/dragonfly02.jpg,dragon fly,z,sounds/greatgatsby_english.wav,,,,,,,,,0,1,1,0,0,73,73,29,731.159171876,9.30088572204e-06,732.045394017,0.886232403689,,,,,z,1,0.866963888286,2018_Nov_14_1236,59.9883024154,spanish_cond1,001,1017,
images/lock02a.jpg,lock,z,sounds/greatgatsby_english.wav,,,,,,,,,0,1,1,0,0,74,74,65,733.156151659,9.30088572204e-06,733.829319099,0.673177703051,,,,,z,1,0.65040019399,2018_Nov_14_1236,59.9883024154,spanish_cond1,001,1017,
images/table02.jpg,table,z,sounds/greatgatsby_english.wav,,,,,,,,,0,1,1,0,0,75,75,49,734.943323066,8.98016151041e-06,735.696440782,0.753127016593,,,,,z,1,0.733743041987,2018_Nov_14_1236,59.9883024154,spanish_cond1,001,1017,
images/lion.jpg,lion,z,sounds/greatgatsby_english.wav,,,,,,,,,0,1,1,0,0,76,76,44,736.808906256,8.98016151041e-06,737.380186197,0.571289562387,,,,,z,1,0.550355229061,2018_Nov_14_1236,59.9883024154,spanish_cond1,001,1017,
images/tissuebox03.jpg,tissue box,z,sounds/greatgatsby_english.wav,,,,,,,,,0,1,1,0,0,77,77,58,738.505449027,9.30076930672e-06,739.163962145,0.658522739657,,,,,z,1,0.650389610208,2018_Nov_14_1236,59.9883024154,spanish_cond1,001,1017,
images/parkingmeter.jpg,ear,x,sounds/greatgatsby_english.wav,,,,,,,,,0,1,1,0,0,78,78,171,740.265850927,8.98016151041e-06,740.981078182,0.715237197815,,,,,x,1,0.700406800723,2018_Nov_14_1236,59.9883024154,spanish_cond1,001,1017,
images/radish01.jpg,raisin,x,sounds/greatgatsby_english.wav,,,,,,,,,0,1,1,0,0,79,79,214,742.09192723,8.65943729877e-06,744.098533092,2.00661548413,,,,,x,1,1.98406728951,2018_Nov_14_1236,59.9883024154,spanish_cond1,001,1017,
images/lamp04b.jpg,parking meter,x,sounds/greatgatsby_english.wav,,,,,,,,,0,1,1,0,0,80,80,209,745.218285959,9.30088572204e-06,745.982311349,0.764035653789,,,,,x,1,0.750411803951,2018_Nov_14_1236,59.9883024154,spanish_cond1,001,1017,
images/magnifyingglass01b.jpg,magnifying glass,z,sounds/greatgatsby_english.wav,,,,,,,,,0,1,1,0,0,81,81,64,747.089099124,9.30088572204e-06,747.849448747,0.760359244538,,,,,z,1,0.750407955376,2018_Nov_14_1236,59.9883024154,spanish_cond1,001,1017,
images/umbrella01.jpg,umbrella,z,sounds/greatgatsby_english.wav,,,,,,,,,0,1,1,0,0,82,82,53,748.962340779,9.62160993367e-06,749.716582937,0.754252421786,,,,,z,1,0.733762285206,2018_Nov_14_1236,59.9883024154,spanish_cond1,001,1017,
images/floorlamp.jpg,floor lamp,z,sounds/greatgatsby_english.wav,,,,,,,,,0,1,1,0,0,83,83,26,750.809562449,8.98016151041e-06,751.583696281,0.774144416209,,,,,z,1,0.750419180607,2018_Nov_14_1236,59.9883024154,spanish_cond1,001,1017,
images/pingpongpaddle01c (1).jpg,ping pong paddle,z,sounds/greatgatsby_english.wav,,,,,,,,,0,1,1,0,0,84,84,10,752.695969965,9.62160993367e-06,753.5508594,0.854899377329,,,,,z,1,0.833780951099,2018_Nov_14_1236,59.9883024154,spanish_cond1,001,1017,
images/calculator02b.jpg,dice,x,sounds/greatgatsby_english.wav,,,,,,,,,0,1,1,0,0,85,85,165,754.652250746,8.98016151041e-06,755.46825517,0.816014044918,,,,,x,1,0.800694229663,2018_Nov_14_1236,59.9883024154,spanish_cond1,001,1017,
images/toucan.jpg,toucan,z,sounds/greatgatsby_english.wav,,,,,,,,,0,1,1,0,0,86,86,81,756.569185641,9.62149351835e-06,757.685211745,1.11603636702,,,,,z,1,1.1005112913,2018_Nov_14_1236,59.9883024154,spanish_cond1,001,1017,
images/kiwi03.jpg,backpack,x,sounds/greatgatsby_english.wav,,,,,,,,,0,1,1,0,0,87,87,125,758.813647775,8.98016151041e-06,760.219166655,1.4055281803,,,,,x,1,1.38391841156,2018_Nov_14_1236,59.9883024154,spanish_cond1,001,1017,
images/beermug01b.jpg,beer mug,z,sounds/greatgatsby_english.wav,,,,,,,,,0,1,1,0,0,88,88,111,761.335984616,9.30088572204e-06,762.102966721,0.766991726705,,,,,z,1,0.750417897711,2018_Nov_14_1236,59.9883024154,spanish_cond1,001,1017,
images/tape01a.jpg,tie,x,sounds/greatgatsby_english.wav,,,,,,,,,0,1,1,0,0,89,89,232,763.229034878,9.30088572204e-06,763.953417717,0.724393422948,,,,,z,0,0.700403593597,2018_Nov_14_1236,59.9883024154,spanish_cond1,001,1017,
images/highlighter03b.jpg,coin,x,sounds/greatgatsby_english.wav,,,,,,,,,0,1,1,0,0,90,90,156,765.055437353,8.98004509509e-06,766.354001683,1.29857395217,,,,,x,1,1.28387857811,2018_Nov_14_1236,59.9883024154,spanish_cond1,001,1017,
images/cocktailshrimp01.jpg,cocktail shrimp,z,sounds/greatgatsby_english.wav,,,,,,,,,0,1,1,0,0,91,91,30,767.468862613,9.62160993367e-06,768.187784879,0.718932208838,,,,,x,0,0.700388840516,2018_Nov_14_1236,59.9883024154,spanish_cond1,001,1017,
images/mailbox01.jpg,mail box,z,sounds/greatgatsby_english.wav,,,,,,,,,0,1,1,0,0,92,92,73,769.308960137,8.98004509509e-06,770.638390526,1.32944033132,,,,,z,1,1.31721738505,2018_Nov_14_1236,59.9883024154,spanish_cond1,001,1017,
images/electrictoothbrush01a.jpg,banjo,x,sounds/greatgatsby_english.wav,,,,,,,,,0,1,1,0,0,93,93,127,771.732872609,9.30088572204e-06,772.738904704,1.00604203728,,,,,x,1,0.983803658048,2018_Nov_14_1236,59.9883024154,spanish_cond1,001,1017,
images/dolphin01.jpg,dolphin,z,sounds/greatgatsby_english.wav,,,,,,,,,0,1,1,0,0,94,94,99,773.839340305,9.62149351835e-06,775.072818754,1.2334887113,,,,,x,0,1.21719711553,2018_Nov_14_1236,59.9883024154,spanish_cond1,001,1017,
images/button07.jpg,radish,x,sounds/greatgatsby_english.wav,,,,,,,,,0,1,1,0,0,95,95,215,776.184743174,8.98016151041e-06,777.340038512,1.15530463879,,,,,x,1,1.13382957212,2018_Nov_14_1236,59.9883024154,spanish_cond1,001,1017,
images/hairpin.jpg,hair pin,z,sounds/greatgatsby_english.wav,,,,,,,,,0,1,1,0,0,96,96,28,778.431095309,9.30076930672e-06,779.073805287,0.64271927916,,,,,z,1,0.633710585069,2018_Nov_14_1236,59.9883024154,spanish_cond1,001,1017,
images/wallet01.jpg,lamp,x,sounds/greatgatsby_english.wav,,,,,,,,,0,1,1,0,0,97,97,193,780.178851233,8.98016151041e-06,781.107652114,0.92881050217,,,,,x,1,0.917135665659,2018_Nov_14_1236,59.9883024154,spanish_cond1,001,1017,
images/bull.jpg,button,x,sounds/greatgatsby_english.wav,,,,,,,,,0,1,1,0,0,98,98,141,782.213227248,9.30088572204e-06,783.62492864,1.41171133437,,,,,x,1,1.40057883481,2018_Nov_14_1236,59.9883024154,spanish_cond1,001,1017,
images/mushroom01.jpg,shower head,x,sounds/greatgatsby_english.wav,,,,,,,,,0,1,1,0,0,99,99,222,784.741444483,9.30088572204e-06,785.492097468,0.750663889688,,,,,x,1,0.733785697725,2018_Nov_14_1236,59.9883024154,spanish_cond1,001,1017,
images/gluestick.jpg,squirrel,x,sounds/greatgatsby_english.wav,,,,,,,,,0,1,1,0,0,100,100,226,786.601099491,9.30088572204e-06,787.792620433,1.19153088459,,,,,x,1,1.16718441516,2018_Nov_14_1236,59.9883024154,spanish_cond1,001,1017,
images/boxingglove02a.jpg,bracelet,x,sounds/greatgatsby_english.wav,,,,,,,,,0,1,1,0,0,101,101,135,788.903832535,9.62160993367e-06,789.776451673,0.872629400808,,,,,x,1,0.850446505938,2018_Nov_14_1236,59.9883024154,spanish_cond1,001,1017,
images/headphones02b.jpg,headphones,z,sounds/greatgatsby_english.wav,,,,,,,,,0,1,1,0,0,102,102,101,790.884393397,9.62160993367e-06,792.910575025,2.02619156975,,,,,z,1,2.0174176424,2018_Nov_14_1236,59.9883024154,spanish_cond1,001,1017,
images/charcoalbarbecue.jpg,charcoal barbecue,z,sounds/greatgatsby_english.wav,,,,,,,,,0,1,1,0,0,103,103,77,794.027469958,9.30088572204e-06,794.961067842,0.933608147316,,,,,z,1,0.917129892739,2018_Nov_14_1236,59.9883024154,spanish_cond1,001,1017,
images/blueberry02.jpg,blueberry,z,sounds/greatgatsby_english.wav,,,,,,,,,0,1,1,0,0,104,104,46,796.073888354,9.62160993367e-06,797.711742316,1.63786454604,,,,,z,1,1.61730417178,2018_Nov_14_1236,59.9883024154,spanish_cond1,001,1017,
images/tulip02.jpg,sport shorts,x,sounds/greatgatsby_english.wav,,,,,,,,,0,1,1,0,0,105,105,225,798.805864872,9.30088572204e-06,800.279041484,1.47318687569,,,,,x,1,1.45059506327,2018_Nov_14_1236,59.9883024154,spanish_cond1,001,1017,
images/8ball.jpg,nail clipper,x,sounds/greatgatsby_english.wav,,,,,,,,,0,1,1,0,0,106,106,206,801.394794015,8.98016151041e-06,802.146165412,0.751381339505,,,,,x,1,0.733745928505,2018_Nov_14_1236,59.9883024154,spanish_cond1,001,1017,
images/medal01.jpg,medal,z,sounds/greatgatsby_english.wav,,,,,,,,,0,1,1,0,0,107,107,115,803.246872342,9.30088572204e-06,803.879922886,0.633060486405,,,,,z,1,0.617046633852,2018_Nov_14_1236,59.9883024154,spanish_cond1,001,1017,
images/marker01a.jpg,marker,z,sounds/greatgatsby_english.wav,,,,,,,,,0,1,1,0,0,108,108,95,804.977936413,9.30088572204e-06,806.88068203,1.90275555896,,,,,z,1,1.88404317142,2018_Nov_14_1236,59.9883024154,spanish_cond1,001,1017,
images/battery03b.jpg,battery,z,sounds/greatgatsby_english.wav,,,,,,,,,0,1,1,0,0,109,109,34,807.989707786,9.30088572204e-06,809.331276772,1.34157892852,,,,,z,1,1.31723342102,2018_Nov_14_1236,59.9883024154,spanish_cond1,001,1017,
images/cherry01.jpg,highlighter,x,sounds/greatgatsby_english.wav,,,,,,,,,0,1,1,0,0,110,110,187,810.440295793,8.98016151041e-06,811.56515612,1.12487058959,,,,,x,1,1.10046703205,2018_Nov_14_1236,59.9883024154,spanish_cond1,001,1017,
images/gps.jpg,gps,z,sounds/greatgatsby_english.wav,,,,,,,,,0,1,1,0,0,111,111,21,812.683750867,9.30088572204e-06,813.765697944,1.08195701835,,,,,z,1,1.06716029695,2018_Nov_14_1236,59.9883024154,spanish_cond1,001,1017,
images/arrow02.jpg,hammer,x,sounds/greatgatsby_english.wav,,,,,,,,,0,1,1,0,0,112,112,184,814.862692223,9.30076930672e-06,816.082937458,1.22025517735,,,,,x,1,1.20052674995,2018_Nov_14_1236,59.9883024154,spanish_cond1,001,1017,
images/paintbrush03a.jpg,paint brush,z,sounds/greatgatsby_english.wav,,,,,,,,,0,1,1,0,0,113,113,0,817.183531495,9.30076930672e-06,817.85004721,0.666525977547,,,,,z,1,0.650399231818,2018_Nov_14_1236,59.9883024154,spanish_cond1,001,1017,
images/banjo.jpg,knife,x,sounds/greatgatsby_english.wav,,,,,,,,,0,1,1,0,0,114,114,191,818.9470107,9.30088572204e-06,819.650491599,0.703491161694,,,,,x,1,0.683740925277,2018_Nov_14_1236,59.9883024154,spanish_cond1,001,1017,
images/scooter.jpg,pen,x,sounds/greatgatsby_english.wav,,,,,,,,,0,1,1,0,0,115,115,212,820.743295035,9.30076930672e-06,821.75101155,1.00772645685,,,,,x,1,0.9838235426,2018_Nov_14_1236,59.9883024154,spanish_cond1,001,1017,
images/lollipop03b.jpg,lollipop,z,sounds/greatgatsby_english.wav,,,,,,,,,0,1,1,0,0,116,116,42,822.844339362,9.62160993367e-06,823.901537786,1.05720836646,,,,,z,1,1.03382437653,2018_Nov_14_1236,59.9883024154,spanish_cond1,001,1017,
images/crocodile.jpg,triangle ruler,x,sounds/greatgatsby_english.wav,,,,,,,,,0,1,1,0,0,117,117,235,824.999177033,8.65943729877e-06,825.718644203,0.719477111474,,,,,x,1,0.700405517826,2018_Nov_14_1236,59.9883024154,spanish_cond1,001,1017,
images/tank.jpg,wallet,x,sounds/greatgatsby_english.wav,,,,,,,,,0,1,1,0,0,118,118,237,826.823976872,9.30088572204e-06,827.769156264,0.945189012913,,,,,x,1,0.933794485405,2018_Nov_14_1236,59.9883024154,spanish_cond1,001,1017,
images/axe01.jpg,axe,z,sounds/greatgatsby_english.wav,,,,,,,,,0,1,1,0,0,119,119,104,828.871516824,9.30088572204e-06,829.636277946,0.76477042248,,,,,z,1,0.750417256262,2018_Nov_14_1236,59.9883024154,spanish_cond1,001,1017,
images/eraser.jpg,eraser,z,sounds/greatgatsby_english.wav,,,,,,,,,0,1,1,0,0,120,120,110,830.743503824,9.62160993367e-06,831.870181027,1.12668714568,,,,,z,1,1.11719095777,2018_Nov_14_1236,59.9883024154,spanish_cond1,001,1017,
images/ear.jpg,bullet,x,sounds/greatgatsby_english.wav,,,,,,,,,0,1,1,0,0,121,121,139,832.974283095,8.98016151041e-06,833.770628367,0.796355534345,,,,,x,1,0.783756063203,2018_Nov_14_1236,59.9883024154,spanish_cond1,001,1017,
images/lily.jpg,kiwi,x,sounds/greatgatsby_english.wav,,,,,,,,,0,1,1,0,0,122,122,190,834.870000462,8.65943729877e-06,835.604425354,0.734434834332,,,,,x,1,0.717086146586,2018_Nov_14_1236,59.9883024154,spanish_cond1,001,1017,
images/cactus.jpg,cactus,z,sounds/greatgatsby_english.wav,,,,,,,,,0,1,1,0,0,123,123,70,836.716448235,9.94233414531e-06,837.488216439,0.771778467461,,,,,z,1,0.750419180607,2018_Nov_14_1236,59.9883024154,spanish_cond1,001,1017,
images/computerkeyboard01a.jpg,computer keyboard,z,sounds/greatgatsby_english.wav,,,,,,,,,0,1,1,0,0,124,124,61,838.605570964,8.98016151041e-06,839.338668398,0.73310737568,,,,,z,1,0.717068186263,2018_Nov_14_1236,59.9883024154,spanish_cond1,001,1017,
images/belt02a.jpg,snowman,x,sounds/greatgatsby_english.wav,,,,,,,,,0,1,1,0,0,125,125,224,840.441728127,9.62149351835e-06,841.322495468,0.880776962498,,,,,x,1,0.8671123815,2018_Nov_14_1236,59.9883024154,spanish_cond1,001,1017,
images/lighter02b.jpg,stapler,x,sounds/greatgatsby_english.wav,,,,,,,,,0,1,1,0,0,126,126,227,842.424594642,9.30088572204e-06,843.439680653,1.01509563217,,,,,x,1,1.00047177856,2018_Nov_14_1236,59.9883024154,spanish_cond1,001,1017,
images/rubberglove02a.jpg,lady bug,x,sounds/greatgatsby_english.wav,,,,,,,,,0,1,1,0,0,127,127,192,844.545971954,9.30088572204e-06,845.206793932,0.66083224176,,,,,x,1,0.650395383127,2018_Nov_14_1236,59.9883024154,spanish_cond1,001,1017,
images/lychee02a.jpg,lychee,z,sounds/greatgatsby_english.wav,,,,,,,,,0,1,1,0,0,128,128,62,846.330457333,9.94233414531e-06,847.157271933,0.826824862743,,,,,z,1,0.817102567409,2018_Nov_14_1236,59.9883024154,spanish_cond1,001,1017,
images/globe.jpg,cloud,x,sounds/greatgatsby_english.wav,,,,,,,,,0,1,1,0,0,129,129,154,848.284873771,9.30088572204e-06,849.291123635,1.0062598061,,,,,x,1,0.983802375151,2018_Nov_14_1236,59.9883024154,spanish_cond1,001,1017,
images/cola.jpg,comb,x,sounds/greatgatsby_english.wav,,,,,,,,,0,1,1,0,0,130,130,157,850.412820383,9.30088572204e-06,851.541683291,1.12887285009,,,,,x,1,1.11717171455,2018_Nov_14_1236,59.9883024154,spanish_cond1,001,1017,
images/hammer02a.jpg,flower,x,sounds/greatgatsby_english.wav,,,,,,,,,0,1,1,0,0,131,131,176,852.637070444,8.65943729877e-06,853.425500675,0.788440173608,,,,,x,1,0.767101412872,2018_Nov_14_1236,59.9883024154,spanish_cond1,001,1017,
images/knife04.jpg,tooth brush,x,sounds/greatgatsby_english.wav,,,,,,,,,0,1,1,0,0,132,132,233,854.522935624,8.98016151041e-06,855.192588939,0.66966261575,,,,,x,1,0.650391534553,2018_Nov_14_1236,59.9883024154,spanish_cond1,001,1017,
images/camera01a.jpg,bull,x,sounds/greatgatsby_english.wav,,,,,,,,,0,1,1,0,0,133,133,138,856.303283399,8.98016151041e-06,856.993030121,0.689756984357,,,,,x,1,0.667068956071,2018_Nov_14_1236,59.9883024154,spanish_cond1,001,1017,
images/cupcake.jpg,scissors,x,sounds/greatgatsby_english.wav,,,,,,,,,0,1,1,0,0,134,134,219,858.112449759,8.98016151041e-06,859.293592214,1.18115207634,,,,,x,1,1.16717864212,2018_Nov_14_1236,59.9883024154,spanish_cond1,001,1017,
images/bus.jpg,microphone,x,sounds/greatgatsby_english.wav,,,,,,,,,0,1,1,0,0,135,135,203,860.412764578,8.98016151041e-06,861.127376693,0.714622057625,,,,,x,1,0.700399103574,2018_Nov_14_1236,59.9883024154,spanish_cond1,001,1017,
images/bottleofredwine02.jpg,pipe,x,sounds/greatgatsby_english.wav,,,,,,,,,0,1,1,0,0,136,136,213,862.225901126,9.94221772999e-06,862.91135309,0.685462227557,,,,,x,1,0.667265236378,2018_Nov_14_1236,59.9883024154,spanish_cond1,001,1017,
images/pineapple01a.jpg,pineapple,z,sounds/greatgatsby_english.wav,,,,,,,,,0,1,1,0,0,137,137,51,864.023947174,9.30088572204e-06,865.028339108,1.0044021979,,,,,z,1,0.983807506622,2018_Nov_14_1236,59.9883024154,spanish_cond1,001,1017,
images/puzzle.jpg,puzzle,z,sounds/greatgatsby_english.wav,,,,,,,,,0,1,1,0,0,138,138,57,866.148582996,9.62160993367e-06,867.495634043,1.34706098936,,,,,z,1,1.3339063524,2018_Nov_14_1236,59.9883024154,spanish_cond1,001,1017,
images/sportshorts02.jpg,tape,x,sounds/greatgatsby_english.wav,,,,,,,,,0,1,1,0,0,139,139,230,868.603566466,8.98016151041e-06,869.41277452,0.809217995731,,,,,x,1,0.800446954905,2018_Nov_14_1236,59.9883024154,spanish_cond1,001,1017,
images/electricguitar02.jpg,electric guitar,z,sounds/greatgatsby_english.wav,,,,,,,,,0,1,1,0,0,140,140,100,870.515001341,8.98016151041e-06,871.179853803,0.664861763362,,,,,z,1,0.650387685862,2018_Nov_14_1236,59.9883024154,spanish_cond1,001,1017,
images/parkfountain.jpg,park fountain,z,sounds/greatgatsby_english.wav,,,,,,,,,0,1,1,0,0,141,141,93,872.300271521,9.62149351835e-06,872.996995498,0.696733919438,,,,,z,1,0.683755999082,2018_Nov_14_1236,59.9883024154,spanish_cond1,001,1017,
images/key03b.jpg,cigar,x,sounds/greatgatsby_english.wav,,,,,,,,,0,1,1,0,0,142,142,153,874.098348679,1.02629419416e-05,874.964149637,0.865811863216,,,,,x,1,0.850468956167,2018_Nov_14_1236,59.9883024154,spanish_cond1,001,1017,
images/ceilingfan02.jpg,paper clip,x,sounds/greatgatsby_english.wav,,,,,,,,,0,1,1,0,0,143,143,208,876.062946041,9.30088572204e-06,877.114649896,1.0517137975,,,,,x,1,1.03381347202,2018_Nov_14_1236,59.9883024154,spanish_cond1,001,1017,
images/mirror02.jpg,8 ball,x,sounds/greatgatsby_english.wav,,,,,,,,,0,1,1,0,0,144,144,121,878.216576844,9.30076930672e-06,878.915091719,0.698525138549,,,,,x,1,0.683729700162,2018_Nov_14_1236,59.9883024154,spanish_cond1,001,1017,
images/bat.jpg,hand,x,sounds/greatgatsby_english.wav,,,,,,,,,0,1,1,0,0,145,145,185,880.013497807,9.30088572204e-06,881.048964909,1.03547672404,,,,,x,1,1.0171562559,2018_Nov_14_1236,59.9883024154,spanish_cond1,001,1017,
images/notebook02b.jpg,notebook,z,sounds/greatgatsby_english.wav,,,,,,,,,0,1,1,0,0,146,146,7,882.15572863,9.30088572204e-06,882.716043487,0.560324478545,,,,,x,0,0.550371585763,2018_Nov_14_1236,59.9883024154,spanish_cond1,001,1017,
images/carrot02.jpg,corkscrew,x,sounds/greatgatsby_english.wav,,,,,,,,,0,1,1,0,0,147,147,161,883.818597762,9.30088572204e-06,884.483146183,0.664558362681,,,,,x,1,0.65040019399,2018_Nov_14_1236,59.9883024154,spanish_cond1,001,1017,
images/sunglasses03a.jpg,sun glasses,z,sounds/greatgatsby_english.wav,,,,,,,,,0,1,1,0,0,148,148,17,885.592089514,9.30088572204e-06,886.266926621,0.6748467281,,,,,z,1,0.650397307472,2018_Nov_14_1236,59.9883024154,spanish_cond1,001,1017,
images/volleyball.jpg,volley ball,z,sounds/greatgatsby_english.wav,,,,,,,,,0,1,1,0,0,149,149,2,887.39937774,8.98016151041e-06,888.01734548,0.617978003807,,,,,z,1,0.600373702473,2018_Nov_14_1236,59.9883024154,spanish_cond1,001,1017,
images/cigar.jpg,crocodile,x,sounds/greatgatsby_english.wav,,,,,,,,,0,1,1,0,0,150,150,162,889.115906155,9.62160993367e-06,889.567730216,0.451834003208,,,,,x,1,0.433672932675,2018_Nov_14_1236,59.9883024154,spanish_cond1,001,1017,
images/corkscrew02a.jpg,masquerade mask,x,sounds/greatgatsby_english.wav,,,,,,,,,0,1,1,0,0,151,151,201,890.67220496,8.98016151041e-06,891.718253887,1.04605886876,,,,,x,1,1.03381667915,2018_Nov_14_1236,59.9883024154,spanish_cond1,001,1017,
images/bandaid01.jpg,door handle,x,sounds/greatgatsby_english.wav,,,,,,,,,0,1,1,0,0,152,152,170,892.826953792,9.62160993367e-06,893.818617968,0.991673797369,,,,,x,1,0.983649391797,2018_Nov_14_1236,59.9883024154,spanish_cond1,001,1017,
images/eyedrops.jpg,bicycle,x,sounds/greatgatsby_english.wav,,,,,,,,,0,1,1,0,0,153,153,131,894.919724835,8.98016151041e-06,895.719241383,0.799526168732,,,,,x,1,0.783754138974,2018_Nov_14_1236,59.9883024154,spanish_cond1,001,1017,
images/remotecontrol01c.jpg,remote control,z,sounds/greatgatsby_english.wav,,,,,,,,,0,1,1,0,0,154,154,85,896.828838661,9.30076930672e-06,897.519686413,0.690857694019,,,,,z,1,0.667054844438,2018_Nov_14_1236,59.9883024154,spanish_cond1,001,1017,
images/bowl02b (1).jpg,bowl,z,sounds/greatgatsby_english.wav,,,,,,,,,0,1,1,0,0,155,155,24,898.639552493,9.30088572204e-06,899.503573137,0.864045980969,,,,,z,1,0.85045099596,2018_Nov_14_1236,59.9883024154,spanish_cond1,001,1017,
images/gorilla.jpg,gorilla,z,sounds/greatgatsby_english.wav,,,,,,,,,0,1,1,0,0,156,156,80,900.614852591,8.98016151041e-06,901.220594499,0.605751529569,,,,,z,1,0.58370654413,2018_Nov_14_1236,59.9883024154,spanish_cond1,001,1017,
images/dreamcatcher.jpg,dream catcher,z,sounds/greatgatsby_english.wav,,,,,,,,,0,1,1,0,0,157,157,48,902.319136251,8.98004509509e-06,903.054391165,0.735264856601,,,,,z,1,0.717083260184,2018_Nov_14_1236,59.9883024154,spanish_cond1,001,1017,
images/candle08a.jpg,screw driver,x,sounds/greatgatsby_english.wav,,,,,,,,,0,1,1,0,0,158,158,221,904.168000005,9.62160993367e-06,904.904856593,0.736866851337,,,,,x,1,0.717087108758,2018_Nov_14_1236,59.9883024154,spanish_cond1,001,1017,
images/djmixer01.jpg,light bulb,x,sounds/greatgatsby_english.wav,,,,,,,,,0,1,1,0,0,159,159,196,906.02602223,9.30088572204e-06,906.938725229,0.912712621153,,,,,x,1,0.900487108971,2018_Nov_14_1236,59.9883024154,spanish_cond1,001,1017,
images/nailclipper03a.jpg,aquarium,x,sounds/greatgatsby_english.wav,,,,,,,,,0,1,1,0,0,160,160,123,908.038359994,9.30088572204e-06,908.705624268,0.667274216539,,,,,x,1,0.650231816224,2018_Nov_14_1236,59.9883024154,spanish_cond1,001,1017,
images/nailpolish02b.jpg,nail polish,z,sounds/greatgatsby_english.wav,,,,,,,,,0,1,1,0,0,161,161,94,909.814375809,9.30088572204e-06,910.57290631,0.758540764102,,,,,z,1,0.750416935538,2018_Nov_14_1236,59.9883024154,spanish_cond1,001,1017,
images/pictureframe04.jpg,picture frame,z,sounds/greatgatsby_english.wav,,,,,,,,,0,1,1,0,0,162,162,41,911.694680352,9.62149351835e-06,912.373348133,0.678678044933,,,,,z,1,0.667062862311,2018_Nov_14_1236,59.9883024154,spanish_cond1,001,1017,
images/shotglass.jpg,shot glass,z,sounds/greatgatsby_english.wav,,,,,,,,,0,1,1,0,0,163,163,86,913.481813272,9.30088572204e-06,914.140445377,0.658642047434,,,,,z,1,0.650391534553,2018_Nov_14_1236,59.9883024154,spanish_cond1,001,1017,
images/lipstick04.jpg,lipstick,z,sounds/greatgatsby_english.wav,,,,,,,,,0,1,1,0,0,164,164,56,915.240665134,8.98016151041e-06,916.040958143,0.80030295183,,,,,z,1,0.78378973878,2018_Nov_14_1236,59.9883024154,spanish_cond1,001,1017,
images/flower01.jpg,bus,x,sounds/greatgatsby_english.wav,,,,,,,,,0,1,1,0,0,165,165,140,917.155566667,9.30088572204e-06,918.008091115,0.852534711477,,,,,x,1,0.833788968972,2018_Nov_14_1236,59.9883024154,spanish_cond1,001,1017,
images/lightswitch02a.jpg,fork,x,sounds/greatgatsby_english.wav,,,,,,,,,0,1,1,0,0,166,166,177,919.120188724,8.65943729877e-06,919.958559494,0.838380712201,,,,,x,1,0.817108019604,2018_Nov_14_1236,59.9883024154,spanish_cond1,001,1017,
images/swan.jpg,swan,z,sounds/greatgatsby_english.wav,,,,,,,,,0,1,1,0,0,167,167,54,921.050628482,9.62160993367e-06,921.992398944,0.941780404537,,,,,z,1,0.933789353934,2018_Nov_14_1236,59.9883024154,spanish_cond1,001,1017,
images/screwdriver02b.jpg,cola,x,sounds/greatgatsby_english.wav,,,,,,,,,0,1,1,0,0,168,168,158,923.086171275,9.30088572204e-06,923.976225694,0.890064362087,,,,,x,1,0.867124568787,2018_Nov_14_1236,59.9883024154,spanish_cond1,001,1017,
images/cat.jpg,black olive,x,sounds/greatgatsby_english.wav,,,,,,,,,0,1,1,0,0,169,169,133,925.10720471,9.30088572204e-06,925.810011777,0.702816688223,,,,,z,0,0.683739321656,2018_Nov_14_1236,59.9883024154,spanish_cond1,001,1017,
images/gamecontroller01.jpg,game controller,z,sounds/greatgatsby_english.wav,,,,,,,,,0,1,1,0,0,170,170,112,926.92995483,8.98016151041e-06,927.82717124,0.897226031637,,,,,z,1,0.883791406406,2018_Nov_14_1236,59.9883024154,spanish_cond1,001,1017,
images/highheelshoe02a.jpg,high heel shoe,z,sounds/greatgatsby_english.wav,,,,,,,,,0,1,1,0,0,171,171,75,928.933942337,8.98016151041e-06,929.560935129,0.627002092428,,,,,z,1,0.617058821255,2018_Nov_14_1236,59.9883024154,spanish_cond1,001,1017,
images/icecube02 (2).jpg,aloe,x,sounds/greatgatsby_english.wav,,,,,,,,,0,1,1,0,0,172,172,122,930.671873015,9.30088572204e-06,931.444721083,0.772857688949,,,,,x,1,0.750413407572,2018_Nov_14_1236,59.9883024154,spanish_cond1,001,1017,
images/atm.jpg,atm,z,sounds/greatgatsby_english.wav,,,,,,,,,0,1,1,0,0,173,173,96,932.581918853,9.30076930672e-06,933.611931476,1.03002224502,,,,,z,1,1.01715272805,2018_Nov_14_1236,59.9883024154,spanish_cond1,001,1017,
images/apple06.jpg,apple,z,sounds/greatgatsby_english.wav,,,,,,,,,0,1,1,0,0,174,174,13,934.738868463,9.62160993367e-06,935.562396327,0.823538127821,,,,,z,1,0.800421938766,2018_Nov_14_1236,59.9883024154,spanish_cond1,001,1017,
images/scissors04a.jpg,leek,x,sounds/greatgatsby_english.wav,,,,,,,,,0,1,1,0,0,175,175,194,936.657042618,9.30088572204e-06,937.49639479,0.839362435043,,,,,x,1,0.817282170407,2018_Nov_14_1236,59.9883024154,spanish_cond1,001,1017,
images/hat05.jpg,hat,z,sounds/greatgatsby_english.wav,,,,,,,,,0,1,1,0,0,176,176,15,938.600649521,9.94233414531e-06,939.296669519,0.696029619081,,,,,z,1,0.683720719884,2018_Nov_14_1236,59.9883024154,spanish_cond1,001,1017,
images/teapot.jpg,light switch,x,sounds/greatgatsby_english.wav,,,,,,,,,0,1,1,0,0,177,177,197,940.413743093,9.30076930672e-06,941.147128212,0.733394740382,,,,,x,1,0.717079090653,2018_Nov_14_1236,59.9883024154,spanish_cond1,001,1017,
images/plate01b.jpg,plate,z,sounds/greatgatsby_english.wav,,,,,,,,,0,1,1,0,0,178,178,3,942.246611597,9.30088572204e-06,942.930887803,0.684285827912,,,,,z,1,0.667063183035,2018_Nov_14_1236,59.9883024154,spanish_cond1,001,1017,
images/ladder.jpg,ladder,z,sounds/greatgatsby_english.wav,,,,,,,,,0,1,1,0,0,179,179,113,944.023341976,9.30088572204e-06,944.681348998,0.658017285517,,,,,z,1,0.633745222935,2018_Nov_14_1236,59.9883024154,spanish_cond1,001,1017,
images/blackolive.jpg,tank,x,sounds/greatgatsby_english.wav,,,,,,,,,0,1,1,0,0,180,180,229,945.796768301,8.98016151041e-06,946.448426998,0.651668319479,,,,,x,1,0.633716999553,2018_Nov_14_1236,59.9883024154,spanish_cond1,001,1017,
images/bowtie.jpg,bowtie,z,sounds/greatgatsby_english.wav,,,,,,,,,0,1,1,0,0,181,181,89,947.559052825,9.62160993367e-06,948.315685949,0.75664306595,,,,,z,1,0.733881913591,2018_Nov_14_1236,59.9883024154,spanish_cond1,001,1017,
images/bicycle.jpg,hand bag,x,sounds/greatgatsby_english.wav,,,,,,,,,0,1,1,0,0,182,182,186,949.42612223,8.98016151041e-06,950.149335725,0.723223437672,,,,,x,1,0.70039846201,2018_Nov_14_1236,59.9883024154,spanish_cond1,001,1017,
images/birthdaycandle.jpg,birthday candle,z,sounds/greatgatsby_english.wav,,,,,,,,,0,1,1,0,0,183,183,55,951.247291202,9.30076930672e-06,951.916437459,0.669155878713,,,,,z,1,0.650385120185,2018_Nov_14_1236,59.9883024154,spanish_cond1,001,1017,
images/baseball01a.jpg,baseball,z,sounds/greatgatsby_english.wav,,,,,,,,,0,1,1,0,0,184,184,74,953.049192941,9.30076930672e-06,953.700217255,0.6510345774,,,,,z,1,0.633720206795,2018_Nov_14_1236,59.9883024154,spanish_cond1,001,1017,
images/grasshopper.jpg,cauliflower,x,sounds/greatgatsby_english.wav,,,,,,,,,0,1,1,0,0,185,185,148,954.793637756,8.65943729877e-06,955.533992113,0.740363657591,,,,,x,1,0.717062734067,2018_Nov_14_1236,59.9883024154,spanish_cond1,001,1017,
images/backpack01b.jpg,swallow,x,sounds/greatgatsby_english.wav,,,,,,,,,0,1,1,0,0,186,186,228,956.664149766,9.30088572204e-06,957.784555938,1.12041643518,,,,,x,1,1.10050615971,2018_Nov_14_1236,59.9883024154,spanish_cond1,001,1017,
images/beachumbrella01.jpg,beach umbrella,z,sounds/greatgatsby_english.wav,,,,,,,,,0,1,1,0,0,187,187,92,958.891288228,9.94233414531e-06,959.484972681,0.593694715993,,,,,z,1,0.583707506303,2018_Nov_14_1236,59.9883024154,spanish_cond1,001,1017,
images/ostrich.jpg,ostrich,z,sounds/greatgatsby_english.wav,,,,,,,,,0,1,1,0,0,188,188,76,960.585933621,9.62160993367e-06,961.285418353,0.69949467422,,,,,z,1,0.6837277757,2018_Nov_14_1236,59.9883024154,spanish_cond1,001,1017,
images/chessknight02b (1).jpg,cockroach,x,sounds/greatgatsby_english.wav,,,,,,,,,0,1,1,0,0,189,189,155,962.394503443,9.30088572204e-06,963.185885577,0.791391756502,,,,,x,1,0.767095319112,2018_Nov_14_1236,59.9883024154,spanish_cond1,001,1017,
images/handfan01b.jpg,handfan,z,sounds/greatgatsby_english.wav,,,,,,,,,0,1,1,0,0,190,190,69,964.300194228,9.62160993367e-06,965.119688722,0.81950411608,,,,,z,1,0.800421938766,2018_Nov_14_1236,59.9883024154,spanish_cond1,001,1017,
images/puma.jpg,puma,z,sounds/greatgatsby_english.wav,,,,,,,,,0,1,1,0,0,191,191,4,966.218701291,9.62149351835e-06,966.870125222,0.651434514788,,,,,z,1,0.633724696818,2018_Nov_14_1236,59.9883024154,spanish_cond1,001,1017,
images/lightbulb03b.jpg,treadmill,x,sounds/greatgatsby_english.wav,,,,,,,,,0,1,1,0,0,192,192,234,967.973090339,9.30076930672e-06,968.687236128,0.714155410416,,,,,x,1,0.700400386355,2018_Nov_14_1236,59.9883024154,spanish_cond1,001,1017,
images/coffeepot03b.jpg,coffee pot,z,sounds/greatgatsby_english.wav,,,,,,,,,0,1,1,0,0,193,193,107,969.809173736,9.62160993367e-06,970.704679749,0.895515954588,,,,,z,1,0.884061452467,2018_Nov_14_1236,59.9883024154,spanish_cond1,001,1017,
images/dresser02.jpg,dresser,z,sounds/greatgatsby_english.wav,,,,,,,,,0,1,1,0,0,194,194,87,971.827301773,8.98016151041e-06,972.70490329,0.877611138974,,,,,z,1,0.86711815442,2018_Nov_14_1236,59.9883024154,spanish_cond1,001,1017,
images/safe.jpg,safe,z,sounds/greatgatsby_english.wav,,,,,,,,,0,1,1,0,0,195,195,78,973.816031685,9.62160993367e-06,974.888771862,1.07275044045,,,,,z,1,1.05049185571,2018_Nov_14_1236,59.9883024154,spanish_cond1,001,1017,
images/broadsword.jpg,teapot,x,sounds/greatgatsby_english.wav,,,,,,,,,0,1,1,0,0,196,196,231,975.981971387,9.62160993367e-06,976.78908033,0.807119527133,,,,,x,1,0.783594099805,2018_Nov_14_1236,59.9883024154,spanish_cond1,001,1017,
images/bed.jpg,bed,z,sounds/greatgatsby_english.wav,,,,,,,,,0,1,1,0,0,197,197,103,977.909214532,9.30088572204e-06,978.756387773,0.847183183534,,,,,z,1,0.833764273673,2018_Nov_14_1236,59.9883024154,spanish_cond1,001,1017,
images/pen03c.jpg,pepper,x,sounds/greatgatsby_english.wav,,,,,,,,,0,1,1,0,0,198,198,211,979.851743817,9.30088572204e-06,981.073885146,1.22215127188,,,,,x,1,1.20075285726,2018_Nov_14_1236,59.9883024154,spanish_cond1,001,1017,
