images,name,corrAns,sounds,trials_3.thisRepN,trials_3.thisTrialN,trials_3.thisN,trials_3.thisIndex,trials_4.thisRepN,trials_4.thisTrialN,trials_4.thisN,trials_4.thisIndex,trials_2.thisRepN,trials_2.thisTrialN,trials_2.thisN,trials_2.thisIndex,trials.thisRepN,trials.thisTrialN,trials.thisN,trials.thisIndex,begin_global,begin_routine,end_global,end_routine,key_resp_2.keys,key_resp_2.corr,begin_book,key_resp_1.keys,key_resp_1.corr,key_resp_1.rt,date,frameRate,expName,session,participant,
images/volleyball.jpg,volley ball,z,,0,0,0,0,,,,,,,,,,,,,,,,,,,,,,,2018_Nov_14_1402,59.991726582,spanish_cond2,001,1018,
images/puma.jpg,puma,z,,,,,,0,0,0,0,,,,,,,,,48.1818971661,1.09043903649e-05,51.014955109,2.8330698096,None,0,,,,,2018_Nov_14_1402,59.991726582,spanish_cond2,001,1018,
images/desktopcomputer.jpg,desktop computer,z,sounds/animalfarm_english.wav,,,,,,,,,0,0,0,1,0,0,0,16,93.2301803915,9.62160993367e-06,96.0092341304,2.77906496415,,,83.011503856,None,0,,2018_Nov_14_1402,59.991726582,spanish_cond2,001,1018,
images/ruler02b.jpg,watermelon,x,sounds/animalfarm_english.wav,,,,,,,,,0,0,0,1,0,1,1,238,97.1178955215,9.62149351835e-06,99.2105700517,2.09268415172,,,,x,1,2.08439870703,2018_Nov_14_1402,59.991726582,spanish_cond2,001,1018,
images/paperclip04.jpg,eye drops,x,sounds/animalfarm_english.wav,,,,,,,,,0,0,0,1,0,2,2,174,100.317604758,9.30076930672e-06,101.410792759,1.09319794294,,,,x,1,1.08384354319,2018_Nov_14_1402,59.991726582,spanish_cond2,001,1018,
images/sock03.jpg,sock,z,sounds/animalfarm_english.wav,,,,,,,,,0,0,0,1,0,3,3,90,102.51664273,9.30088572204e-06,103.511290578,0.994657790055,,,,z,1,0.983803389245,2018_Nov_14_1402,59.991726582,spanish_cond2,001,1018,
images/radish01.jpg,raisin,x,sounds/animalfarm_english.wav,,,,,,,,,0,0,0,1,0,4,4,214,104.623534075,8.65943729877e-06,105.71184138,1.0883169265,,,,x,1,1.0671834941,2018_Nov_14_1402,59.991726582,spanish_cond2,001,1018,
images/corkscrew02a.jpg,masquerade mask,x,sounds/animalfarm_english.wav,,,,,,,,,0,0,0,1,0,5,5,201,106.816973584,9.30088572204e-06,108.079068364,1.26210536377,,,,x,1,1.25054153334,2018_Nov_14_1402,59.991726582,spanish_cond2,001,1018,
images/bat.jpg,hand,x,sounds/animalfarm_english.wav,,,,,,,,,0,0,0,1,0,6,6,185,109.17752513,9.62160993367e-06,110.112926949,0.935412081773,,,,x,1,0.917155816103,2018_Nov_14_1402,59.991726582,spanish_cond2,001,1018,
images/screwdriver02b.jpg,cola,x,sounds/animalfarm_english.wav,,,,,,,,,0,0,0,1,0,7,7,158,111.206467419,9.30076930672e-06,112.063382978,0.856925501488,,,,x,1,0.833774428349,2018_Nov_14_1402,59.991726582,spanish_cond2,001,1018,
images/parkfountain.jpg,park fountain,z,sounds/animalfarm_english.wav,,,,,,,,,0,0,0,1,0,8,8,93,113.184267277,9.30076930672e-06,113.997178638,0.812920983182,,,,x,0,0.800429634633,2018_Nov_14_1402,59.991726582,spanish_cond2,001,1018,
images/ant.jpg,ant,z,sounds/animalfarm_english.wav,,,,,,,,,0,0,0,1,0,9,9,98,115.092210771,9.62149351835e-06,115.814293017,0.722092509386,,,,z,1,0.700418666122,2018_Nov_14_1402,59.991726582,spanish_cond2,001,1018,
images/lipstick04.jpg,lipstick,z,sounds/animalfarm_english.wav,,,,,,,,,0,0,0,1,0,10,10,56,116.913966911,8.98016151041e-06,117.631388154,0.717430864344,,,,z,1,0.700403271592,2018_Nov_14_1402,59.991726582,spanish_cond2,001,1018,
images/donut.jpg,rhinoceros,x,sounds/animalfarm_english.wav,,,,,,,,,0,0,0,1,0,11,11,216,118.757022294,8.98004509509e-06,119.848617286,1.09160557506,,,,x,1,1.06718349399,2018_Nov_14_1402,59.991726582,spanish_cond2,001,1018,
images/belt02a.jpg,snowman,x,sounds/animalfarm_english.wav,,,,,,,,,0,0,0,1,0,12,12,224,120.952152311,8.65943729877e-06,121.832417147,0.88027477893,,,,x,1,0.867114090477,2018_Nov_14_1402,59.991726582,spanish_cond2,001,1018,
images/lettuce.jpg,mushroom,x,sounds/animalfarm_english.wav,,,,,,,,,0,0,0,1,0,13,13,205,122.9557001,9.30088572204e-06,123.649532809,0.693842972396,,,,x,1,0.683746108785,2018_Nov_14_1402,59.991726582,spanish_cond2,001,1018,
images/50dollarbill.jpg,cherry,x,sounds/animalfarm_english.wav,,,,,,,,,0,0,0,1,0,14,14,151,124.770061751,9.62160993367e-06,125.483307558,0.713255749433,,,,x,1,0.700401988695,2018_Nov_14_1402,59.991726582,spanish_cond2,001,1018,
images/chessknight02b (1).jpg,cockroach,x,sounds/animalfarm_english.wav,,,,,,,,,0,0,0,1,0,15,15,155,126.592298969,9.30076930672e-06,127.617173584,1.02488455724,,,,x,1,1.00049551029,2018_Nov_14_1402,59.991726582,spanish_cond2,001,1018,
images/lip.jpg,boxing glove,x,sounds/animalfarm_english.wav,,,,,,,,,0,0,0,1,0,16,16,136,128.720205722,9.62149351835e-06,129.617669415,0.897474597441,,,,x,1,0.883807815146,2018_Nov_14_1402,59.991726582,spanish_cond2,001,1018,
images/hairdryer03a.jpg,hairdryer,z,sounds/animalfarm_english.wav,,,,,,,,,0,0,0,1,0,17,17,119,130.716624257,8.98016151041e-06,131.501434895,0.784820580389,,,,z,1,0.767095103976,2018_Nov_14_1402,59.991726582,spanish_cond2,001,1018,
images/treadmill.jpg,lily,x,sounds/animalfarm_english.wav,,,,,,,,,0,0,0,1,0,18,18,199,132.607927587,8.65932088345e-06,133.435243704,0.827326059807,,,,x,1,0.81707717583,2018_Nov_14_1402,59.991726582,spanish_cond2,001,1018,
images/corn01.jpg,corn,z,sounds/animalfarm_english.wav,,,,,,,,,0,0,0,1,0,19,19,22,134.534801177,9.62160993367e-06,135.319043181,0.784252267098,,,,z,1,0.767102480517,2018_Nov_14_1402,59.991726582,spanish_cond2,001,1018,
images/nailclipper03a.jpg,aquarium,x,sounds/animalfarm_english.wav,,,,,,,,,0,0,0,1,0,20,20,123,136.419012135,8.98004509509e-06,137.219503669,0.800501475576,,,,x,1,0.783775679185,2018_Nov_14_1402,59.991726582,spanish_cond2,001,1018,
images/raisin.jpg,ruler,x,sounds/animalfarm_english.wav,,,,,,,,,0,0,0,1,0,21,21,218,138.324428046,8.98004509509e-06,139.019941321,0.695523537812,,,,x,1,0.683749316027,2018_Nov_14_1402,59.991726582,spanish_cond2,001,1018,
images/gorilla.jpg,gorilla,z,sounds/animalfarm_english.wav,,,,,,,,,0,0,0,1,0,22,22,80,140.197298715,8.98016151041e-06,140.787047009,0.589757915237,,,,z,1,0.567055527237,2018_Nov_14_1402,59.991726582,spanish_cond2,001,1018,
images/dryingmachine01.jpg,drying machine,z,sounds/animalfarm_english.wav,,,,,,,,,0,0,0,1,0,23,23,18,141.910327396,9.30076930672e-06,142.554138585,0.643821131322,,,,z,1,0.633741586818,2018_Nov_14_1402,59.991726582,spanish_cond2,001,1018,
images/antelope.jpg,antelope,z,sounds/animalfarm_english.wav,,,,,,,,,0,0,0,1,0,24,24,12,143.659519666,8.98016151041e-06,144.888041301,1.22853157704,,,,x,0,1.21721277561,2018_Nov_14_1402,59.991726582,spanish_cond2,001,1018,
images/cookingpot.jpg,grasshopper,x,sounds/animalfarm_english.wav,,,,,,,,,0,0,0,1,0,25,25,183,146.003168058,9.30088572204e-06,146.92186589,0.918707773439,,,,x,1,0.900471712928,2018_Nov_14_1402,59.991726582,spanish_cond2,001,1018,
images/remotecontrol01c.jpg,remote control,z,sounds/animalfarm_english.wav,,,,,,,,,0,0,0,1,0,26,26,85,148.032058391,9.30088572204e-06,148.722303221,0.690255093272,,,,z,1,0.66707772098,2018_Nov_14_1402,59.991726582,spanish_cond2,001,1018,
images/tulip02.jpg,sport shorts,x,sounds/animalfarm_english.wav,,,,,,,,,0,0,0,1,0,27,27,225,149.816913289,8.98016151041e-06,151.022850881,1.20594721357,,,,x,1,1.18385900185,2018_Nov_14_1402,59.991726582,spanish_cond2,001,1018,
images/binder03b.jpg,dj mixer,x,sounds/animalfarm_english.wav,,,,,,,,,0,0,0,1,0,28,28,167,152.135680972,9.30076930672e-06,153.156739998,1.0210692886,,,,x,1,1.00050994253,2018_Nov_14_1402,59.991726582,spanish_cond2,001,1018,
images/feather03b.jpg,feather,z,sounds/animalfarm_english.wav,,,,,,,,,0,0,0,1,0,29,29,114,154.257959114,9.94233414531e-06,154.873807809,0.615859278943,,,,z,1,0.600392302964,2018_Nov_14_1402,59.991726582,spanish_cond2,001,1018,
images/doll.jpg,carrot,x,sounds/animalfarm_english.wav,,,,,,,,,0,0,0,1,0,30,30,146,155.985239567,9.94233414531e-06,156.740916768,0.755687463563,,,,x,1,0.733727218583,2018_Nov_14_1402,59.991726582,spanish_cond2,001,1018,
images/rhinoceros01.jpg,envelope,x,sounds/animalfarm_english.wav,,,,,,,,,0,0,0,1,0,31,31,173,157.853248783,9.30076930672e-06,158.74141773,0.888178247609,,,,x,1,0.867135257926,2018_Nov_14_1402,59.991726582,spanish_cond2,001,1018,
images/parrot01.jpg,chameleon,x,sounds/animalfarm_english.wav,,,,,,,,,0,0,0,1,0,32,32,150,159.855121459,8.98016151041e-06,160.608522199,0.753411002806,,,,x,1,0.733755121124,2018_Nov_14_1402,59.991726582,spanish_cond2,001,1018,
images/camera01a.jpg,bull,x,sounds/animalfarm_english.wav,,,,,,,,,0,0,0,1,0,33,33,138,161.719287825,9.30088572204e-06,162.458969826,0.739692905569,,,,x,1,0.717079356662,2018_Nov_14_1402,59.991726582,spanish_cond2,001,1018,
images/bandaid01.jpg,door handle,x,sounds/animalfarm_english.wav,,,,,,,,,0,0,0,1,0,34,34,170,163.566795745,9.30088572204e-06,164.326114064,0.759328261367,,,,x,1,0.750437299837,2018_Nov_14_1402,59.991726582,spanish_cond2,001,1018,
images/boxingglove02a.jpg,bracelet,x,sounds/animalfarm_english.wav,,,,,,,,,0,0,0,1,0,35,35,135,165.438229915,9.30088572204e-06,166.159879833,0.721660180716,,,,x,1,0.700418986846,2018_Nov_14_1402,59.991726582,spanish_cond2,001,1018,
images/spoon02b.jpg,spoon,z,sounds/animalfarm_english.wav,,,,,,,,,0,0,0,1,0,36,36,38,167.251698045,9.62160993367e-06,167.793605063,0.541917923023,,,,z,1,0.533698866959,2018_Nov_14_1402,59.991726582,spanish_cond2,001,1018,
images/knife04.jpg,tooth brush,x,sounds/animalfarm_english.wav,,,,,,,,,0,0,0,1,0,37,37,233,168.982713267,8.98016151041e-06,169.64405237,0.661348724389,,,,x,1,0.650394900818,2018_Nov_14_1402,59.991726582,spanish_cond2,001,1018,
images/bicycle.jpg,hand bag,x,sounds/animalfarm_english.wav,,,,,,,,,0,0,0,1,0,38,38,186,170.754361292,8.98004509509e-06,171.461177653,0.706826944719,,,,x,1,0.683749636868,2018_Nov_14_1402,59.991726582,spanish_cond2,001,1018,
images/pen03c.jpg,pepper,x,sounds/animalfarm_english.wav,,,,,,,,,0,0,0,1,0,39,39,211,172.555358278,8.98004509509e-06,173.411674414,0.856326078414,,,,x,1,0.833803293062,2018_Nov_14_1402,59.991726582,spanish_cond2,001,1018,
images/screw03c.jpg,screw,z,sounds/animalfarm_english.wav,,,,,,,,,0,0,0,1,0,40,40,84,174.506483968,8.98016151041e-06,175.228750307,0.722276922548,,,,z,1,0.700410648133,2018_Nov_14_1402,59.991726582,spanish_cond2,001,1018,
images/headphones02b.jpg,headphones,z,sounds/animalfarm_english.wav,,,,,,,,,0,0,0,1,0,41,41,101,176.33837674,8.98004509509e-06,176.945850831,0.607483391534,,,,z,1,0.583722952986,2018_Nov_14_1402,59.991726582,spanish_cond2,001,1018,
images/candy.jpg,candy,z,sounds/animalfarm_english.wav,,,,,,,,,0,0,0,1,0,42,42,31,178.048158145,9.62160993367e-06,178.74629105,0.698143167538,,,,z,1,0.683750599041,2018_Nov_14_1402,59.991726582,spanish_cond2,001,1018,
images/lantern03.jpg,lantern,z,sounds/animalfarm_english.wav,,,,,,,,,0,0,0,1,0,43,43,5,179.853012734,9.30088572204e-06,180.613417007,0.760414855904,,,,z,1,0.750443714205,2018_Nov_14_1402,59.991726582,spanish_cond2,001,1018,
images/bowlingball.jpg,bowling ball,z,sounds/animalfarm_english.wav,,,,,,,,,0,0,0,1,0,44,44,20,181.74610375,8.98016151041e-06,182.463838014,0.717743564979,,,,z,1,0.700400385191,2018_Nov_14_1402,59.991726582,spanish_cond2,001,1018,
images/toothbrush03a.jpg,parrot,x,sounds/animalfarm_english.wav,,,,,,,,,0,0,0,1,0,45,45,210,183.55656418,8.65943729877e-06,184.297626875,0.741072637029,,,,x,1,0.717082884628,2018_Nov_14_1402,59.991726582,spanish_cond2,001,1018,
images/backpack01b.jpg,swallow,x,sounds/animalfarm_english.wav,,,,,,,,,0,0,0,1,0,46,46,228,185.429772566,1.37909082696e-05,186.431483599,1.00172578683,,,,x,1,0.983818142326,2018_Nov_14_1402,59.991726582,spanish_cond2,001,1018,
images/printer03a.jpg,printer,z,sounds/animalfarm_english.wav,,,,,,,,,0,0,0,1,0,47,47,72,187.541214908,9.62149351835e-06,188.198571006,0.657366361353,,,,z,1,0.633708873531,2018_Nov_14_1402,59.991726582,spanish_cond2,001,1018,
images/blackolive.jpg,tank,x,sounds/animalfarm_english.wav,,,,,,,,,0,0,0,1,0,48,48,229,189.313763832,9.94233414531e-06,190.282416474,0.968663546373,,,,x,1,0.950477838749,2018_Nov_14_1402,59.991726582,spanish_cond2,001,1018,
images/pingpongpaddle01c (1).jpg,ping pong paddle,z,sounds/animalfarm_english.wav,,,,,,,,,0,0,0,1,0,49,49,10,191.393591337,9.30088572204e-06,192.482949957,1.0893685628,,,,z,1,1.06716874102,2018_Nov_14_1402,59.991726582,spanish_cond2,001,1018,
images/mattress.jpg,cat,x,sounds/animalfarm_english.wav,,,,,,,,,0,0,0,1,0,50,50,147,193.587624495,9.94233414531e-06,194.333412016,0.745797784417,,,,x,1,0.733760894043,2018_Nov_14_1402,59.991726582,spanish_cond2,001,1018,
images/flashlight05.jpg,flash light,z,sounds/animalfarm_english.wav,,,,,,,,,0,0,0,1,0,51,51,8,195.436792455,9.62149351835e-06,196.150513887,0.713731375057,,,,z,1,0.700418666005,2018_Nov_14_1402,59.991726582,spanish_cond2,001,1018,
images/hairband.jpg,hairband,z,sounds/animalfarm_english.wav,,,,,,,,,0,0,0,1,0,52,52,66,197.260053406,9.30088572204e-06,198.334381228,1.0743380849,,,,z,1,1.05049297656,2018_Nov_14_1402,59.991726582,spanish_cond2,001,1018,
images/leaf01a.jpg,leaf,z,sounds/animalfarm_english.wav,,,,,,,,,0,0,0,1,0,53,53,68,199.439163848,8.98016151041e-06,200.201503016,0.762348789256,,,,z,1,0.750433451147,2018_Nov_14_1402,59.991726582,spanish_cond2,001,1018,
images/djmixer01.jpg,light bulb,x,sounds/animalfarm_english.wav,,,,,,,,,0,0,0,1,0,54,54,196,201.323199053,3.23925632983e-05,202.235328567,0.912145870505,,,,x,1,0.900457280688,2018_Nov_14_1402,59.991726582,spanish_cond2,001,1018,
images/coffeepot03b.jpg,coffee pot,z,sounds/animalfarm_english.wav,,,,,,,,,0,0,0,1,0,55,55,107,203.357497664,8.65932088345e-06,204.185813461,0.828325418988,,,,z,1,0.817123038578,2018_Nov_14_1402,59.991726582,spanish_cond2,001,1018,
images/plate01b.jpg,plate,z,sounds/animalfarm_english.wav,,,,,,,,,0,0,0,1,0,56,56,3,205.285059195,8.98016151041e-06,206.103251509,0.818201615242,,,,z,1,0.80075131543,2018_Nov_14_1402,59.991726582,spanish_cond2,001,1018,
images/cauliflower01.jpg,glue stick,x,sounds/animalfarm_english.wav,,,,,,,,,0,0,0,1,0,57,57,181,207.219679423,8.98016151041e-06,207.88670647,0.667036669096,,,,x,1,0.650407408946,2018_Nov_14_1402,59.991726582,spanish_cond2,001,1018,
images/nailpolish02b.jpg,nail polish,z,sounds/animalfarm_english.wav,,,,,,,,,0,0,0,1,0,58,58,94,208.996683128,8.98016151041e-06,209.653799329,0.657126784557,,,,z,1,0.633732927381,2018_Nov_14_1402,59.991726582,spanish_cond2,001,1018,
images/straw.jpg,straw,z,sounds/animalfarm_english.wav,,,,,,,,,0,0,0,1,0,59,59,109,210.745390472,8.65943729877e-06,211.520938756,0.77555758541,,,,z,1,0.767110819113,2018_Nov_14_1402,59.991726582,spanish_cond2,001,1018,
images/calculator02b.jpg,dice,x,sounds/animalfarm_english.wav,,,,,,,,,0,0,0,1,0,60,60,165,212.623095332,9.62160993367e-06,213.538079883,0.914996096864,,,,x,1,0.900462091318,2018_Nov_14_1402,59.991726582,spanish_cond2,001,1018,
images/masquerademask02b.jpg,mirror,x,sounds/animalfarm_english.wav,,,,,,,,,0,0,0,1,0,61,61,204,214.644041144,9.30076930672e-06,215.388535849,0.744505609036,,,,x,1,0.733761535375,2018_Nov_14_1402,59.991726582,spanish_cond2,001,1018,
images/medal01.jpg,medal,z,sounds/animalfarm_english.wav,,,,,,,,,0,0,0,1,0,62,62,115,216.489786716,8.98016151041e-06,217.405686598,0.915909824194,,,,z,1,0.900463695056,2018_Nov_14_1402,59.991726582,spanish_cond2,001,1018,
images/shotglass.jpg,shot glass,z,sounds/animalfarm_english.wav,,,,,,,,,0,0,0,1,0,63,63,86,218.515623166,8.98016151041e-06,219.856279895,1.3406666714,,,,z,1,1.31722695136,2018_Nov_14_1402,59.991726582,spanish_cond2,001,1018,
images/pepper05a.jpg,lighter,x,sounds/animalfarm_english.wav,,,,,,,,,0,0,0,1,0,64,64,198,220.978877472,8.98016151041e-06,221.890100956,0.911233105347,,,,x,1,0.900449583423,2018_Nov_14_1402,59.991726582,spanish_cond2,001,1018,
images/beachumbrella01.jpg,beach umbrella,z,sounds/animalfarm_english.wav,,,,,,,,,0,0,0,1,0,65,65,92,222.996843167,9.30088572204e-06,223.807255168,0.810421943897,,,,z,1,0.80044759484,2018_Nov_14_1402,59.991726582,spanish_cond2,001,1018,
images/panda.jpg,panda,z,sounds/animalfarm_english.wav,,,,,,,,,0,0,0,1,0,66,66,83,224.916657419,9.30076930672e-06,225.541007724,0.62436120864,,,,z,1,0.600395189482,2018_Nov_14_1402,59.991726582,spanish_cond2,001,1018,
images/mirror02.jpg,8 ball,x,sounds/animalfarm_english.wav,,,,,,,,,0,0,0,1,0,67,67,121,226.64447219,9.62149351835e-06,227.574830067,0.930368140107,,,,x,1,0.917132082861,2018_Nov_14_1402,59.991726582,spanish_cond2,001,1018,
images/microphone01.jpg,diaper,x,sounds/animalfarm_english.wav,,,,,,,,,0,0,0,1,0,68,68,164,228.673972851,9.30076930672e-06,229.625335552,0.951373285032,,,,x,1,0.933787962771,2018_Nov_14_1402,59.991726582,spanish_cond2,001,1018,
images/snowman.jpg,globe,x,sounds/animalfarm_english.wav,,,,,,,,,0,0,0,1,0,69,69,180,230.736573276,8.98016151041e-06,231.625820158,0.88925682439,,,,x,1,0.867110241903,2018_Nov_14_1402,59.991726582,spanish_cond2,001,1018,
images/blueberry02.jpg,blueberry,z,sounds/animalfarm_english.wav,,,,,,,,,0,0,0,1,0,70,70,46,232.738845246,9.30076930672e-06,233.392903074,0.654068091069,,,,z,1,0.633727154462,2018_Nov_14_1402,59.991726582,spanish_cond2,001,1018,
images/seagull.jpg,seagull,z,sounds/animalfarm_english.wav,,,,,,,,,0,0,0,1,0,71,71,50,234.503174794,9.30088572204e-06,235.376727952,0.873562779743,,,,z,1,0.850447306177,2018_Nov_14_1402,59.991726582,spanish_cond2,001,1018,
images/ladder.jpg,ladder,z,sounds/animalfarm_english.wav,,,,,,,,,0,0,0,1,0,72,72,113,236.470072142,9.30088572204e-06,237.310562098,0.840500218445,,,,z,1,0.81712977367,2018_Nov_14_1402,59.991726582,spanish_cond2,001,1018,
images/flipflop01b.jpg,flip flop,z,sounds/animalfarm_english.wav,,,,,,,,,0,0,0,1,0,73,73,27,238.428052872,8.98004509509e-06,239.144318245,0.716275635757,,,,z,1,0.70042059035,2018_Nov_14_1402,59.991726582,spanish_cond2,001,1018,
images/atm.jpg,atm,z,sounds/animalfarm_english.wav,,,,,,,,,0,0,0,1,0,74,74,96,240.283278886,9.62160993367e-06,241.094787745,0.811519442941,,,,z,1,0.800439576968,2018_Nov_14_1402,59.991726582,spanish_cond2,001,1018,
images/notebook02b.jpg,notebook,z,sounds/animalfarm_english.wav,,,,,,,,,0,0,0,1,0,75,75,7,242.274392735,9.62160993367e-06,242.845210933,0.570828140364,,,,z,1,0.550376235042,2018_Nov_14_1402,59.991726582,spanish_cond2,001,1018,
images/magnifyingglass01b.jpg,magnifying glass,z,sounds/animalfarm_english.wav,,,,,,,,,0,0,0,1,0,76,76,64,243.952344421,8.98016151041e-06,244.595638612,0.643304132973,,,,z,1,0.633731003036,2018_Nov_14_1402,59.991726582,spanish_cond2,001,1018,
images/kiwi03.jpg,backpack,x,sounds/animalfarm_english.wav,,,,,,,,,0,0,0,1,0,77,77,125,245.724599888,9.30088572204e-06,246.612814056,0.888224751921,,,,x,1,0.867138144444,2018_Nov_14_1402,59.991726582,spanish_cond2,001,1018,
images/radio03a.jpg,radio,z,sounds/animalfarm_english.wav,,,,,,,,,0,0,0,1,0,78,78,37,247.7272564,9.30076930672e-06,248.596612634,0.869366176543,,,,x,0,0.850445061224,2018_Nov_14_1402,59.991726582,spanish_cond2,001,1018,
images/highlighter03b.jpg,coin,x,sounds/animalfarm_english.wav,,,,,,,,,0,0,0,1,0,79,79,156,249.698935342,8.98016151041e-06,250.813822203,1.11489712307,,,,z,0,1.10050615808,2018_Nov_14_1402,59.991726582,spanish_cond2,001,1018,
images/aloe02.jpg,broad sword,x,sounds/animalfarm_english.wav,,,,,,,,,0,0,0,1,0,80,80,137,251.936259741,8.98016151041e-06,252.931017595,0.994767796597,,,,x,1,0.983827763936,2018_Nov_14_1402,59.991726582,spanish_cond2,001,1018,
images/beermug01b.jpg,beer mug,z,sounds/animalfarm_english.wav,,,,,,,,,0,0,0,1,0,81,81,111,254.049024085,9.30088572204e-06,255.148208241,1.09919441899,,,,z,1,1.08384129812,2018_Nov_14_1402,59.991726582,spanish_cond2,001,1018,
images/sunglasses03a.jpg,sun glasses,z,sounds/animalfarm_english.wav,,,,,,,,,0,0,0,1,0,82,82,17,256.332042548,9.62160993367e-06,257.015349914,0.68331794953,,,,z,1,0.667070985888,2018_Nov_14_1402,59.991726582,spanish_cond2,001,1018,
images/cherry01.jpg,highlighter,x,sounds/animalfarm_english.wav,,,,,,,,,0,0,0,1,0,83,83,187,258.124517078,9.30088572204e-06,258.899135599,0.774628784275,,,,x,1,0.750445959275,2018_Nov_14_1402,59.991726582,spanish_cond2,001,1018,
images/tent.jpg,tent,z,sounds/animalfarm_english.wav,,,,,,,,,0,0,0,1,0,84,84,11,260.025942287,9.30088572204e-06,260.699561385,0.673629681696,,,,z,1,0.650397145888,2018_Nov_14_1402,59.991726582,spanish_cond2,001,1018,
images/candycane01a.jpg,lip,x,sounds/animalfarm_english.wav,,,,,,,,,0,0,0,1,0,85,85,200,261.794028412,9.30076930672e-06,262.650029602,0.85601113271,,,,x,1,0.833775390522,2018_Nov_14_1402,59.991726582,spanish_cond2,001,1018,
images/parkbench03.jpg,park bench,z,sounds/animalfarm_english.wav,,,,,,,,,0,0,0,1,0,86,86,71,263.757904591,8.98004509509e-06,264.600496537,0.842601566692,,,,z,1,0.833766731084,2018_Nov_14_1402,59.991726582,spanish_cond2,001,1018,
images/glasses01b.jpg,calculator,x,sounds/animalfarm_english.wav,,,,,,,,,0,0,0,1,0,87,87,142,265.693647655,9.62149351835e-06,266.517477882,0.823840810568,,,,x,1,0.800274406793,2018_Nov_14_1402,59.991726582,spanish_cond2,001,1018,
images/battery03b.jpg,battery,z,sounds/animalfarm_english.wav,,,,,,,,,0,0,0,1,0,88,88,34,267.62755268,9.94233414531e-06,268.45145154,0.823909444502,,,,z,1,0.800448557013,2018_Nov_14_1402,59.991726582,spanish_cond2,001,1018,
images/pipe.jpg,icecube,x,sounds/animalfarm_english.wav,,,,,,,,,0,0,0,1,0,89,89,188,269.561243465,9.30076930672e-06,270.718922847,1.15769606002,,,,x,1,1.13407802058,2018_Nov_14_1402,59.991726582,spanish_cond2,001,1018,
images/aquarium.jpg,computer mouse,x,sounds/animalfarm_english.wav,,,,,,,,,0,0,0,1,0,90,90,159,271.932925871,9.30088572204e-06,272.785830523,0.852914594579,,,,x,1,0.833777314867,2018_Nov_14_1402,59.991726582,spanish_cond2,001,1018,
images/dolphin01.jpg,dolphin,z,sounds/animalfarm_english.wav,,,,,,,,,0,0,0,1,0,91,91,99,273.886098067,8.98004509509e-06,274.569610051,0.683521926519,,,,z,1,0.667075796751,2018_Nov_14_1402,59.991726582,spanish_cond2,001,1018,
images/banana04a.jpg,banana,z,sounds/animalfarm_english.wav,,,,,,,,,0,0,0,1,0,92,92,118,275.676854187,9.30076930672e-06,276.270026151,0.593181586359,,,,z,1,0.58372904663,2018_Nov_14_1402,59.991726582,spanish_cond2,001,1018,
images/cake.jpg,cake,z,sounds/animalfarm_english.wav,,,,,,,,,0,0,0,1,0,93,93,23,277.383916539,9.62149351835e-06,278.403876462,1.01997082739,,,,z,1,1.00049102027,2018_Nov_14_1402,59.991726582,spanish_cond2,001,1018,
images/coin01b.jpg,arrow,x,sounds/animalfarm_english.wav,,,,,,,,,0,0,0,1,0,94,94,124,279.507460236,3.72034264728e-05,280.704437591,1.19699339138,,,,x,1,1.18386862346,2018_Nov_14_1402,59.991726582,spanish_cond2,001,1018,
images/dresser02.jpg,dresser,z,sounds/animalfarm_english.wav,,,,,,,,,0,0,0,1,0,95,95,87,281.826822211,8.98016151041e-06,282.738277254,0.911464664154,,,,z,1,0.90042809525,2018_Nov_14_1402,59.991726582,spanish_cond2,001,1018,
images/basketball01.jpg,basket ball,z,sounds/animalfarm_english.wav,,,,,,,,,0,0,0,1,0,96,96,33,283.878468492,9.30088572204e-06,284.555428515,0.676969966036,,,,z,1,0.667108510039,2018_Nov_14_1402,59.991726582,spanish_cond2,001,1018,
images/barrel01.jpg,barrel,z,sounds/animalfarm_english.wav,,,,,,,,,0,0,0,1,0,97,97,9,285.686425392,9.62160993367e-06,286.389150025,0.702734254533,,,,z,1,0.683751561097,2018_Nov_14_1402,59.991726582,spanish_cond2,001,1018,
images/highheelshoe02a.jpg,high heel shoe,z,sounds/animalfarm_english.wav,,,,,,,,,0,0,0,1,0,98,98,75,287.496053557,9.62149351835e-06,288.456316521,0.960272585158,,,,z,1,0.950473669334,2018_Nov_14_1402,59.991726582,spanish_cond2,001,1018,
images/diploma01.jpg,glasses,x,sounds/animalfarm_english.wav,,,,,,,,,0,0,0,1,0,99,99,179,289.588300891,9.30076930672e-06,290.34010381,0.751813182724,,,,x,1,0.733744537341,2018_Nov_14_1402,59.991726582,spanish_cond2,001,1018,
images/bed.jpg,bed,z,sounds/animalfarm_english.wav,,,,,,,,,0,0,0,1,0,100,100,103,291.528264932,9.30088572204e-06,292.22390489,0.695650542388,,,,z,1,0.683739694534,2018_Nov_14_1402,59.991726582,spanish_cond2,001,1018,
images/cigar.jpg,crocodile,x,sounds/animalfarm_english.wav,,,,,,,,,0,0,0,1,0,101,101,162,293.322676602,9.62160993367e-06,294.2910685,0.968401839957,,,,x,1,0.950467896415,2018_Nov_14_1402,59.991726582,spanish_cond2,001,1018,
images/swallow.jpg,mattress,x,sounds/animalfarm_english.wav,,,,,,,,,0,0,0,1,0,102,102,202,295.393082356,9.62149351835e-06,296.258237177,0.865165083436,,,,x,1,0.850466549397,2018_Nov_14_1402,59.991726582,spanish_cond2,001,1018,
images/safe.jpg,safe,z,sounds/animalfarm_english.wav,,,,,,,,,0,0,0,1,0,103,103,78,297.36969363,9.62149351835e-06,298.308719249,0.939035560586,,,,z,1,0.917140742298,2018_Nov_14_1402,59.991726582,spanish_cond2,001,1018,
images/bench02.jpg,electric toothbrush,x,sounds/animalfarm_english.wav,,,,,,,,,0,0,0,1,0,104,104,172,299.418829326,8.65943729877e-06,300.34254031,0.923720926046,,,,x,1,0.900459525641,2018_Nov_14_1402,59.991726582,spanish_cond2,001,1018,
images/banjo.jpg,knife,x,sounds/animalfarm_english.wav,,,,,,,,,0,0,0,1,0,105,105,191,301.439655189,8.98004509509e-06,302.259692277,0.820047350833,,,,x,1,0.800458178623,2018_Nov_14_1402,59.991726582,spanish_cond2,001,1018,
images/volleyball.jpg,volley ball,z,sounds/animalfarm_english.wav,,,,,,,,,0,0,0,1,0,106,106,2,303.391863305,9.62160993367e-06,304.110154336,0.718300653272,,,,z,1,0.700436305604,2018_Nov_14_1402,59.991726582,spanish_cond2,001,1018,
images/cocktailshrimp01.jpg,cocktail shrimp,z,sounds/animalfarm_english.wav,,,,,,,,,0,0,0,1,0,107,107,30,305.225541838,8.98004509509e-06,306.760769571,1.53523735423,,,,z,1,1.51727165957,2018_Nov_14_1402,59.991726582,spanish_cond2,001,1018,
images/mailbox01.jpg,mail box,z,sounds/animalfarm_english.wav,,,,,,,,,0,0,0,1,0,108,108,73,307.880816152,9.62160993367e-06,308.744601504,0.863795935758,,,,z,1,0.850456927787,2018_Nov_14_1402,59.991726582,spanish_cond2,001,1018,
images/mitten01.jpg,mitten,z,sounds/animalfarm_english.wav,,,,,,,,,0,0,0,1,0,109,109,102,309.866003763,8.98004509509e-06,310.678396522,0.812402701937,,,,z,1,0.800436369726,2018_Nov_14_1402,59.991726582,spanish_cond2,001,1018,
images/clothespin02a.jpg,clothes pin,z,sounds/animalfarm_english.wav,,,,,,,,,0,0,0,1,0,110,110,79,311.784430587,9.62160993367e-06,312.712239713,0.927818747819,,,,z,1,0.917138497229,2018_Nov_14_1402,59.991726582,spanish_cond2,001,1018,
images/button07.jpg,radish,x,sounds/animalfarm_english.wav,,,,,,,,,0,0,0,1,0,111,111,215,313.824584557,9.30088572204e-06,314.679366696,0.854792081402,,,,x,1,0.833770258934,2018_Nov_14_1402,59.991726582,spanish_cond2,001,1018,
images/pouch01b.jpg,pouch,z,sounds/animalfarm_english.wav,,,,,,,,,0,0,0,1,0,112,112,25,315.792241368,9.62149351835e-06,316.713210207,0.920979102608,,,,z,1,0.900476523791,2018_Nov_14_1402,59.991726582,spanish_cond2,001,1018,
images/eraser.jpg,eraser,z,sounds/animalfarm_english.wav,,,,,,,,,0,0,0,1,0,113,113,110,317.820478717,9.30076930672e-06,318.496961191,0.676492415951,,,,z,1,0.66706681659,2018_Nov_14_1402,59.991726582,spanish_cond2,001,1018,
images/puma.jpg,puma,z,sounds/animalfarm_english.wav,,,,,,,,,0,0,0,1,0,114,114,4,319.596167797,9.30076930672e-06,320.314082626,0.717925091623,,,,z,1,0.700424759765,2018_Nov_14_1402,59.991726582,spanish_cond2,001,1018,
images/tissuebox03.jpg,tissue box,z,sounds/animalfarm_english.wav,,,,,,,,,0,0,0,1,0,115,115,58,321.441532355,9.30088572204e-06,322.147847112,0.706324058003,,,,z,1,0.683732317993,2018_Nov_14_1402,59.991726582,spanish_cond2,001,1018,
images/8ball.jpg,nail clipper,x,sounds/animalfarm_english.wav,,,,,,,,,0,0,0,1,0,116,116,206,323.265670151,8.98016151041e-06,324.115238688,0.849578158814,,,,x,1,0.83402458881,2018_Nov_14_1402,59.991726582,spanish_cond2,001,1018,
images/nametag01a.jpg,name tag,z,sounds/animalfarm_english.wav,,,,,,,,,0,0,0,1,0,117,117,108,325.237180717,8.98016151041e-06,326.215516174,0.978345399839,,,,z,1,0.967148150899,2018_Nov_14_1402,59.991726582,spanish_cond2,001,1018,
images/bowtie.jpg,bowtie,z,sounds/animalfarm_english.wav,,,,,,,,,0,0,0,1,0,118,118,89,327.326821249,9.30088572204e-06,328.049304714,0.722493407666,,,,z,1,0.700427646283,2018_Nov_14_1402,59.991726582,spanish_cond2,001,1018,
images/pictureframe04.jpg,picture frame,z,sounds/animalfarm_english.wav,,,,,,,,,0,0,0,1,0,119,119,41,329.171695748,9.30088572204e-06,329.832892452,0.661206646124,,,,z,1,0.650221712771,2018_Nov_14_1402,59.991726582,spanish_cond2,001,1018,
images/baseball01a.jpg,baseball,z,sounds/animalfarm_english.wav,,,,,,,,,0,0,0,1,0,120,120,74,330.966239234,9.30076930672e-06,331.633496237,0.667266945005,,,,z,1,0.650399390841,2018_Nov_14_1402,59.991726582,spanish_cond2,001,1018,
images/hairpin.jpg,hair pin,z,sounds/animalfarm_english.wav,,,,,,,,,0,0,0,1,0,121,121,28,332.724969997,9.30088572204e-06,333.36725681,0.642297397251,,,,z,1,0.633732927381,2018_Nov_14_1402,59.991726582,spanish_cond2,001,1018,
images/broom02.jpg,broom,z,sounds/animalfarm_english.wav,,,,,,,,,0,0,0,1,0,122,122,116,334.461684709,9.30088572204e-06,335.251051476,0.789376709028,,,,z,1,0.767011075746,2018_Nov_14_1402,59.991726582,spanish_cond2,001,1018,
images/lemon02.jpg,lemon,z,sounds/animalfarm_english.wav,,,,,,,,,0,0,0,1,0,123,123,14,336.363955654,8.98004509509e-06,336.934798226,0.57085187349,,,,z,1,0.55036949995,2018_Nov_14_1402,59.991726582,spanish_cond2,001,1018,
images/ear.jpg,bullet,x,sounds/animalfarm_english.wav,,,,,,,,,0,0,0,1,0,124,124,139,338.039149801,9.62160993367e-06,338.801940861,0.762801002478,,,,x,1,0.750458146562,2018_Nov_14_1402,59.991726582,spanish_cond2,001,1018,
images/envelope02a.jpg,grand piano,x,sounds/animalfarm_english.wav,,,,,,,,,0,0,0,1,0,125,125,182,339.926541967,9.30088572204e-06,340.952258789,1.02572676446,,,,x,1,1.01698782365,2018_Nov_14_1402,59.991726582,spanish_cond2,001,1018,
images/leek.jpg,donut,x,sounds/animalfarm_english.wav,,,,,,,,,0,0,0,1,0,126,126,169,342.054928194,1.05837825686e-05,343.002955743,0.948037811439,,,,x,1,0.93382484524,2018_Nov_14_1402,59.991726582,spanish_cond2,001,1018,
images/orange.jpg,bat,x,sounds/animalfarm_english.wav,,,,,,,,,0,0,0,1,0,127,127,128,344.128151141,9.62160993367e-06,344.903593909,0.775453351787,,,,x,1,0.750626523746,2018_Nov_14_1402,59.991726582,spanish_cond2,001,1018,
images/triangleruler02.jpg,bottle of red wine,x,sounds/animalfarm_english.wav,,,,,,,,,0,0,0,1,0,128,128,134,346.015096867,9.30088572204e-06,346.803887623,0.788800377632,,,,x,1,0.76713134523,2018_Nov_14_1402,59.991726582,spanish_cond2,001,1018,
images/mushroom01.jpg,shower head,x,sounds/animalfarm_english.wav,,,,,,,,,0,0,0,1,0,129,129,222,347.920965953,8.98016151041e-06,348.837677574,0.916721883696,,,,x,1,0.900466260733,2018_Nov_14_1402,59.991726582,spanish_cond2,001,1018,
images/handfan01b.jpg,handfan,z,sounds/animalfarm_english.wav,,,,,,,,,0,0,0,1,0,130,130,69,349.953574056,8.98016151041e-06,350.921743054,0.968178619747,,,,z,1,0.950696248095,2018_Nov_14_1402,59.991726582,spanish_cond2,001,1018,
images/lion.jpg,lion,z,sounds/animalfarm_english.wav,,,,,,,,,0,0,0,1,0,131,131,44,352.03577103,9.94221772999e-06,352.872015954,0.836255186819,,,,z,1,0.817122397129,2018_Nov_14_1402,59.991726582,spanish_cond2,001,1018,
images/bracelet02a.jpg,chess knight,x,sounds/animalfarm_english.wav,,,,,,,,,0,0,0,1,0,132,132,152,353.981347005,9.30088572204e-06,354.838976805,0.857640062575,,,,x,1,0.833606692497,2018_Nov_14_1402,59.991726582,spanish_cond2,001,1018,
images/lily.jpg,kiwi,x,sounds/animalfarm_english.wav,,,,,,,,,0,0,0,1,0,133,133,190,355.939363335,9.30088572204e-06,356.839645503,0.900292110513,,,,x,1,0.883801400778,2018_Nov_14_1402,59.991726582,spanish_cond2,001,1018,
images/elbow.jpg,elbow,z,sounds/animalfarm_english.wav,,,,,,,,,0,0,0,1,0,134,134,105,357.951583356,9.30088572204e-06,358.823468777,0.871895684395,,,,z,1,0.850453720661,2018_Nov_14_1402,59.991726582,spanish_cond2,001,1018,
images/lock02a.jpg,lock,z,sounds/animalfarm_english.wav,,,,,,,,,0,0,0,1,0,135,135,65,359.934432607,9.30088572204e-06,360.707239068,0.77281640342,,,,z,1,0.750421905308,2018_Nov_14_1402,59.991726582,spanish_cond2,001,1018,
images/bowl02b (1).jpg,bowl,z,sounds/animalfarm_english.wav,,,,,,,,,0,0,0,1,0,136,136,24,361.825634911,9.30088572204e-06,362.340967505,0.515342216357,,,,z,1,0.500356959878,2018_Nov_14_1402,59.991726582,spanish_cond2,001,1018,
images/handbag02a.jpg,candle,x,sounds/animalfarm_english.wav,,,,,,,,,0,0,0,1,0,137,137,144,363.4574586,9.62149351835e-06,364.291439892,0.833991875523,,,,x,1,0.817104436923,2018_Nov_14_1402,59.991726582,spanish_cond2,001,1018,
images/saltshaker03c.jpg,salt shaker,z,sounds/animalfarm_english.wav,,,,,,,,,0,0,0,1,0,138,138,63,365.404129509,9.30076930672e-06,366.508660365,1.10454079823,,,,z,1,1.08384707116,2018_Nov_14_1402,59.991726582,spanish_cond2,001,1018,
images/redfox.jpg,red fox,z,sounds/animalfarm_english.wav,,,,,,,,,0,0,0,1,0,139,139,1,367.622401297,9.30088572204e-06,368.275742319,0.653351285029,,,,z,1,0.633702138439,2018_Nov_14_1402,59.991726582,spanish_cond2,001,1018,
images/skateboard.jpg,key,x,sounds/animalfarm_english.wav,,,,,,,,,0,0,0,1,0,140,140,189,369.367820634,9.62160993367e-06,370.176214032,0.808403340867,,,,x,1,0.78375836031,2018_Nov_14_1402,59.991726582,spanish_cond2,001,1018,
images/showerhead01.jpg,skateboard,x,sounds/animalfarm_english.wav,,,,,,,,,0,0,0,1,0,141,141,223,371.28478915,8.98004509509e-06,372.160025119,0.875245910953,,,,x,1,0.850447627017,2018_Nov_14_1402,59.991726582,spanish_cond2,001,1018,
images/stapler03a.jpg,candy cane,x,sounds/animalfarm_english.wav,,,,,,,,,0,0,0,1,0,142,142,145,373.272048924,9.30088572204e-06,374.093670362,0.821631700848,,,,x,1,0.800265105907,2018_Nov_14_1402,59.991726582,spanish_cond2,001,1018,
images/scissors04a.jpg,leek,x,sounds/animalfarm_english.wav,,,,,,,,,0,0,0,1,0,143,143,194,375.188523854,8.98004509509e-06,375.910939648,0.722425735905,,,,x,1,0.700398140121,2018_Nov_14_1402,59.991726582,spanish_cond2,001,1018,
images/cloud.jpg,ceiling fan,x,sounds/animalfarm_english.wav,,,,,,,,,0,0,0,1,0,144,144,149,377.017082436,9.30088572204e-06,378.228164675,1.21109282307,,,,x,1,1.20053220051,2018_Nov_14_1402,59.991726582,spanish_cond2,001,1018,
images/cockroach02.jpg,belt,x,sounds/animalfarm_english.wav,,,,,,,,,0,0,0,1,0,145,145,129,379.327756785,8.98004509509e-06,380.328674682,1.00092815969,,,,x,1,0.983804030577,2018_Nov_14_1402,59.991726582,spanish_cond2,001,1018,
images/watermelon01.jpg,orange,x,sounds/animalfarm_english.wav,,,,,,,,,0,0,0,1,0,146,146,207,381.459397665,8.98016151041e-06,382.079130904,0.619743502117,,,,x,1,0.600410263287,2018_Nov_14_1402,59.991726582,spanish_cond2,001,1018,
images/thumbtack02a.jpg,thumb tack,z,sounds/animalfarm_english.wav,,,,,,,,,0,0,0,1,0,147,147,60,383.191734889,8.98016151041e-06,384.162960015,0.971235068166,,,,z,1,0.950488422415,2018_Nov_14_1402,59.991726582,spanish_cond2,001,1018,
images/drink.jpg,drink,z,sounds/animalfarm_english.wav,,,,,,,,,0,0,0,1,0,148,148,117,385.263840451,9.30076930672e-06,386.096763693,0.83293318341,,,,z,1,0.817113737809,2018_Nov_14_1402,59.991726582,spanish_cond2,001,1018,
images/graduationcap.jpg,graduation cap,z,sounds/animalfarm_english.wav,,,,,,,,,0,0,0,1,0,149,149,35,387.199748685,9.30088572204e-06,387.863845968,0.664107545977,,,,z,1,0.650403880863,2018_Nov_14_1402,59.991726582,spanish_cond2,001,1018,
images/puzzle.jpg,puzzle,z,sounds/animalfarm_english.wav,,,,,,,,,0,0,0,1,0,150,150,57,388.984796976,9.62149351835e-06,389.764313832,0.779526798869,,,,z,1,0.767093821079,2018_Nov_14_1402,59.991726582,spanish_cond2,001,1018,
images/hand01a.jpg,cupcake,x,sounds/animalfarm_english.wav,,,,,,,,,0,0,0,1,0,151,151,163,390.876502487,8.98016151041e-06,391.564761748,0.688269203529,,,,x,1,0.667074513738,2018_Nov_14_1402,59.991726582,spanish_cond2,001,1018,
images/charcoalbarbecue.jpg,charcoal barbecue,z,sounds/animalfarm_english.wav,,,,,,,,,0,0,0,1,0,152,152,77,392.684599541,8.98004509509e-06,393.715272428,1.03068282921,,,,z,1,1.01715652156,2018_Nov_14_1402,59.991726582,spanish_cond2,001,1018,
images/croissant02b.jpg,croissant,z,sounds/animalfarm_english.wav,,,,,,,,,0,0,0,1,0,153,153,39,394.827109254,9.30088572204e-06,395.549067703,0.721968391212,,,,z,1,0.700419628178,2018_Nov_14_1402,59.991726582,spanish_cond2,001,1018,
images/hammer02a.jpg,flower,x,sounds/animalfarm_english.wav,,,,,,,,,0,0,0,1,0,154,154,176,396.644987906,9.30076930672e-06,397.516201101,0.871223458089,,,,x,1,0.850462059374,2018_Nov_14_1402,59.991726582,spanish_cond2,001,1018,
images/computermouse02a.jpg,world map,x,sounds/animalfarm_english.wav,,,,,,,,,0,0,0,1,0,155,155,239,398.619004887,9.30088572204e-06,399.500027903,0.881032636971,,,,x,1,0.867136861547,2018_Nov_14_1402,59.991726582,spanish_cond2,001,1018,
images/bus.jpg,microphone,x,sounds/animalfarm_english.wav,,,,,,,,,0,0,0,1,0,156,156,203,400.618695073,8.98004509509e-06,401.283777924,0.665092472802,,,,x,1,0.650402918691,2018_Nov_14_1402,59.991726582,spanish_cond2,001,1018,
images/razor04a.jpg,razor,z,sounds/animalfarm_english.wav,,,,,,,,,0,0,0,1,0,157,157,36,402.384207431,9.62160993367e-06,403.134227155,0.75002998719,,,,z,1,0.733751272433,2018_Nov_14_1402,59.991726582,spanish_cond2,001,1018,
images/lighter02b.jpg,stapler,x,sounds/animalfarm_english.wav,,,,,,,,,0,0,0,1,0,158,158,227,404.28931898,9.62149351835e-06,405.168067779,0.87875938334,,,,x,1,0.867129805731,2018_Nov_14_1402,59.991726582,spanish_cond2,001,1018,
images/grandpiano.jpg,tulip,x,sounds/animalfarm_english.wav,,,,,,,,,0,0,0,1,0,159,159,236,406.283263492,9.30088572204e-06,407.018513161,0.735259932815,,,,x,1,0.717074866639,2018_Nov_14_1402,59.991726582,spanish_cond2,001,1018,
images/diaper01a.jpg,camera,x,sounds/animalfarm_english.wav,,,,,,,,,0,0,0,1,0,160,160,143,408.139887197,9.30088572204e-06,408.819136189,0.679258934804,,,,x,1,0.667247060454,2018_Nov_14_1402,59.991726582,spanish_cond2,001,1018,
images/flower01.jpg,bus,x,sounds/animalfarm_english.wav,,,,,,,,,0,0,0,1,0,161,161,140,409.933961792,9.30088572204e-06,410.519375253,0.58542340307,,,,x,1,0.567049754434,2018_Nov_14_1402,59.991726582,spanish_cond2,001,1018,
images/apricot.jpg,apricot,z,sounds/animalfarm_english.wav,,,,,,,,,0,0,0,1,0,162,162,32,411.637108812,9.30076930672e-06,412.336481935,0.699383707019,,,,x,0,0.683743863832,2018_Nov_14_1402,59.991726582,spanish_cond2,001,1018,
images/ceilingfan02.jpg,paper clip,x,sounds/animalfarm_english.wav,,,,,,,,,0,0,0,1,0,163,163,208,413.435742101,9.30088572204e-06,414.436982641,1.00125048193,,,,x,1,0.983803068521,2018_Nov_14_1402,59.991726582,spanish_cond2,001,1018,
images/honeycomb.jpg,honey comb,z,sounds/animalfarm_english.wav,,,,,,,,,0,0,0,1,0,164,164,59,415.550861803,9.62149351835e-06,416.837569492,1.28671827237,,,,z,1,1.26721633563,2018_Nov_14_1402,59.991726582,spanish_cond2,001,1018,
images/comb02a.jpg,diploma,x,sounds/animalfarm_english.wav,,,,,,,,,0,0,0,1,0,165,165,166,417.942728315,8.98016151041e-06,418.671354183,0.728635810548,,,,x,1,0.717093789135,2018_Nov_14_1402,59.991726582,spanish_cond2,001,1018,
images/sportshorts02.jpg,tape,x,sounds/animalfarm_english.wav,,,,,,,,,0,0,0,1,0,166,166,230,419.780211212,9.30076930672e-06,420.638731327,0.858530056779,,,,x,1,0.834014005144,2018_Nov_14_1402,59.991726582,spanish_cond2,001,1018,
images/wallet01.jpg,lamp,x,sounds/animalfarm_english.wav,,,,,,,,,0,0,0,1,0,167,167,193,421.744286879,8.65932088345e-06,422.67232564,0.92804838228,,,,x,1,0.917138817953,2018_Nov_14_1402,59.991726582,spanish_cond2,001,1018,
images/grasshopper.jpg,cauliflower,x,sounds/animalfarm_english.wav,,,,,,,,,0,0,0,1,0,168,168,148,423.766590934,8.98016151041e-06,425.70622688,1.93964588817,,,,x,1,1.91720167885,2018_Nov_14_1402,59.991726582,spanish_cond2,001,1018,
images/tank.jpg,wallet,x,sounds/animalfarm_english.wav,,,,,,,,,0,0,0,1,0,169,169,237,426.811968449,8.98016151041e-06,427.573518328,0.761559821432,,,,x,1,0.750428961124,2018_Nov_14_1402,59.991726582,spanish_cond2,001,1018,
images/toucan.jpg,toucan,z,sounds/animalfarm_english.wav,,,,,,,,,0,0,0,1,0,170,170,81,428.674836546,8.98016151041e-06,429.357553789,0.682726865169,,,,z,1,0.667325636605,2018_Nov_14_1402,59.991726582,spanish_cond2,001,1018,
images/lightbulb03b.jpg,treadmill,x,sounds/animalfarm_english.wav,,,,,,,,,0,0,0,1,0,171,171,234,430.461101001,9.30076930672e-06,431.341100604,0.880009223823,,,,x,1,0.867113449145,2018_Nov_14_1402,59.991726582,spanish_cond2,001,1018,
images/ladybug03.jpg,giraffe,x,sounds/animalfarm_english.wav,,,,,,,,,0,0,0,1,0,172,172,178,432.445227675,8.65943729877e-06,433.174885936,0.729668203741,,,,x,1,0.717083846685,2018_Nov_14_1402,59.991726582,spanish_cond2,001,1018,
images/crocodile.jpg,triangle ruler,x,sounds/animalfarm_english.wav,,,,,,,,,0,0,0,1,0,173,173,235,434.273879906,9.30076930672e-06,435.041835498,0.76796585496,,,,x,1,0.750250000157,2018_Nov_14_1402,59.991726582,spanish_cond2,001,1018,
images/fireextinguisher02.jpg,fire extinguisher,z,sounds/animalfarm_english.wav,,,,,,,,,0,0,0,1,0,174,174,175,436.154240638,8.98004509509e-06,436.875784077,0.7215533813,,,,z,1,0.700420911191,2018_Nov_14_1402,59.991726582,spanish_cond2,001,1018,
images/doorhandle.jpg,doll,x,sounds/animalfarm_english.wav,,,,,,,,,0,0,0,1,0,175,175,168,437.979059961,9.62149351835e-06,438.72624357,0.747193551739,,,,x,1,0.733757045469,2018_Nov_14_1402,59.991726582,spanish_cond2,001,1018,
images/cat.jpg,black olive,x,sounds/animalfarm_english.wav,,,,,,,,,0,0,0,1,0,176,176,133,439.857387016,8.98016151041e-06,440.710054978,0.852677904302,,,,x,1,0.833777956199,2018_Nov_14_1402,59.991726582,spanish_cond2,001,1018,
images/chameleon.jpg,50 dollar bill,x,sounds/animalfarm_english.wav,,,,,,,,,0,0,0,1,0,177,177,120,441.822690714,9.30088572204e-06,442.527175771,0.704494999722,,,,x,1,0.683758296189,2018_Nov_14_1402,59.991726582,spanish_cond2,001,1018,
images/carrot02.jpg,corkscrew,x,sounds/animalfarm_english.wav,,,,,,,,,0,0,0,1,0,178,178,161,443.630533438,9.30088572204e-06,444.477642705,0.847119529964,,,,x,1,0.833799444372,2018_Nov_14_1402,59.991726582,spanish_cond2,001,1018,
images/umbrella01.jpg,umbrella,z,sounds/animalfarm_english.wav,,,,,,,,,0,0,0,1,0,179,179,53,445.591483702,9.62149351835e-06,446.261404914,0.669932116638,,,,z,1,0.65040516376,2018_Nov_14_1402,59.991726582,spanish_cond2,001,1018,
images/weight01.jpg,weight,z,sounds/animalfarm_english.wav,,,,,,,,,0,0,0,1,0,180,180,67,447.367481313,8.98016151041e-06,448.095224243,0.727753192885,,,,z,1,0.717122333008,2018_Nov_14_1402,59.991726582,spanish_cond2,001,1018,
images/acousticguitar02.jpg,acoustic guitar,z,sounds/animalfarm_english.wav,,,,,,,,,0,0,0,1,0,181,181,97,449.210794875,8.98016151041e-06,450.112371143,0.901585568674,,,,z,1,0.883822247502,2018_Nov_14_1402,59.991726582,spanish_cond2,001,1018,
images/plant01.jpg,plant,z,sounds/animalfarm_english.wav,,,,,,,,,0,0,0,1,0,182,182,47,451.22521246,9.62160993367e-06,452.162838783,0.937637227471,,,,z,1,0.917122781975,2018_Nov_14_1402,59.991726582,spanish_cond2,001,1018,
images/rubberglove02a.jpg,lady bug,x,sounds/animalfarm_english.wav,,,,,,,,,0,0,0,1,0,183,183,192,453.267939556,9.30088572204e-06,453.929928114,0.661998500349,,,,x,1,0.650392655865,2018_Nov_14_1402,59.991726582,spanish_cond2,001,1018,
images/dreamcatcher.jpg,dream catcher,z,sounds/animalfarm_english.wav,,,,,,,,,0,0,0,1,0,184,184,48,455.029881033,9.30076930672e-06,456.44720715,1.41733605985,,,,z,1,1.40055381693,2018_Nov_14_1402,59.991726582,spanish_cond2,001,1018,
images/ashtray02b.jpg,ashtray,z,sounds/animalfarm_english.wav,,,,,,,,,0,0,0,1,0,185,185,43,457.56231691,8.98004509509e-06,458.881130456,1.31882413011,,,,z,1,1.30053771683,2018_Nov_14_1402,59.991726582,spanish_cond2,001,1018,
images/gamecontroller01.jpg,game controller,z,sounds/animalfarm_english.wav,,,,,,,,,0,0,0,1,0,186,186,112,460.001928802,9.30076930672e-06,460.948312667,0.946394449216,,,,z,1,0.933801753563,2018_Nov_14_1402,59.991726582,spanish_cond2,001,1018,
images/floorlamp.jpg,floor lamp,z,sounds/animalfarm_english.wav,,,,,,,,,0,0,0,1,0,187,187,26,462.042318821,9.30088572204e-06,463.148841981,1.10653310234,,,,z,1,1.08382462081,2018_Nov_14_1402,59.991726582,spanish_cond2,001,1018,
images/ostrich.jpg,ostrich,z,sounds/animalfarm_english.wav,,,,,,,,,0,0,0,1,0,188,188,76,464.250078416,8.65932088345e-06,464.915942537,0.665874063969,,,,z,1,0.650372450473,2018_Nov_14_1402,59.991726582,spanish_cond2,001,1018,
images/cheetah.jpg,cheetah,z,sounds/animalfarm_english.wav,,,,,,,,,0,0,0,1,0,189,189,82,466.019220346,8.98016151041e-06,466.699709557,0.680499795009,,,,z,1,0.667021916015,2018_Nov_14_1402,59.991726582,spanish_cond2,001,1018,
images/fryingpan01.jpg,frying pan,z,sounds/animalfarm_english.wav,,,,,,,,,0,0,0,1,0,190,190,45,467.801140347,9.30076930672e-06,468.383443479,0.582313073915,,,,z,1,0.567013192456,2018_Nov_14_1402,59.991726582,spanish_cond2,001,1018,
images/key03b.jpg,cigar,x,sounds/animalfarm_english.wav,,,,,,,,,0,0,0,1,0,191,191,153,469.486321992,9.30088572204e-06,470.233908425,0.747596374364,,,,x,1,0.733763139113,2018_Nov_14_1402,59.991726582,spanish_cond2,001,1018,
images/gps.jpg,gps,z,sounds/animalfarm_english.wav,,,,,,,,,0,0,0,1,0,192,192,21,471.353059239,9.62160993367e-06,472.701185825,1.3481374908,,,,z,1,1.33391875168,2018_Nov_14_1402,59.991726582,spanish_cond2,001,1018,
images/tie01.jpg,bench,x,sounds/animalfarm_english.wav,,,,,,,,,0,0,0,1,0,193,193,130,473.801465235,9.62149351835e-06,474.585127059,0.783672087011,,,,x,1,0.767251614714,2018_Nov_14_1402,59.991726582,spanish_cond2,001,1018,
images/giraffe.jpg,lettuce,x,sounds/animalfarm_english.wav,,,,,,,,,0,0,0,1,0,194,194,195,475.686765354,8.98016151041e-06,476.418743373,0.731987961568,,,,x,1,0.717083205236,2018_Nov_14_1402,59.991726582,spanish_cond2,001,1018,
images/parkingmeter.jpg,ear,x,sounds/animalfarm_english.wav,,,,,,,,,0,0,0,1,0,195,195,171,477.52166775,1.02629419416e-05,478.58597536,1.06431819394,,,,x,1,1.05053434928,2018_Nov_14_1402,59.991726582,spanish_cond2,001,1018,
images/table02.jpg,table,z,sounds/animalfarm_english.wav,,,,,,,,,0,0,0,1,0,196,196,49,479.70137569,8.65943729877e-06,480.319689108,0.618323360104,,,,z,1,0.600388133666,2018_Nov_14_1402,59.991726582,spanish_cond2,001,1018,
images/swan.jpg,swan,z,sounds/animalfarm_english.wav,,,,,,,,,0,0,0,1,0,197,197,54,481.412707449,9.62160993367e-06,482.370189461,0.957492916961,,,,z,1,0.933808488655,2018_Nov_14_1402,59.991726582,spanish_cond2,001,1018,
images/cactus.jpg,cactus,z,sounds/animalfarm_english.wav,,,,,,,,,0,0,0,1,0,198,198,70,483.483581773,9.30088572204e-06,484.070615504,0.587043673499,,,,z,1,0.566980479169,2018_Nov_14_1402,59.991726582,spanish_cond2,001,1018,
images/broadsword.jpg,teapot,x,sounds/animalfarm_english.wav,,,,,,,,,0,0,0,1,0,199,199,231,485.164384005,9.30088572204e-06,485.937721897,0.773347192677,,,,x,1,0.750419980963,2018_Nov_14_1402,59.991726582,spanish_cond2,001,1018,
images/peach01.jpg,peach,z,sounds/animalfarm_english.wav,,,,,,,,,0,0,0,1,0,200,200,106,487.067329421,9.94233414531e-06,487.821509186,0.754190669861,,,,z,1,0.733738764422,2018_Nov_14_1402,59.991726582,spanish_cond2,001,1018,
images/globe.jpg,cloud,x,sounds/animalfarm_english.wav,,,,,,,,,0,0,0,1,0,201,201,154,488.950216453,9.62160993367e-06,489.671958738,0.721753189107,,,,x,1,0.700399423018,2018_Nov_14_1402,59.991726582,spanish_cond2,001,1018,
images/daisy.jpg,daisy,z,sounds/animalfarm_english.wav,,,,,,,,,0,0,0,1,0,202,202,6,490.775420638,9.30088572204e-06,491.505738939,0.730328242644,,,,z,1,0.717066527926,2018_Nov_14_1402,59.991726582,spanish_cond2,001,1018,
images/hat05.jpg,hat,z,sounds/animalfarm_english.wav,,,,,,,,,0,0,0,1,0,203,203,15,492.610473451,9.62160993367e-06,493.539577639,0.929114130326,,,,z,1,0.917110273964,2018_Nov_14_1402,59.991726582,spanish_cond2,001,1018,
images/eyedrops.jpg,bicycle,x,sounds/animalfarm_english.wav,,,,,,,,,0,0,0,1,0,204,204,131,494.641330751,9.30076930672e-06,495.323355563,0.682034754311,,,,x,1,0.667078683153,2018_Nov_14_1402,59.991726582,spanish_cond2,001,1018,
images/bull.jpg,button,x,sounds/animalfarm_english.wav,,,,,,,,,0,0,0,1,0,205,205,141,496.429823881,9.62160993367e-06,497.173817623,0.744004005101,,,,x,1,0.7337823821,2018_Nov_14_1402,59.991726582,spanish_cond2,001,1018,
images/hanger02a.jpg,hanger,z,sounds/animalfarm_english.wav,,,,,,,,,0,0,0,1,0,206,206,88,498.267916144,9.30076930672e-06,498.874211273,0.60630539211,,,,z,1,0.583728084574,2018_Nov_14_1402,59.991726582,spanish_cond2,001,1018,
images/gluestick.jpg,squirrel,x,sounds/animalfarm_english.wav,,,,,,,,,0,0,0,1,0,207,207,226,499.983000631,9.30088572204e-06,500.624641196,0.641650507809,,,,x,1,0.617071595276,2018_Nov_14_1402,59.991726582,spanish_cond2,001,1018,
images/lightswitch02a.jpg,fork,x,sounds/animalfarm_english.wav,,,,,,,,,0,0,0,1,0,208,208,177,501.736839472,9.30088572204e-06,502.408405971,0.671577082481,,,,x,1,0.650410936796,2018_Nov_14_1402,59.991726582,spanish_cond2,001,1018,
images/lychee02a.jpg,lychee,z,sounds/animalfarm_english.wav,,,,,,,,,0,0,0,1,0,209,209,62,503.533187642,9.30088572204e-06,504.525581158,0.992403779645,,,,x,0,0.98381269013,2018_Nov_14_1402,59.991726582,spanish_cond2,001,1018,
images/dice05a.jpg,band aid,x,sounds/animalfarm_english.wav,,,,,,,,,0,0,0,1,0,210,210,126,505.638913174,9.62160993367e-06,506.326013679,0.687110126484,,,,x,1,0.667064892245,2018_Nov_14_1402,59.991726582,spanish_cond2,001,1018,
images/birthdaycandle.jpg,birthday candle,z,sounds/animalfarm_english.wav,,,,,,,,,0,0,0,1,0,211,211,55,507.423364928,8.98016151041e-06,508.426534911,1.00317992514,,,,x,0,0.983803709969,2018_Nov_14_1402,59.991726582,spanish_cond2,001,1018,
images/arrow02.jpg,hammer,x,sounds/animalfarm_english.wav,,,,,,,,,0,0,0,1,0,212,212,184,509.525545879,8.98004509509e-06,510.443689829,0.918153892271,,,,x,1,0.900451186928,2018_Nov_14_1402,59.991726582,spanish_cond2,001,1018,
images/candle08a.jpg,screw driver,x,sounds/animalfarm_english.wav,,,,,,,,,0,0,0,1,0,213,213,221,511.558281949,9.30076930672e-06,512.410845998,0.852573670563,,,,x,1,0.833793992177,2018_Nov_14_1402,59.991726582,spanish_cond2,001,1018,
images/worldmap.jpg,scooter,x,sounds/animalfarm_english.wav,,,,,,,,,0,0,0,1,0,214,214,220,513.542986878,8.98016151041e-06,514.311312579,0.768335322849,,,,x,1,0.750446600607,2018_Nov_14_1402,59.991726582,spanish_cond2,001,1018,
images/marker01a.jpg,marker,z,sounds/animalfarm_english.wav,,,,,,,,,0,0,0,1,0,215,215,95,515.412543562,9.30088572204e-06,516.095064525,0.682530906051,,,,z,1,0.667060081498,2018_Nov_14_1402,59.991726582,spanish_cond2,001,1018,
images/licenseplate.jpg,license plate,z,sounds/animalfarm_english.wav,,,,,,,,,0,0,0,1,0,216,216,40,517.213290066,9.30088572204e-06,517.995527258,0.782247454976,,,,z,1,0.767102480517,2018_Nov_14_1402,59.991726582,spanish_cond2,001,1018,
images/axe01.jpg,axe,z,sounds/animalfarm_english.wav,,,,,,,,,0,0,0,1,0,217,217,104,519.100509365,9.94221772999e-06,519.812666653,0.712167230318,,,,z,1,0.700435343431,2018_Nov_14_1402,59.991726582,spanish_cond2,001,1018,
images/lollipop03b.jpg,lollipop,z,sounds/animalfarm_english.wav,,,,,,,,,0,0,0,1,0,218,218,42,520.907716105,1.02630583569e-05,521.713100201,0.805394679541,,,,z,1,0.78376798192,2018_Nov_14_1402,59.991726582,spanish_cond2,001,1018,
images/teapot.jpg,light switch,x,sounds/animalfarm_english.wav,,,,,,,,,0,0,0,1,0,219,219,197,522.830723432,9.30088572204e-06,523.696923475,0.866210626205,,,,x,1,0.850463662879,2018_Nov_14_1402,59.991726582,spanish_cond2,001,1018,
images/pineapple01a.jpg,pineapple,z,sounds/animalfarm_english.wav,,,,,,,,,0,0,0,1,0,220,220,51,524.811117903,9.30088572204e-06,525.747249357,0.936141716549,,,,z,1,0.916971082101,2018_Nov_14_1402,59.991726582,spanish_cond2,001,1018,
images/bottleofredwine02.jpg,pipe,x,sounds/animalfarm_english.wav,,,,,,,,,0,0,0,1,0,221,221,213,526.847405932,8.98016151041e-06,527.597882038,0.750486049103,,,,x,1,0.733776288456,2018_Nov_14_1402,59.991726582,spanish_cond2,001,1018,
images/cupcake.jpg,scissors,x,sounds/animalfarm_english.wav,,,,,,,,,0,0,0,1,0,222,222,219,528.717342025,1.02629419416e-05,529.49833098,0.780999538838,,,,x,1,0.767102801241,2018_Nov_14_1402,59.991726582,spanish_cond2,001,1018,
images/paintbrush03a.jpg,paint brush,z,sounds/animalfarm_english.wav,,,,,,,,,0,0,0,1,0,223,223,0,530.599642463,8.65932088345e-06,531.248740057,0.649106894853,,,,z,1,0.633719136356,2018_Nov_14_1402,59.991726582,spanish_cond2,001,1018,
images/apple06.jpg,apple,z,sounds/animalfarm_english.wav,,,,,,,,,0,0,0,1,0,224,224,13,532.376574007,9.30088572204e-06,532.965845392,0.589282289497,,,,z,1,0.567059055204,2018_Nov_14_1402,59.991726582,spanish_cond2,001,1018,
images/electrictoothbrush01a.jpg,banjo,x,sounds/animalfarm_english.wav,,,,,,,,,0,0,0,1,0,225,225,127,534.061923709,9.62149351835e-06,534.966326791,0.904413023964,,,,x,1,0.883784402744,2018_Nov_14_1402,59.991726582,spanish_cond2,001,1018,
images/butterfly.jpg,butterfly,z,sounds/animalfarm_english.wav,,,,,,,,,0,0,0,1,0,226,226,91,536.075245719,8.98004509509e-06,537.066675476,0.991440020152,,,,z,1,0.96698875376,2018_Nov_14_1402,59.991726582,spanish_cond2,001,1018,
images/flamingo.jpg,flamingo,z,sounds/animalfarm_english.wav,,,,,,,,,0,0,0,1,0,227,227,52,538.165913192,9.62149351835e-06,538.833933825,0.66803089669,,,,z,1,0.650400032289,2018_Nov_14_1402,59.991726582,spanish_cond2,001,1018,
images/squirrel.jpg,binder,x,sounds/animalfarm_english.wav,,,,,,,,,0,0,0,1,0,228,228,132,539.93783479,9.94233414531e-06,540.717734906,0.779910378391,,,,x,1,0.767106649815,2018_Nov_14_1402,59.991726582,spanish_cond2,001,1018,
images/computerkeyboard01a.jpg,computer keyboard,z,sounds/animalfarm_english.wav,,,,,,,,,0,0,0,1,0,229,229,61,541.835059227,9.94233414531e-06,542.718216304,0.883168302244,,,,z,1,0.867133333581,2018_Nov_14_1402,59.991726582,spanish_cond2,001,1018,
images/bullet (2).jpg,rubber glove,x,sounds/animalfarm_english.wav,,,,,,,,,0,0,0,1,0,230,230,217,543.823930291,9.94233414531e-06,545.26883821,1.44491786079,,,,x,1,1.43393196526,2018_Nov_14_1402,59.991726582,spanish_cond2,001,1018,
images/lamp04b.jpg,parking meter,x,sounds/animalfarm_english.wav,,,,,,,,,0,0,0,1,0,231,231,209,546.391578827,9.30088572204e-06,547.569464445,1.17789523921,,,,x,1,1.16727175587,2018_Nov_14_1402,59.991726582,spanish_cond2,001,1018,
images/fork01.jpg,cooking pot,x,sounds/animalfarm_english.wav,,,,,,,,,0,0,0,1,0,232,232,160,548.665503955,9.94233414531e-06,549.419867171,0.754373158677,,,,x,1,0.733781420044,2018_Nov_14_1402,59.991726582,spanish_cond2,001,1018,
images/scooter.jpg,pen,x,sounds/animalfarm_english.wav,,,,,,,,,0,0,0,1,0,233,233,212,550.513414377,8.98016151041e-06,551.470370732,0.956966617727,,,,x,1,0.933837032644,2018_Nov_14_1402,59.991726582,spanish_cond2,001,1018,
images/icecube02 (2).jpg,aloe,x,sounds/animalfarm_english.wav,,,,,,,,,0,0,0,1,0,234,234,122,552.581894536,1.02630583569e-05,553.570845139,0.988961506751,,,,x,1,0.967140774359,2018_Nov_14_1402,59.991726582,spanish_cond2,001,1018,
images/egg01b (1).jpg,egg,z,sounds/animalfarm_english.wav,,,,,,,,,0,0,0,1,0,235,235,19,554.684307366,8.98004509509e-06,555.271273426,0.586976001854,,,,z,1,0.567050075042,2018_Nov_14_1402,59.991726582,spanish_cond2,001,1018,
images/tape01a.jpg,tie,x,sounds/animalfarm_english.wav,,,,,,,,,0,0,0,1,0,236,236,232,556.489784471,9.62160993367e-06,557.238429274,0.7486553872,,,,x,1,0.733763138996,2018_Nov_14_1402,59.991726582,spanish_cond2,001,1018,
images/cola.jpg,comb,x,sounds/animalfarm_english.wav,,,,,,,,,0,0,0,1,0,237,237,157,558.360260654,8.98004509509e-06,559.072250848,0.712000135914,,,,x,1,0.700469018891,2018_Nov_14_1402,59.991726582,spanish_cond2,001,1018,
images/electricguitar02.jpg,electric guitar,z,sounds/animalfarm_english.wav,,,,,,,,,0,0,0,1,0,238,238,100,560.175253801,9.30076930672e-06,560.822627532,0.647384956595,,,,z,1,0.63374447322,2018_Nov_14_1402,59.991726582,spanish_cond2,001,1018,
images/dragonfly02.jpg,dragon fly,z,sounds/animalfarm_english.wav,,,,,,,,,0,0,0,1,0,239,239,29,561.921259411,9.62160993367e-06,562.889793707,0.96854455967,,,,z,1,0.950473027886,2018_Nov_14_1402,59.991726582,spanish_cond2,001,1018,
,,,sounds/animalfarm_english.wav,,,,,,,,,0,0,0,1,,,,,,,,,,,,,,,2018_Nov_14_1402,59.991726582,spanish_cond2,001,1018,
images/bracelet02a.jpg,chess knight,x,sounds/greatgatsby_spanish.wav,,,,,,,,,0,1,1,0,0,0,0,152,584.024404442,9.62149351835e-06,585.895427451,1.87103391346,,,573.892654517,x,1,1.85073659441,2018_Nov_14_1402,59.991726582,spanish_cond2,001,1018,
images/aquarium.jpg,computer mouse,x,sounds/greatgatsby_spanish.wav,,,,,,,,,0,1,1,0,0,1,1,159,587.030040109,8.98016151041e-06,588.012606166,0.982575999107,,,,x,1,0.967182147084,2018_Nov_14_1402,59.991726582,spanish_cond2,001,1018,
images/flamingo.jpg,flamingo,z,sounds/greatgatsby_spanish.wav,,,,,,,,,0,1,1,0,0,2,2,52,589.109761135,9.30088572204e-06,589.679647966,0.569896773552,,,,z,1,0.550386177259,2018_Nov_14_1402,59.991726582,spanish_cond2,001,1018,
images/floorlamp.jpg,floor lamp,z,sounds/greatgatsby_spanish.wav,,,,,,,,,0,1,1,0,0,3,3,26,590.771561752,9.62160993367e-06,591.330047678,0.55849586823,,,,z,1,0.550385215203,2018_Nov_14_1402,59.991726582,spanish_cond2,001,1018,
images/hairdryer03a.jpg,hairdryer,z,sounds/greatgatsby_spanish.wav,,,,,,,,,0,1,1,0,0,4,4,119,592.428810089,9.94233414531e-06,593.080495241,0.65169573552,,,,z,1,0.633750566863,2018_Nov_14_1402,59.991726582,spanish_cond2,001,1018,
images/skateboard.jpg,key,x,sounds/greatgatsby_spanish.wav,,,,,,,,,0,1,1,0,0,5,5,189,594.170957454,9.30076930672e-06,594.847567253,0.676620061975,,,,x,1,0.667076758808,2018_Nov_14_1402,59.991726582,spanish_cond2,001,1018,
images/handbag02a.jpg,candle,x,sounds/greatgatsby_spanish.wav,,,,,,,,,0,1,1,0,0,6,6,144,595.96266707,9.62160993367e-06,596.764716013,0.802060488844,,,,x,1,0.783787545748,2018_Nov_14_1402,59.991726582,spanish_cond2,001,1018,
images/diaper01a.jpg,camera,x,sounds/greatgatsby_spanish.wav,,,,,,,,,0,1,1,0,0,7,7,143,597.883862658,9.30076930672e-06,598.515141126,0.631289051496,,,,x,1,0.617075764691,2018_Nov_14_1402,59.991726582,spanish_cond2,001,1018,
images/lettuce.jpg,mushroom,x,sounds/greatgatsby_spanish.wav,,,,,,,,,0,1,1,0,0,8,8,205,599.638312468,9.62160993367e-06,600.398923283,0.76062107808,,,,x,1,0.750433130423,2018_Nov_14_1402,59.991726582,spanish_cond2,001,1018,
images/bowtie.jpg,bowtie,z,sounds/greatgatsby_spanish.wav,,,,,,,,,0,1,1,0,0,9,9,89,601.508580506,9.30076930672e-06,602.165861877,0.657290992443,,,,z,1,0.633575133746,2018_Nov_14_1402,59.991726582,spanish_cond2,001,1018,
images/swallow.jpg,mattress,x,sounds/greatgatsby_spanish.wav,,,,,,,,,0,1,1,0,0,10,10,202,603.267279838,9.62160993367e-06,604.049805356,0.782535460312,,,,x,1,0.767093500355,2018_Nov_14_1402,59.991726582,spanish_cond2,001,1018,
images/doorhandle.jpg,doll,x,sounds/greatgatsby_spanish.wav,,,,,,,,,0,1,1,0,0,11,11,168,605.152214979,9.62160993367e-06,605.933637225,0.781432508957,,,,x,1,0.767122685793,2018_Nov_14_1402,59.991726582,spanish_cond2,001,1018,
images/computermouse02a.jpg,world map,x,sounds/greatgatsby_spanish.wav,,,,,,,,,0,1,1,0,0,12,12,239,607.035173531,9.62149351835e-06,607.750707345,0.715544397361,,,,x,1,0.700418345397,2018_Nov_14_1402,59.991726582,spanish_cond2,001,1018,
images/lip.jpg,boxing glove,x,sounds/greatgatsby_spanish.wav,,,,,,,,,0,1,1,0,0,13,13,136,608.853542882,9.30076930672e-06,609.41780495,0.564272331074,,,,x,1,0.550399968168,2018_Nov_14_1402,59.991726582,spanish_cond2,001,1018,
images/spoon02b.jpg,spoon,z,sounds/greatgatsby_spanish.wav,,,,,,,,,0,1,1,0,0,14,14,38,610.508428485,8.98016151041e-06,611.085097232,0.576678368729,,,,z,1,0.567291255458,2018_Nov_14_1402,59.991726582,spanish_cond2,001,1018,
images/sportshorts02.jpg,tape,x,sounds/greatgatsby_spanish.wav,,,,,,,,,0,1,1,0,0,15,15,230,612.192206987,9.94233414531e-06,612.835294314,0.643097590189,,,,x,1,0.633748642635,2018_Nov_14_1402,59.991726582,spanish_cond2,001,1018,
images/chessknight02b (1).jpg,cockroach,x,sounds/greatgatsby_spanish.wav,,,,,,,,,0,1,1,0,0,16,16,155,613.944209714,9.30076930672e-06,614.835777316,0.891577864997,,,,x,1,0.867132692249,2018_Nov_14_1402,59.991726582,spanish_cond2,001,1018,
images/treadmill.jpg,lily,x,sounds/greatgatsby_spanish.wav,,,,,,,,,0,1,1,0,0,17,17,199,615.941851791,3.14303906634e-05,616.769575862,0.82773914549,,,,x,1,0.817114699865,2018_Nov_14_1402,59.991726582,spanish_cond2,001,1018,
images/plate01b.jpg,plate,z,sounds/greatgatsby_spanish.wav,,,,,,,,,0,1,1,0,0,18,18,3,617.870526537,9.30076930672e-06,618.503322966,0.632806691923,,,,z,1,0.617057804368,2018_Nov_14_1402,59.991726582,spanish_cond2,001,1018,
images/croissant02b.jpg,croissant,z,sounds/greatgatsby_spanish.wav,,,,,,,,,0,1,1,0,0,19,19,39,619.614514506,1.05836661533e-05,620.287106021,0.672602740582,,,,z,1,0.650419596233,2018_Nov_14_1402,59.991726582,spanish_cond2,001,1018,
images/umbrella01.jpg,umbrella,z,sounds/greatgatsby_spanish.wav,,,,,,,,,0,1,1,0,0,20,20,53,621.399634958,9.94221772999e-06,621.987519235,0.587894539931,,,,z,1,0.567063224502,2018_Nov_14_1402,59.991726582,spanish_cond2,001,1018,
images/lychee02a.jpg,lychee,z,sounds/greatgatsby_spanish.wav,,,,,,,,,0,1,1,0,0,21,21,62,623.111428551,9.62160993367e-06,624.454793428,1.34337546083,,,,z,1,1.33392516605,2018_Nov_14_1402,59.991726582,spanish_cond2,001,1018,
images/desktopcomputer.jpg,desktop computer,z,sounds/greatgatsby_spanish.wav,,,,,,,,,0,1,1,0,0,22,22,16,625.590549769,9.30076930672e-06,626.18854438,0.598004552885,,,,z,1,0.583722632262,2018_Nov_14_1402,59.991726582,spanish_cond2,001,1018,
images/cat.jpg,black olive,x,sounds/greatgatsby_spanish.wav,,,,,,,,,0,1,1,0,0,23,23,133,627.318881539,9.30088572204e-06,628.08902347,0.770152193843,,,,x,1,0.750460070907,2018_Nov_14_1402,59.991726582,spanish_cond2,001,1018,
images/remotecontrol01c.jpg,remote control,z,sounds/greatgatsby_spanish.wav,,,,,,,,,0,1,1,0,0,24,24,85,629.199128736,8.65943729877e-06,630.022864351,0.823745877948,,,,z,1,0.800498268334,2018_Nov_14_1402,59.991726582,spanish_cond2,001,1018,
images/printer03a.jpg,printer,z,sounds/greatgatsby_spanish.wav,,,,,,,,,0,1,1,0,0,25,25,72,631.131634465,9.30088572204e-06,631.956612544,0.82498834189,,,,z,1,0.817125604372,2018_Nov_14_1402,59.991726582,spanish_cond2,001,1018,
images/bus.jpg,microphone,x,sounds/greatgatsby_spanish.wav,,,,,,,,,0,1,1,0,0,26,26,203,633.075489785,9.30088572204e-06,633.823742671,0.748263148358,,,,x,1,0.733776930021,2018_Nov_14_1402,59.991726582,spanish_cond2,001,1018,
images/weight01.jpg,weight,z,sounds/greatgatsby_spanish.wav,,,,,,,,,0,1,1,0,0,27,27,67,634.928509896,9.94233414531e-06,635.524151074,0.595651440439,,,,z,1,0.583741875365,2018_Nov_14_1402,59.991726582,spanish_cond2,001,1018,
images/volleyball.jpg,volley ball,z,sounds/greatgatsby_spanish.wav,,,,,,,,,0,1,1,0,0,28,28,2,636.657171364,9.62160993367e-06,637.891391848,1.23423106747,,,,z,1,1.21722111432,2018_Nov_14_1402,59.991726582,spanish_cond2,001,1018,
images/beachumbrella01.jpg,beach umbrella,z,sounds/greatgatsby_spanish.wav,,,,,,,,,0,1,1,0,0,29,29,92,638.997682487,9.30088572204e-06,639.575129939,0.577457394218,,,,z,1,0.567062262329,2018_Nov_14_1402,59.991726582,spanish_cond2,001,1018,
images/banjo.jpg,knife,x,sounds/greatgatsby_spanish.wav,,,,,,,,,0,1,1,0,0,30,30,191,640.672175543,9.62160993367e-06,641.408906933,0.736741332104,,,,x,1,0.717092506122,2018_Nov_14_1402,59.991726582,spanish_cond2,001,1018,
images/ruler02b.jpg,watermelon,x,sounds/greatgatsby_spanish.wav,,,,,,,,,0,1,1,0,0,31,31,238,642.511281277,9.62160993367e-06,643.292701599,0.781430905336,,,,x,1,0.767100556171,2018_Nov_14_1402,59.991726582,spanish_cond2,001,1018,
images/djmixer01.jpg,light bulb,x,sounds/greatgatsby_spanish.wav,,,,,,,,,0,1,1,0,0,32,32,196,644.414061844,9.30076930672e-06,645.193170746,0.779119165498,,,,x,1,0.767111781286,2018_Nov_14_1402,59.991726582,spanish_cond2,001,1018,
images/sock03.jpg,sock,z,sounds/greatgatsby_spanish.wav,,,,,,,,,0,1,1,0,0,33,33,90,646.299284028,1.02629419416e-05,646.89357947,0.594306025887,,,,z,1,0.583730008802,2018_Nov_14_1402,59.991726582,spanish_cond2,001,1018,
images/battery03b.jpg,battery,z,sounds/greatgatsby_spanish.wav,,,,,,,,,0,1,1,0,0,34,34,34,648.002957988,9.94221772999e-06,648.727357426,0.724409380578,,,,z,1,0.700421552523,2018_Nov_14_1402,59.991726582,spanish_cond2,001,1018,
images/baseball01a.jpg,baseball,z,sounds/greatgatsby_spanish.wav,,,,,,,,,0,1,1,0,0,35,35,74,649.859920693,9.94221772999e-06,650.67782853,0.817917779204,,,,z,1,0.800441821921,2018_Nov_14_1402,59.991726582,spanish_cond2,001,1018,
images/screw03c.jpg,screw,z,sounds/greatgatsby_spanish.wav,,,,,,,,,0,1,1,0,0,36,36,84,651.772307423,9.62149351835e-06,652.328223431,0.555926591274,,,,z,1,0.533707526396,2018_Nov_14_1402,59.991726582,spanish_cond2,001,1018,
images/headphones02b.jpg,headphones,z,sounds/greatgatsby_spanish.wav,,,,,,,,,0,1,1,0,0,37,37,101,653.436248195,9.30088572204e-06,654.228698992,0.792461059988,,,,z,1,0.783776320633,2018_Nov_14_1402,59.991726582,spanish_cond2,001,1018,
images/grasshopper.jpg,cauliflower,x,sounds/greatgatsby_spanish.wav,,,,,,,,,0,1,1,0,0,38,38,148,655.321836961,9.30088572204e-06,655.862428392,0.54060073162,,,,z,0,0.517042345717,2018_Nov_14_1402,59.991726582,spanish_cond2,001,1018,
images/lightswitch02a.jpg,fork,x,sounds/greatgatsby_spanish.wav,,,,,,,,,0,1,1,0,0,39,39,177,656.974664512,9.30076930672e-06,657.779558229,0.804903338547,,,,x,1,0.783775999909,2018_Nov_14_1402,59.991726582,spanish_cond2,001,1018,
images/orange.jpg,bat,x,sounds/greatgatsby_spanish.wav,,,,,,,,,0,1,1,0,0,40,40,128,658.904369406,9.30076930672e-06,659.580024105,0.67566496192,,,,x,1,0.667101133498,2018_Nov_14_1402,59.991726582,spanish_cond2,001,1018,
images/safe.jpg,safe,z,sounds/greatgatsby_spanish.wav,,,,,,,,,0,1,1,0,0,41,41,78,660.690931168,1.02629419416e-05,661.41377448,0.722853895277,,,,z,1,0.700418345281,2018_Nov_14_1402,59.991726582,spanish_cond2,001,1018,
images/birthdaycandle.jpg,birthday candle,z,sounds/greatgatsby_spanish.wav,,,,,,,,,0,1,1,0,0,42,42,55,662.509905394,8.98016151041e-06,663.530974042,1.02113984677,,,,z,1,1.00050705613,2018_Nov_14_1402,59.991726582,spanish_cond2,001,1018,
images/puzzle.jpg,puzzle,z,sounds/greatgatsby_spanish.wav,,,,,,,,,0,1,1,0,0,43,43,57,664.652175851,9.30088572204e-06,665.26471024,0.61254433135,,,,z,1,0.600394868758,2018_Nov_14_1402,59.991726582,spanish_cond2,001,1018,
images/blueberry02.jpg,blueberry,z,sounds/greatgatsby_spanish.wav,,,,,,,,,0,1,1,0,0,44,44,46,666.378075291,9.30088572204e-06,666.965131793,0.587066123844,,,,z,1,0.567059055204,2018_Nov_14_1402,59.991726582,spanish_cond2,001,1018,
images/table02.jpg,table,z,sounds/greatgatsby_spanish.wav,,,,,,,,,0,1,1,0,0,45,45,49,668.079649506,9.62149351835e-06,668.698882103,0.619243180961,,,,z,1,0.600391661515,2018_Nov_14_1402,59.991726582,spanish_cond2,001,1018,
images/scissors04a.jpg,leek,x,sounds/greatgatsby_spanish.wav,,,,,,,,,0,1,1,0,0,46,46,194,669.792655415,9.62149351835e-06,670.499314945,0.706670433981,,,,x,1,0.683739694534,2018_Nov_14_1402,59.991726582,spanish_cond2,001,1018,
images/bottleofredwine02.jpg,pipe,x,sounds/greatgatsby_spanish.wav,,,,,,,,,0,1,1,0,0,47,47,213,671.597632519,9.94233414531e-06,672.483143992,0.885521735414,,,,x,1,0.867133654305,2018_Nov_14_1402,59.991726582,spanish_cond2,001,1018,
images/microphone01.jpg,diaper,x,sounds/greatgatsby_spanish.wav,,,,,,,,,0,1,1,0,0,48,48,164,673.582529559,9.30088572204e-06,674.333584563,0.751064946176,,,,x,1,0.733752876054,2018_Nov_14_1402,59.991726582,spanish_cond2,001,1018,
images/axe01.jpg,axe,z,sounds/greatgatsby_spanish.wav,,,,,,,,,0,1,1,0,0,49,49,104,675.436120549,9.62160993367e-06,676.167373424,0.731263458147,,,,z,1,0.717099561938,2018_Nov_14_1402,59.991726582,spanish_cond2,001,1018,
images/pictureframe04.jpg,picture frame,z,sounds/greatgatsby_spanish.wav,,,,,,,,,0,1,1,0,0,50,50,41,677.289540276,9.30088572204e-06,678.151183548,0.861652893946,,,,z,1,0.850428383797,2018_Nov_14_1402,59.991726582,spanish_cond2,001,1018,
images/parkfountain.jpg,park fountain,z,sounds/greatgatsby_spanish.wav,,,,,,,,,0,1,1,0,0,51,51,93,679.271653798,9.62149351835e-06,679.951621842,0.679978627246,,,,z,1,0.667073872406,2018_Nov_14_1402,59.991726582,spanish_cond2,001,1018,
images/dresser02.jpg,dresser,z,sounds/greatgatsby_spanish.wav,,,,,,,,,0,1,1,0,0,52,52,87,681.073787732,9.62160993367e-06,681.78540525,0.71162778174,,,,z,1,0.7004170625,2018_Nov_14_1402,59.991726582,spanish_cond2,001,1018,
images/magnifyingglass01b.jpg,magnifying glass,z,sounds/greatgatsby_spanish.wav,,,,,,,,,0,1,1,0,0,53,53,64,682.892519816,8.98016151041e-06,683.519160051,0.626650177408,,,,z,1,0.617066143081,2018_Nov_14_1402,59.991726582,spanish_cond2,001,1018,
images/carrot02.jpg,corkscrew,x,sounds/greatgatsby_spanish.wav,,,,,,,,,0,1,1,0,0,54,54,161,684.621396165,9.62160993367e-06,685.336269298,0.714883075561,,,,x,1,0.700419948902,2018_Nov_14_1402,59.991726582,spanish_cond2,001,1018,
images/fireextinguisher02.jpg,fire extinguisher,z,sounds/greatgatsby_spanish.wav,,,,,,,,,0,1,1,0,0,55,55,175,686.446651666,9.30076930672e-06,687.136726836,0.690085432958,,,,z,1,0.667094398406,2018_Nov_14_1402,59.991726582,spanish_cond2,001,1018,
images/8ball.jpg,nail clipper,x,sounds/greatgatsby_spanish.wav,,,,,,,,,0,1,1,0,0,56,56,206,688.252252888,9.94221772999e-06,688.953810426,0.701567800832,,,,x,1,0.683740656707,2018_Nov_14_1402,59.991726582,spanish_cond2,001,1018,
images/cookingpot.jpg,grasshopper,x,sounds/greatgatsby_spanish.wav,,,,,,,,,0,1,1,0,0,57,57,183,690.068302481,9.30076930672e-06,690.82094408,0.752651861869,,,,x,1,0.733761214651,2018_Nov_14_1402,59.991726582,spanish_cond2,001,1018,
images/pingpongpaddle01c (1).jpg,ping pong paddle,z,sounds/greatgatsby_spanish.wav,,,,,,,,,0,1,1,0,0,58,58,10,691.932700406,9.62160993367e-06,692.888127574,0.955437431345,,,,z,1,0.93383318407,2018_Nov_14_1402,59.991726582,spanish_cond2,001,1018,
images/nailpolish02b.jpg,nail polish,z,sounds/greatgatsby_spanish.wav,,,,,,,,,0,1,1,0,0,59,59,94,693.996993263,9.30076930672e-06,694.688592488,0.69160884642,,,,z,1,0.667127432418,2018_Nov_14_1402,59.991726582,spanish_cond2,001,1018,
images/cockroach02.jpg,belt,x,sounds/greatgatsby_spanish.wav,,,,,,,,,0,1,1,0,0,60,60,129,695.78789082,9.62149351835e-06,696.505667419,0.717786861933,,,,x,1,0.700438871398,2018_Nov_14_1402,59.991726582,spanish_cond2,001,1018,
images/cupcake.jpg,scissors,x,sounds/greatgatsby_spanish.wav,,,,,,,,,0,1,1,0,0,61,61,219,697.625265314,9.62149351835e-06,698.239246786,0.613991734455,,,,x,1,0.600223284331,2018_Nov_14_1402,59.991726582,spanish_cond2,001,1018,
images/medal01.jpg,medal,z,sounds/greatgatsby_spanish.wav,,,,,,,,,0,1,1,0,0,62,62,115,699.340965581,9.94221772999e-06,699.939820359,0.598865361651,,,,z,1,0.58372551878,2018_Nov_14_1402,59.991726582,spanish_cond2,001,1018,
images/watermelon01.jpg,orange,x,sounds/greatgatsby_spanish.wav,,,,,,,,,0,1,1,0,0,63,63,207,701.07431788,9.62149351835e-06,701.706933423,0.632625806611,,,,x,1,0.617056200746,2018_Nov_14_1402,59.991726582,spanish_cond2,001,1018,
images/antelope.jpg,antelope,z,sounds/greatgatsby_spanish.wav,,,,,,,,,0,1,1,0,0,64,64,12,702.810957865,9.62160993367e-06,703.590712053,0.77976477216,,,,z,1,0.767111139954,2018_Nov_14_1402,59.991726582,spanish_cond2,001,1018,
images/paintbrush03a.jpg,paint brush,z,sounds/greatgatsby_spanish.wav,,,,,,,,,0,1,1,0,0,65,65,0,704.691391399,9.94221772999e-06,705.324472306,0.633092131582,,,,z,1,0.61706453946,2018_Nov_14_1402,59.991726582,spanish_cond2,001,1018,
images/pipe.jpg,icecube,x,sounds/greatgatsby_spanish.wav,,,,,,,,,0,1,1,0,0,66,66,188,706.433803678,9.62149351835e-06,707.10854946,0.674755724613,,,,x,1,0.650724920328,2018_Nov_14_1402,59.991726582,spanish_cond2,001,1018,
images/cocktailshrimp01.jpg,cocktail shrimp,z,sounds/greatgatsby_spanish.wav,,,,,,,,,0,1,1,0,0,67,67,30,708.223862235,9.94233414531e-06,708.9253428,0.701491149142,,,,z,1,0.683751561097,2018_Nov_14_1402,59.991726582,spanish_cond2,001,1018,
images/teapot.jpg,light switch,x,sounds/greatgatsby_spanish.wav,,,,,,,,,0,1,1,0,0,68,68,197,710.04267963,9.30088572204e-06,710.992508013,0.949838646455,,,,x,1,0.933802715736,2018_Nov_14_1402,59.991726582,spanish_cond2,001,1018,
images/donut.jpg,rhinoceros,x,sounds/greatgatsby_spanish.wav,,,,,,,,,0,1,1,0,0,69,69,216,712.118576728,9.62149351835e-06,713.176381768,1.05781530321,,,,x,1,1.03383421025,2018_Nov_14_1402,59.991726582,spanish_cond2,001,1018,
images/aloe02.jpg,broad sword,x,sounds/greatgatsby_spanish.wav,,,,,,,,,0,1,1,0,0,70,70,137,714.297226618,9.30088572204e-06,715.143532485,0.84631580906,,,,x,1,0.833796878695,2018_Nov_14_1402,59.991726582,spanish_cond2,001,1018,
images/belt02a.jpg,snowman,x,sounds/greatgatsby_spanish.wav,,,,,,,,,0,1,1,0,0,71,71,224,716.247488934,9.30076930672e-06,716.960629224,0.713150232914,,,,x,1,0.700415779604,2018_Nov_14_1402,59.991726582,spanish_cond2,001,1018,
images/seagull.jpg,seagull,z,sounds/greatgatsby_spanish.wav,,,,,,,,,0,1,1,0,0,72,72,50,718.069035644,9.30076930672e-06,718.844412665,0.775387283764,,,,z,1,0.767077785102,2018_Nov_14_1402,59.991726582,spanish_cond2,001,1018,
images/banana04a.jpg,banana,z,sounds/greatgatsby_spanish.wav,,,,,,,,,0,1,1,0,0,73,73,118,719.950060263,9.30076930672e-06,720.578326221,0.628276220756,,,,z,1,0.617209824966,2018_Nov_14_1402,59.991726582,spanish_cond2,001,1018,
images/cola.jpg,comb,x,sounds/greatgatsby_spanish.wav,,,,,,,,,0,1,1,0,0,74,74,157,721.699461,9.94233414531e-06,722.695356444,0.995905706193,,,,x,1,0.983816859429,2018_Nov_14_1402,59.991726582,spanish_cond2,001,1018,
images/flipflop01b.jpg,flip flop,z,sounds/greatgatsby_spanish.wav,,,,,,,,,0,1,1,0,0,75,75,27,723.812644524,9.62160993367e-06,724.479134368,0.666499786079,,,,z,1,0.650411578245,2018_Nov_14_1402,59.991726582,spanish_cond2,001,1018,
images/rhinoceros01.jpg,envelope,x,sounds/greatgatsby_spanish.wav,,,,,,,,,0,1,1,0,0,76,76,173,725.591488192,9.62160993367e-06,726.262890804,0.671412553871,,,,x,1,0.650402598083,2018_Nov_14_1402,59.991726582,spanish_cond2,001,1018,
images/bull.jpg,button,x,sounds/greatgatsby_spanish.wav,,,,,,,,,0,1,1,0,0,77,77,141,727.369590359,9.30088572204e-06,728.063325249,0.693744832417,,,,x,1,0.683745146729,2018_Nov_14_1402,59.991726582,spanish_cond2,001,1018,
images/razor04a.jpg,razor,z,sounds/greatgatsby_spanish.wav,,,,,,,,,0,1,1,0,0,78,78,36,729.163125826,9.94221772999e-06,729.730403612,0.567288048216,,,,z,1,0.550379121443,2018_Nov_14_1402,59.991726582,spanish_cond2,001,1018,
images/backpack01b.jpg,swallow,x,sounds/greatgatsby_spanish.wav,,,,,,,,,0,1,1,0,0,79,79,228,730.861115049,8.98016151041e-06,731.580861181,0.719756394974,,,,x,1,0.700416421052,2018_Nov_14_1402,59.991726582,spanish_cond2,001,1018,
images/acousticguitar02.jpg,acoustic guitar,z,sounds/greatgatsby_spanish.wav,,,,,,,,,0,1,1,0,0,80,80,97,732.693887232,9.30076930672e-06,733.464646866,0.7707692564,,,,z,1,0.750434413319,2018_Nov_14_1402,59.991726582,spanish_cond2,001,1018,
images/feather03b.jpg,feather,z,sounds/greatgatsby_spanish.wav,,,,,,,,,0,1,1,0,0,81,81,114,734.565817874,9.30088572204e-06,735.31509321,0.749285599333,,,,z,1,0.733758007525,2018_Nov_14_1402,59.991726582,spanish_cond2,001,1018,
images/radish01.jpg,raisin,x,sounds/greatgatsby_spanish.wav,,,,,,,,,0,1,1,0,0,82,82,214,736.426135616,9.30088572204e-06,737.148867318,0.722741643898,,,,x,1,0.700410327408,2018_Nov_14_1402,59.991726582,spanish_cond2,001,1018,
images/mattress.jpg,cat,x,sounds/greatgatsby_spanish.wav,,,,,,,,,0,1,1,0,0,83,83,147,738.254540253,8.98016151041e-06,739.166065854,0.911536505097,,,,x,1,0.900497049675,2018_Nov_14_1402,59.991726582,spanish_cond2,001,1018,
images/worldmap.jpg,scooter,x,sounds/greatgatsby_spanish.wav,,,,,,,,,0,1,1,0,0,84,84,220,740.297674662,9.62160993367e-06,741.016666784,0.719002064783,,,,x,1,0.70058736403,2018_Nov_14_1402,59.991726582,spanish_cond2,001,1018,
images/mitten01.jpg,mitten,z,sounds/greatgatsby_spanish.wav,,,,,,,,,0,1,1,0,0,85,85,102,742.137685143,9.30088572204e-06,742.766957195,0.629282315145,,,,z,1,0.617113288725,2018_Nov_14_1402,59.991726582,spanish_cond2,001,1018,
images/handfan01b.jpg,handfan,z,sounds/greatgatsby_spanish.wav,,,,,,,,,0,1,1,0,0,86,86,69,743.882082349,9.30076930672e-06,744.734061407,0.85198900057,,,,z,1,0.833780842717,2018_Nov_14_1402,59.991726582,spanish_cond2,001,1018,
images/hand01a.jpg,cupcake,x,sounds/greatgatsby_spanish.wav,,,,,,,,,0,1,1,0,0,87,87,163,745.846232102,9.30088572204e-06,746.60140385,0.75518329395,,,,x,1,0.733977379045,2018_Nov_14_1402,59.991726582,spanish_cond2,001,1018,
images/eraser.jpg,eraser,z,sounds/greatgatsby_spanish.wav,,,,,,,,,0,1,1,0,0,88,88,110,747.708524188,9.30076930672e-06,748.401616358,0.693102112273,,,,z,1,0.683746108902,2018_Nov_14_1402,59.991726582,spanish_cond2,001,1018,
images/cherry01.jpg,highlighter,x,sounds/greatgatsby_spanish.wav,,,,,,,,,0,1,1,0,0,89,89,187,749.511054209,9.30088572204e-06,750.268737504,0.757693237741,,,,x,1,0.733756083297,2018_Nov_14_1402,59.991726582,spanish_cond2,001,1018,
images/lightbulb03b.jpg,treadmill,x,sounds/greatgatsby_spanish.wav,,,,,,,,,0,1,1,0,0,90,90,234,751.371695877,9.62160993367e-06,752.069177722,0.697492429521,,,,x,1,0.683706339798,2018_Nov_14_1402,59.991726582,spanish_cond2,001,1018,
images/coin01b.jpg,arrow,x,sounds/greatgatsby_spanish.wav,,,,,,,,,0,1,1,0,0,91,91,124,753.17244174,9.94233414531e-06,753.919628236,0.747197079705,,,,z,0,0.733750310377,2018_Nov_14_1402,59.991726582,spanish_cond2,001,1018,
images/comb02a.jpg,diploma,x,sounds/greatgatsby_spanish.wav,,,,,,,,,0,1,1,0,0,92,92,166,755.024416308,9.30088572204e-06,755.770083881,0.745677514817,,,,x,1,0.733760894043,2018_Nov_14_1402,59.991726582,spanish_cond2,001,1018,
images/graduationcap.jpg,graduation cap,z,sounds/greatgatsby_spanish.wav,,,,,,,,,0,1,1,0,0,93,93,35,756.872594851,9.30076930672e-06,757.520506748,0.647921839613,,,,z,1,0.633740945254,2018_Nov_14_1402,59.991726582,spanish_cond2,001,1018,
images/doll.jpg,carrot,x,sounds/greatgatsby_spanish.wav,,,,,,,,,0,1,1,0,0,94,94,146,758.632518687,8.98004509509e-06,759.354292081,0.721783015877,,,,x,1,0.700427646283,2018_Nov_14_1402,59.991726582,spanish_cond2,001,1018,
images/tape01a.jpg,tie,x,sounds/greatgatsby_spanish.wav,,,,,,,,,0,1,1,0,0,95,95,232,760.480436485,9.30088572204e-06,761.171397159,0.690970616415,,,,x,1,0.667080928222,2018_Nov_14_1402,59.991726582,spanish_cond2,001,1018,
images/ant.jpg,ant,z,sounds/greatgatsby_spanish.wav,,,,,,,,,0,1,1,0,0,96,96,98,762.266256425,9.62149351835e-06,763.038511891,0.772265729494,,,,z,1,0.750430244021,2018_Nov_14_1402,59.991726582,spanish_cond2,001,1018,
images/flashlight05.jpg,flash light,z,sounds/greatgatsby_spanish.wav,,,,,,,,,0,1,1,0,0,97,97,8,764.14130798,9.62160993367e-06,764.955644936,0.814347218955,,,,z,1,0.80043091753,2018_Nov_14_1402,59.991726582,spanish_cond2,001,1018,
images/raisin.jpg,ruler,x,sounds/greatgatsby_spanish.wav,,,,,,,,,0,1,1,0,0,98,98,218,766.061272971,9.62160993367e-06,766.772756429,0.711493721348,,,,x,1,0.700418024557,2018_Nov_14_1402,59.991726582,spanish_cond2,001,1018,
images/tissuebox03.jpg,tissue box,z,sounds/greatgatsby_spanish.wav,,,,,,,,,0,1,1,0,0,99,99,58,767.899057985,8.98016151041e-06,768.523181862,0.624134139856,,,,z,1,0.600389737287,2018_Nov_14_1402,59.991726582,spanish_cond2,001,1018,
images/puma.jpg,puma,z,sounds/greatgatsby_spanish.wav,,,,,,,,,0,1,1,0,0,100,100,4,769.622893921,9.94233414531e-06,770.30694824,0.684064582572,,,,z,1,0.667079324601,2018_Nov_14_1402,59.991726582,spanish_cond2,001,1018,
images/basketball01.jpg,basket ball,z,sounds/greatgatsby_spanish.wav,,,,,,,,,0,1,1,0,0,101,101,33,771.446161608,9.30088572204e-06,772.307437336,0.86128599185,,,,z,1,0.850452437764,2018_Nov_14_1402,59.991726582,spanish_cond2,001,1018,
images/radio03a.jpg,radio,z,sounds/greatgatsby_spanish.wav,,,,,,,,,0,1,1,0,0,102,102,37,773.421766788,9.62160993367e-06,775.191475748,1.76971922372,,,,z,1,1.75067912159,2018_Nov_14_1402,59.991726582,spanish_cond2,001,1018,
images/sunglasses03a.jpg,sun glasses,z,sounds/greatgatsby_spanish.wav,,,,,,,,,0,1,1,0,0,103,103,17,776.300087428,9.62160993367e-06,777.942140117,1.64206295193,,,,x,0,1.63397859782,2018_Nov_14_1402,59.991726582,spanish_cond2,001,1018,
images/showerhead01.jpg,skateboard,x,sounds/greatgatsby_spanish.wav,,,,,,,,,0,1,1,0,0,104,104,223,779.050845446,8.98016151041e-06,779.859268672,0.808433167753,,,,x,1,0.783763491898,2018_Nov_14_1402,59.991726582,spanish_cond2,001,1018,
images/button07.jpg,radish,x,sounds/greatgatsby_spanish.wav,,,,,,,,,0,1,1,0,0,105,105,215,780.971723202,9.94221772999e-06,781.89310192,0.921389943105,,,,x,1,0.900465940009,2018_Nov_14_1402,59.991726582,spanish_cond2,001,1018,
images/boxingglove02a.jpg,bracelet,x,sounds/greatgatsby_spanish.wav,,,,,,,,,0,1,1,0,0,106,106,135,783.005220016,9.30088572204e-06,783.776897868,0.771688115317,,,,x,1,0.750422226149,2018_Nov_14_1402,59.991726582,spanish_cond2,001,1018,
images/calculator02b.jpg,dice,x,sounds/greatgatsby_spanish.wav,,,,,,,,,0,1,1,0,0,107,107,165,784.879214162,9.94221772999e-06,785.560663605,0.681460026535,,,,x,1,0.667070986005,2018_Nov_14_1402,59.991726582,spanish_cond2,001,1018,
images/rubberglove02a.jpg,lady bug,x,sounds/greatgatsby_spanish.wav,,,,,,,,,0,1,1,0,0,108,108,192,786.665938528,9.62160993367e-06,787.34443736,0.678509736084,,,,x,1,0.667082211119,2018_Nov_14_1402,59.991726582,spanish_cond2,001,1018,
images/lamp04b.jpg,parking meter,x,sounds/greatgatsby_spanish.wav,,,,,,,,,0,1,1,0,0,109,109,209,788.464931985,9.62149351835e-06,789.14486924,0.679947196855,,,,x,1,0.667077721097,2018_Nov_14_1402,59.991726582,spanish_cond2,001,1018,
images/lily.jpg,kiwi,x,sounds/greatgatsby_spanish.wav,,,,,,,,,0,1,1,0,0,110,110,190,790.244678797,9.30088572204e-06,790.928640429,0.68397125334,,,,x,1,0.667082531843,2018_Nov_14_1402,59.991726582,spanish_cond2,001,1018,
images/swan.jpg,swan,z,sounds/greatgatsby_spanish.wav,,,,,,,,,0,1,1,0,0,111,111,54,792.020883913,9.94221772999e-06,793.079179012,1.05830536131,,,,z,1,1.03385473625,2018_Nov_14_1402,59.991726582,spanish_cond2,001,1018,
images/globe.jpg,cloud,x,sounds/greatgatsby_spanish.wav,,,,,,,,,0,1,1,0,0,112,112,154,794.207587048,9.30088572204e-06,794.946280273,0.738703809329,,,,x,1,0.717086733202,2018_Nov_14_1402,59.991726582,spanish_cond2,001,1018,
images/saltshaker03c.jpg,salt shaker,z,sounds/greatgatsby_spanish.wav,,,,,,,,,0,1,1,0,0,113,113,63,796.05821107,9.94233414531e-06,797.146811832,1.08861198765,,,,z,1,1.0671687409,2018_Nov_14_1402,59.991726582,spanish_cond2,001,1018,
images/corn01.jpg,corn,z,sounds/greatgatsby_spanish.wav,,,,,,,,,0,1,1,0,0,114,114,22,798.246987009,9.62160993367e-06,799.130633503,0.883657077444,,,,z,1,0.867128522834,2018_Nov_14_1402,59.991726582,spanish_cond2,001,1018,
images/peach01.jpg,peach,z,sounds/greatgatsby_spanish.wav,,,,,,,,,0,1,1,0,0,115,115,106,800.259687145,9.62160993367e-06,801.031095915,0.771418390912,,,,z,1,0.750427998952,2018_Nov_14_1402,59.991726582,spanish_cond2,001,1018,
images/parkbench03.jpg,park bench,z,sounds/greatgatsby_spanish.wav,,,,,,,,,0,1,1,0,0,116,116,71,802.136851916,9.62160993367e-06,803.148270461,1.01142880786,,,,z,1,1.00049198244,2018_Nov_14_1402,59.991726582,spanish_cond2,001,1018,
images/lollipop03b.jpg,lollipop,z,sounds/greatgatsby_spanish.wav,,,,,,,,,0,1,1,0,0,117,117,42,804.241669174,9.30088572204e-06,804.882045466,0.640385914361,,,,z,1,0.617081216886,2018_Nov_14_1402,59.991726582,spanish_cond2,001,1018,
images/crocodile.jpg,triangle ruler,x,sounds/greatgatsby_spanish.wav,,,,,,,,,0,1,1,0,0,118,118,235,805.979768428,9.30076930672e-06,806.682480553,0.702722708578,,,,x,1,0.683755730512,2018_Nov_14_1402,59.991726582,spanish_cond2,001,1018,
images/charcoalbarbecue.jpg,charcoal barbecue,z,sounds/greatgatsby_spanish.wav,,,,,,,,,0,1,1,0,0,119,119,77,807.800056318,9.62160993367e-06,808.666302544,0.866256168229,,,,z,1,0.850450834143,2018_Nov_14_1402,59.991726582,spanish_cond2,001,1018,
images/nailclipper03a.jpg,aquarium,x,sounds/greatgatsby_spanish.wav,,,,,,,,,0,1,1,0,0,120,120,123,809.766089651,9.62149351835e-06,810.616778779,0.850699711707,,,,x,1,0.833802972222,2018_Nov_14_1402,59.991726582,spanish_cond2,001,1018,
images/coffeepot03b.jpg,coffee pot,z,sounds/greatgatsby_spanish.wav,,,,,,,,,0,1,1,0,0,121,121,107,811.738772443,9.30088572204e-06,812.683933729,0.945171228494,,,,z,1,0.933812016621,2018_Nov_14_1402,59.991726582,spanish_cond2,001,1018,
images/electricguitar02.jpg,electric guitar,z,sounds/greatgatsby_spanish.wav,,,,,,,,,0,1,1,0,0,122,122,100,813.786447907,9.30088572204e-06,814.53437847,0.747940505389,,,,z,1,0.733750951709,2018_Nov_14_1402,59.991726582,spanish_cond2,001,1018,
images/icecube02 (2).jpg,aloe,x,sounds/greatgatsby_spanish.wav,,,,,,,,,0,1,1,0,0,123,123,122,815.645484378,9.30088572204e-06,816.934966604,1.28949248849,,,,x,1,1.26722371206,2018_Nov_14_1402,59.991726582,spanish_cond2,001,1018,
images/toucan.jpg,toucan,z,sounds/greatgatsby_spanish.wav,,,,,,,,,0,1,1,0,0,124,124,81,818.036204,9.30088572204e-06,818.685395565,0.649201186141,,,,z,1,0.633729399415,2018_Nov_14_1402,59.991726582,spanish_cond2,001,1018,
images/bowl02b (1).jpg,bowl,z,sounds/greatgatsby_spanish.wav,,,,,,,,,0,1,1,0,0,125,125,24,819.803440541,9.30076930672e-06,820.669215952,0.865785673959,,,,z,1,0.850456607062,2018_Nov_14_1402,59.991726582,spanish_cond2,001,1018,
images/beermug01b.jpg,beer mug,z,sounds/greatgatsby_spanish.wav,,,,,,,,,0,1,1,0,0,126,126,111,821.787073308,8.98016151041e-06,822.469650718,0.68258799403,,,,z,1,0.667078362545,2018_Nov_14_1402,59.991726582,spanish_cond2,001,1018,
images/parkingmeter.jpg,ear,x,sounds/greatgatsby_spanish.wav,,,,,,,,,0,1,1,0,0,127,127,171,823.571583753,9.30076930672e-06,824.253407475,0.681833022274,,,,x,1,0.667072589509,2018_Nov_14_1402,59.991726582,spanish_cond2,001,1018,
images/diploma01.jpg,glasses,x,sounds/greatgatsby_spanish.wav,,,,,,,,,0,1,1,0,0,128,128,179,825.385048034,9.62160993367e-06,826.103873062,0.718836253276,,,,x,1,0.700425401214,2018_Nov_14_1402,59.991726582,spanish_cond2,001,1018,
images/pen03c.jpg,pepper,x,sounds/greatgatsby_spanish.wav,,,,,,,,,0,1,1,0,0,129,129,211,827.198499486,9.62160993367e-06,827.904303659,0.705814115354,,,,x,1,0.683685172349,2018_Nov_14_1402,59.991726582,spanish_cond2,001,1018,
images/hat05.jpg,hat,z,sounds/greatgatsby_spanish.wav,,,,,,,,,0,1,1,0,0,130,130,15,829.008318479,9.94233414531e-06,829.688073886,0.679765670211,,,,z,1,0.667062967899,2018_Nov_14_1402,59.991726582,spanish_cond2,001,1018,
images/candycane01a.jpg,lip,x,sounds/greatgatsby_spanish.wav,,,,,,,,,0,1,1,0,0,131,131,200,830.782256756,1.02630583569e-05,831.755241985,0.97299549263,,,,x,1,0.950484253,2018_Nov_14_1402,59.991726582,spanish_cond2,001,1018,
images/redfox.jpg,red fox,z,sounds/greatgatsby_spanish.wav,,,,,,,,,0,1,1,0,0,132,132,1,832.868366497,9.30076930672e-06,833.505669984,0.637313429965,,,,z,1,0.617070633103,2018_Nov_14_1402,59.991726582,spanish_cond2,001,1018,
images/fryingpan01.jpg,frying pan,z,sounds/greatgatsby_spanish.wav,,,,,,,,,0,1,1,0,0,133,133,45,834.606729382,9.62160993367e-06,835.456136919,0.849417799502,,,,z,1,0.833779239096,2018_Nov_14_1402,59.991726582,spanish_cond2,001,1018,
images/panda.jpg,panda,z,sounds/greatgatsby_spanish.wav,,,,,,,,,0,1,1,0,0,134,134,83,836.565820761,9.62149351835e-06,837.373277982,0.807467163191,,,,z,1,0.783773434116,2018_Nov_14_1402,59.991726582,spanish_cond2,001,1018,
images/honeycomb.jpg,honey comb,z,sounds/greatgatsby_spanish.wav,,,,,,,,,0,1,1,0,0,135,135,59,838.487113205,9.62149351835e-06,840.157280088,1.6701768249,,,,z,1,1.65063672268,2018_Nov_14_1402,59.991726582,spanish_cond2,001,1018,
images/pineapple01a.jpg,pineapple,z,sounds/greatgatsby_spanish.wav,,,,,,,,,0,1,1,0,0,136,136,51,841.270971309,9.30076930672e-06,841.924384814,0.653423446696,,,,z,1,0.633739341749,2018_Nov_14_1402,59.991726582,spanish_cond2,001,1018,
images/hairband.jpg,hairband,z,sounds/greatgatsby_spanish.wav,,,,,,,,,0,1,1,0,0,137,137,66,843.035086296,9.94221772999e-06,843.774847514,0.739771481487,,,,z,1,0.717105655582,2018_Nov_14_1402,59.991726582,spanish_cond2,001,1018,
images/nametag01a.jpg,name tag,z,sounds/greatgatsby_spanish.wav,,,,,,,,,0,1,1,0,0,138,138,108,844.89524881,9.94221772999e-06,845.741986364,0.846747817006,,,,z,1,0.833788860706,2018_Nov_14_1402,59.991726582,spanish_cond2,001,1018,
images/broadsword.jpg,teapot,x,sounds/greatgatsby_spanish.wav,,,,,,,,,0,1,1,0,0,139,139,231,846.835099958,8.98016151041e-06,847.592432388,0.7573420509,,,,x,1,0.733761535492,2018_Nov_14_1402,59.991726582,spanish_cond2,001,1018,
images/kiwi03.jpg,backpack,x,sounds/greatgatsby_spanish.wav,,,,,,,,,0,1,1,0,0,140,140,125,848.721515216,9.62160993367e-06,849.459550648,0.738045374048,,,,x,1,0.717080960283,2018_Nov_14_1402,59.991726582,spanish_cond2,001,1018,
images/mirror02.jpg,8 ball,x,sounds/greatgatsby_spanish.wav,,,,,,,,,0,1,1,0,0,141,141,121,850.561204978,9.30088572204e-06,851.410024638,0.848829280934,,,,x,1,0.833783408394,2018_Nov_14_1402,59.991726582,spanish_cond2,001,1018,
images/ladybug03.jpg,giraffe,x,sounds/greatgatsby_spanish.wav,,,,,,,,,0,1,1,0,0,142,142,178,852.513373645,9.62160993367e-06,853.460525311,0.947163211764,,,,x,1,0.933808488655,2018_Nov_14_1402,59.991726582,spanish_cond2,001,1018,
images/mushroom01.jpg,shower head,x,sounds/greatgatsby_spanish.wav,,,,,,,,,0,1,1,0,0,143,143,222,854.577992994,9.62160993367e-06,855.411006357,0.833023626008,,,,x,1,0.817119831336,2018_Nov_14_1402,59.991726582,spanish_cond2,001,1018,
images/gorilla.jpg,gorilla,z,sounds/greatgatsby_spanish.wav,,,,,,,,,0,1,1,0,0,144,144,80,856.522317205,1.02629419416e-05,857.144743518,0.622437538463,,,,z,1,0.600381719298,2018_Nov_14_1402,59.991726582,spanish_cond2,001,1018,
images/50dollarbill.jpg,cherry,x,sounds/greatgatsby_spanish.wav,,,,,,,,,0,1,1,0,0,145,145,151,858.264676244,9.30088572204e-06,858.978549698,0.713883395772,,,,x,1,0.700429249788,2018_Nov_14_1402,59.991726582,spanish_cond2,001,1018,
images/bandaid01.jpg,door handle,x,sounds/greatgatsby_spanish.wav,,,,,,,,,0,1,1,0,0,146,146,170,860.085670998,9.30088572204e-06,860.812309694,0.726648958749,,,,x,1,0.71708961972,2018_Nov_14_1402,59.991726582,spanish_cond2,001,1018,
images/highlighter03b.jpg,coin,x,sounds/greatgatsby_spanish.wav,,,,,,,,,0,1,1,0,0,147,147,156,861.914954403,9.30088572204e-06,863.062863414,1.14791895309,,,,x,1,1.1338496689,2018_Nov_14_1402,59.991726582,spanish_cond2,001,1018,
images/notebook02b.jpg,notebook,z,sounds/greatgatsby_spanish.wav,,,,,,,,,0,1,1,0,0,148,148,7,864.171804472,9.62149351835e-06,864.779780167,0.607985957642,,,,z,1,0.58355136856,2018_Nov_14_1402,59.991726582,spanish_cond2,001,1018,
images/camera01a.jpg,bull,x,sounds/greatgatsby_spanish.wav,,,,,,,,,0,1,1,0,0,149,149,138,865.891072092,9.62160993367e-06,866.613773004,0.722711496288,,,,x,1,0.700459397398,2018_Nov_14_1402,59.991726582,spanish_cond2,001,1018,
images/marker01a.jpg,marker,z,sounds/greatgatsby_spanish.wav,,,,,,,,,0,1,1,0,0,150,150,95,867.712284613,9.62160993367e-06,868.564219092,0.851945703616,,,,z,1,0.833804575843,2018_Nov_14_1402,59.991726582,spanish_cond2,001,1018,
images/computerkeyboard01a.jpg,computer keyboard,z,sounds/greatgatsby_spanish.wav,,,,,,,,,0,1,1,0,0,151,151,61,869.681698321,9.94221772999e-06,870.331299443,0.649611705914,,,,z,1,0.633714325726,2018_Nov_14_1402,59.991726582,spanish_cond2,001,1018,
images/wallet01.jpg,lamp,x,sounds/greatgatsby_spanish.wav,,,,,,,,,0,1,1,0,0,152,152,193,871.436890274,8.98016151041e-06,872.148410936,0.711530603934,,,,x,1,0.700421231915,2018_Nov_14_1402,59.991726582,spanish_cond2,001,1018,
images/hanger02a.jpg,hanger,z,sounds/greatgatsby_spanish.wav,,,,,,,,,0,1,1,0,0,153,153,88,873.242077128,8.98016151041e-06,874.148891372,0.906823545112,,,,z,1,0.883793703513,2018_Nov_14_1402,59.991726582,spanish_cond2,001,1018,
images/key03b.jpg,cigar,x,sounds/greatgatsby_spanish.wav,,,,,,,,,0,1,1,0,0,154,154,153,875.251044741,1.02629419416e-05,875.932664485,0.681630328181,,,,x,1,0.667075155303,2018_Nov_14_1402,59.991726582,spanish_cond2,001,1018,
images/ear.jpg,bullet,x,sounds/greatgatsby_spanish.wav,,,,,,,,,0,1,1,0,0,155,155,139,877.036926579,9.30076930672e-06,877.749766357,0.712849719566,,,,x,1,0.700413534651,2018_Nov_14_1402,59.991726582,spanish_cond2,001,1018,
images/blackolive.jpg,tank,x,sounds/greatgatsby_spanish.wav,,,,,,,,,0,1,1,0,0,156,156,229,878.865381569,9.94233414531e-06,879.550209782,0.684838476474,,,,x,1,0.667071306612,2018_Nov_14_1402,59.991726582,spanish_cond2,001,1018,
images/glasses01b.jpg,calculator,x,sounds/greatgatsby_spanish.wav,,,,,,,,,0,1,1,0,0,157,157,142,880.643334601,8.98016151041e-06,881.283956564,0.6406315848,,,,x,1,0.617044975748,2018_Nov_14_1402,59.991726582,spanish_cond2,001,1018,
images/chameleon.jpg,50 dollar bill,x,sounds/greatgatsby_spanish.wav,,,,,,,,,0,1,1,0,0,158,158,120,882.394185628,9.62160993367e-06,883.05107027,0.656895225751,,,,x,1,0.633741586818,2018_Nov_14_1402,59.991726582,spanish_cond2,001,1018,
images/cloud.jpg,ceiling fan,x,sounds/greatgatsby_spanish.wav,,,,,,,,,0,1,1,0,0,159,159,149,884.1564196,5.32392878085e-05,884.851495415,0.695093454211,,,,x,1,0.683740335982,2018_Nov_14_1402,59.991726582,spanish_cond2,001,1018,
images/dryingmachine01.jpg,drying machine,z,sounds/greatgatsby_spanish.wav,,,,,,,,,0,1,1,0,0,160,160,18,885.973313645,9.30088572204e-06,887.102177744,1.12887436105,,,,z,1,1.11731373786,2018_Nov_14_1402,59.991726582,spanish_cond2,001,1018,
images/lion.jpg,lion,z,sounds/greatgatsby_spanish.wav,,,,,,,,,0,1,1,0,0,161,161,44,888.214870888,9.30088572204e-06,888.819128171,0.604267546092,,,,z,1,0.583718783571,2018_Nov_14_1402,59.991726582,spanish_cond2,001,1018,
images/apple06.jpg,apple,z,sounds/greatgatsby_spanish.wav,,,,,,,,,0,1,1,0,0,162,162,13,889.946643648,9.30088572204e-06,890.602906096,0.656273031607,,,,z,1,0.633740624646,2018_Nov_14_1402,59.991726582,spanish_cond2,001,1018,
images/pouch01b.jpg,pouch,z,sounds/greatgatsby_spanish.wav,,,,,,,,,0,1,1,0,0,163,163,25,891.715601485,9.62149351835e-06,892.470025959,0.754435057286,,,,z,1,0.733756403904,2018_Nov_14_1402,59.991726582,spanish_cond2,001,1018,
images/binder03b.jpg,dj mixer,x,sounds/greatgatsby_spanish.wav,,,,,,,,,0,1,1,0,0,164,164,167,893.583353485,9.62160993367e-06,894.42050059,0.837157047587,,,,x,1,0.817115982762,2018_Nov_14_1402,59.991726582,spanish_cond2,001,1018,
images/candy.jpg,candy,z,sounds/greatgatsby_spanish.wav,,,,,,,,,0,1,1,0,0,165,165,31,895.52330598,1.05836661533e-05,896.304284031,0.78098927578,,,,z,1,0.767097669654,2018_Nov_14_1402,59.991726582,spanish_cond2,001,1018,
images/highheelshoe02a.jpg,high heel shoe,z,sounds/greatgatsby_spanish.wav,,,,,,,,,0,1,1,0,0,166,166,75,897.411490642,9.30088572204e-06,898.054710106,0.643229726236,,,,z,1,0.633731965208,2018_Nov_14_1402,59.991726582,spanish_cond2,001,1018,
images/cheetah.jpg,cheetah,z,sounds/greatgatsby_spanish.wav,,,,,,,,,0,1,1,0,0,167,167,82,899.157938523,9.62160993367e-06,899.771800688,0.613872427144,,,,z,1,0.600393265137,2018_Nov_14_1402,59.991726582,spanish_cond2,001,1018,
images/barrel01.jpg,barrel,z,sounds/greatgatsby_spanish.wav,,,,,,,,,0,1,1,0,0,168,168,9,900.902577231,9.30088572204e-06,901.455555135,0.552987846779,,,,z,1,0.533722920925,2018_Nov_14_1402,59.991726582,spanish_cond2,001,1018,
images/ladder.jpg,ladder,z,sounds/greatgatsby_spanish.wav,,,,,,,,,0,1,1,0,0,169,169,113,902.548517671,9.94233414531e-06,903.222633882,0.674126474769,,,,z,1,0.650399390841,2018_Nov_14_1402,59.991726582,spanish_cond2,001,1018,
images/lemon02.jpg,lemon,z,sounds/greatgatsby_spanish.wav,,,,,,,,,0,1,1,0,0,170,170,14,904.335568849,9.94221772999e-06,904.973075672,0.637517406954,,,,z,1,0.617078971816,2018_Nov_14_1402,59.991726582,spanish_cond2,001,1018,
images/shotglass.jpg,shot glass,z,sounds/greatgatsby_spanish.wav,,,,,,,,,0,1,1,0,0,171,171,86,906.082557462,9.62149351835e-06,906.823512716,0.740965196281,,,,z,1,0.717087374651,2018_Nov_14_1402,59.991726582,spanish_cond2,001,1018,
images/bowlingball.jpg,bowling ball,z,sounds/greatgatsby_spanish.wav,,,,,,,,,0,1,1,0,0,172,172,20,907.956242756,9.30088572204e-06,908.573947129,0.617714956868,,,,z,1,0.600392944529,2018_Nov_14_1402,59.991726582,spanish_cond2,001,1018,
images/hammer02a.jpg,flower,x,sounds/greatgatsby_spanish.wav,,,,,,,,,0,1,1,0,0,173,173,176,909.669491129,9.62149351835e-06,910.341046402,0.671566819423,,,,x,1,0.650413502473,2018_Nov_14_1402,59.991726582,spanish_cond2,001,1018,
images/gps.jpg,gps,z,sounds/greatgatsby_spanish.wav,,,,,,,,,0,1,1,0,0,174,174,21,911.459794073,9.30076930672e-06,912.17483398,0.715050490689,,,,z,1,0.70032918558,2018_Nov_14_1402,59.991726582,spanish_cond2,001,1018,
images/egg01b (1).jpg,egg,z,sounds/greatgatsby_spanish.wav,,,,,,,,,0,1,1,0,0,175,175,19,913.287718594,8.98016151041e-06,913.992161637,0.704452664824,,,,z,1,0.683978629881,2018_Nov_14_1402,59.991726582,spanish_cond2,001,1018,
images/envelope02a.jpg,grand piano,x,sounds/greatgatsby_spanish.wav,,,,,,,,,0,1,1,0,0,176,176,182,915.115550106,1.02630583569e-05,915.792364844,0.676825642586,,,,x,1,0.667064892245,2018_Nov_14_1402,59.991726582,spanish_cond2,001,1018,
images/broom02.jpg,broom,z,sounds/greatgatsby_spanish.wav,,,,,,,,,0,1,1,0,0,177,177,116,916.886444122,9.30076930672e-06,917.492802433,0.606368573615,,,,z,1,0.583747969009,2018_Nov_14_1402,59.991726582,spanish_cond2,001,1018,
images/dragonfly02.jpg,dragon fly,z,sounds/greatgatsby_spanish.wav,,,,,,,,,0,1,1,0,0,178,178,29,918.590782932,9.30076930672e-06,919.193218854,0.602446184959,,,,z,1,0.58374572394,2018_Nov_14_1402,59.991726582,spanish_cond2,001,1018,
images/tie01.jpg,bench,x,sounds/greatgatsby_spanish.wav,,,,,,,,,0,1,1,0,0,179,179,130,920.292253555,9.30076930672e-06,920.910276723,0.618033430423,,,,x,1,0.600383964251,2018_Nov_14_1402,59.991726582,spanish_cond2,001,1018,
images/daisy.jpg,daisy,z,sounds/greatgatsby_spanish.wav,,,,,,,,,0,1,1,0,0,180,180,6,922.012876852,1.02629419416e-05,922.894113466,0.881247197744,,,,z,1,0.867120825569,2018_Nov_14_1402,59.991726582,spanish_cond2,001,1018,
images/gamecontroller01.jpg,game controller,z,sounds/greatgatsby_spanish.wav,,,,,,,,,0,1,1,0,0,181,181,112,924.014491671,9.62149351835e-06,925.027941006,1.01345959806,,,,z,1,1.0004846059,2018_Nov_14_1402,59.991726582,spanish_cond2,001,1018,
images/lantern03.jpg,lantern,z,sounds/greatgatsby_spanish.wav,,,,,,,,,0,1,1,0,0,182,182,5,926.135163012,9.30088572204e-06,926.845058271,0.709905202035,,,,z,1,0.700424438925,2018_Nov_14_1402,59.991726582,spanish_cond2,001,1018,
images/lighter02b.jpg,stapler,x,sounds/greatgatsby_spanish.wav,,,,,,,,,0,1,1,0,0,183,183,227,927.947348587,9.30088572204e-06,928.778858421,0.831520097214,,,,x,1,0.81710924767,2018_Nov_14_1402,59.991726582,spanish_cond2,001,1018,
images/elbow.jpg,elbow,z,sounds/greatgatsby_spanish.wav,,,,,,,,,0,1,1,0,0,184,184,105,929.891051886,9.30088572204e-06,930.712753825,0.821717653424,,,,z,1,0.800454971497,2018_Nov_14_1402,59.991726582,spanish_cond2,001,1018,
images/squirrel.jpg,binder,x,sounds/greatgatsby_spanish.wav,,,,,,,,,0,1,1,0,0,185,185,132,931.816216367,9.62149351835e-06,932.5297861,0.713580637239,,,,x,1,0.700432136189,2018_Nov_14_1402,59.991726582,spanish_cond2,001,1018,
images/hairpin.jpg,hair pin,z,sounds/greatgatsby_spanish.wav,,,,,,,,,0,1,1,0,0,186,186,28,933.620930802,9.30076930672e-06,934.480257204,0.859336664085,,,,z,1,0.85046302143,2018_Nov_14_1402,59.991726582,spanish_cond2,001,1018,
images/cake.jpg,cake,z,sounds/greatgatsby_spanish.wav,,,,,,,,,0,1,1,0,0,187,187,23,935.59465144,8.98004509509e-06,936.347362635,0.752720816294,,,,z,1,0.733715351904,2018_Nov_14_1402,59.991726582,spanish_cond2,001,1018,
images/arrow02.jpg,hammer,x,sounds/greatgatsby_spanish.wav,,,,,,,,,0,1,1,0,0,188,188,184,937.444711639,9.30076930672e-06,938.081131867,0.636430491577,,,,x,1,0.617066463805,2018_Nov_14_1402,59.991726582,spanish_cond2,001,1018,
images/butterfly.jpg,butterfly,z,sounds/greatgatsby_spanish.wav,,,,,,,,,0,1,1,0,0,189,189,91,939.1890354,9.62149351835e-06,939.831547679,0.642521900241,,,,z,1,0.633732927381,2018_Nov_14_1402,59.991726582,spanish_cond2,001,1018,
images/screwdriver02b.jpg,cola,x,sounds/greatgatsby_spanish.wav,,,,,,,,,0,1,1,0,0,190,190,158,940.925551909,9.30076930672e-06,941.615355109,0.689813463599,,,,x,1,0.667115565855,2018_Nov_14_1402,59.991726582,spanish_cond2,001,1018,
images/bicycle.jpg,hand bag,x,sounds/greatgatsby_spanish.wav,,,,,,,,,0,1,1,0,0,191,191,186,942.725993089,9.94233414531e-06,943.449098749,0.723116563866,,,,x,1,0.700418986846,2018_Nov_14_1402,59.991726582,spanish_cond2,001,1018,
images/scooter.jpg,pen,x,sounds/greatgatsby_spanish.wav,,,,,,,,,0,1,1,0,0,192,192,212,944.542481105,9.62160993367e-06,945.182856435,0.640385593637,,,,x,1,0.617070633103,2018_Nov_14_1402,59.991726582,spanish_cond2,001,1018,
images/toothbrush03a.jpg,parrot,x,sounds/greatgatsby_spanish.wav,,,,,,,,,0,1,1,0,0,193,193,210,946.275801973,9.30076930672e-06,946.949976556,0.674184204079,,,,x,1,0.6504301799,2018_Nov_14_1402,59.991726582,spanish_cond2,001,1018,
images/mailbox01.jpg,mail box,z,sounds/greatgatsby_spanish.wav,,,,,,,,,0,1,1,0,0,194,194,73,948.069908961,9.62149351835e-06,948.700376331,0.630477633327,,,,z,1,0.617061332217,2018_Nov_14_1402,59.991726582,spanish_cond2,001,1018,
