images,name,corrAns,sounds,trials_3.thisRepN,trials_3.thisTrialN,trials_3.thisN,trials_3.thisIndex,trials_4.thisRepN,trials_4.thisTrialN,trials_4.thisN,trials_4.thisIndex,trials_2.thisRepN,trials_2.thisTrialN,trials_2.thisN,trials_2.thisIndex,trials.thisRepN,trials.thisTrialN,trials.thisN,trials.thisIndex,begin_global,begin_routine,end_global,end_routine,key_resp_2.keys,key_resp_2.corr,begin_book,key_resp_1.keys,key_resp_1.corr,key_resp_1.rt,date,frameRate,expName,session,participant,
images/volleyball.jpg,volley ball,z,,0,0,0,0,,,,,,,,,,,,,,,,,,,,,,,2018_Nov_14_1248,59.983801499,chinese_cond1,001,1019,
images/puma.jpg,puma,z,,,,,,0,0,0,0,,,,,,,,,48.1562814508,9.62160993367e-06,51.002218439,2.84594821348,None,0,,,,,2018_Nov_14_1248,59.983801499,chinese_cond1,001,1019,
images/tissuebox03.jpg,tissue box,z,sounds/greatgatsby_english.wav,,,,,,,,,0,0,0,0,0,0,0,58,93.1999558685,9.94245056063e-06,94.9137342452,1.71378896059,,,82.9991779876,z,1,1.70072271663,2018_Nov_14_1248,59.983801499,chinese_cond1,001,1019,
images/mitten01.jpg,mitten,z,sounds/greatgatsby_english.wav,,,,,,,,,0,0,0,0,0,1,1,102,96.043273835,8.98027792573e-06,97.5143715855,1.47110769292,,,,z,1,1.45062601869,2018_Nov_14_1248,59.983801499,chinese_cond1,001,1019,
images/bowl02b (1).jpg,bowl,z,sounds/greatgatsby_english.wav,,,,,,,,,0,0,0,0,0,2,2,24,98.6346785299,9.30100213736e-06,99.5815585072,0.946889919695,,,,z,1,0.933822071995,2018_Nov_14_1248,59.983801499,chinese_cond1,001,1019,
images/bicycle.jpg,hand bag,x,sounds/greatgatsby_english.wav,,,,,,,,,0,0,0,0,0,3,3,186,100.695374024,9.62160993367e-06,101.798818971,1.10345456866,,,,x,1,1.08388374699,2018_Nov_14_1248,59.983801499,chinese_cond1,001,1019,
images/aquarium.jpg,computer mouse,x,sounds/greatgatsby_english.wav,,,,,,,,,0,0,0,0,0,4,4,159,102.936583495,8.6595537141e-06,104.649530879,1.71295700583,,,,z,0,1.70068743709,2018_Nov_14_1248,59.983801499,chinese_cond1,001,1019,
images/grasshopper.jpg,cauliflower,x,sounds/greatgatsby_english.wav,,,,,,,,,0,0,0,0,0,5,5,148,105.745971883,8.33882950246e-06,107.250207989,1.50424540683,,,,x,1,1.48396963649,2018_Nov_14_1248,59.983801499,chinese_cond1,001,1019,
images/bottleofredwine02.jpg,pipe,x,sounds/greatgatsby_english.wav,,,,,,,,,0,0,0,0,0,6,6,213,108.351599348,8.98027792573e-06,110.534365761,2.18277571409,,,,z,0,2.16746793897,2018_Nov_14_1248,59.983801499,chinese_cond1,001,1019,
images/dresser02.jpg,dresser,z,sounds/greatgatsby_english.wav,,,,,,,,,0,0,0,0,0,7,7,87,111.65719968,8.98027792573e-06,112.83520304,1.17801394372,,,,z,1,1.16740090796,2018_Nov_14_1248,59.983801499,chinese_cond1,001,1019,
images/globe.jpg,cloud,x,sounds/greatgatsby_english.wav,,,,,,,,,0,0,0,0,0,8,8,154,113.963876999,8.98016151041e-06,115.018849516,1.05498181819,,,,x,1,1.03380193061,2018_Nov_14_1248,59.983801499,chinese_cond1,001,1019,
images/medal01.jpg,medal,z,sounds/greatgatsby_english.wav,,,,,,,,,0,0,0,0,0,9,9,115,116.121005799,8.98027792573e-06,117.569501898,1.44850572071,,,,z,1,1.43392438255,2018_Nov_14_1248,59.983801499,chinese_cond1,001,1019,
images/bed.jpg,bed,z,sounds/greatgatsby_english.wav,,,,,,,,,0,0,0,0,0,10,10,103,118.690248874,8.98027792573e-06,119.903282854,1.21304424247,,,,z,1,1.20040167321,2018_Nov_14_1248,59.983801499,chinese_cond1,001,1019,
images/kiwi03.jpg,backpack,x,sounds/greatgatsby_english.wav,,,,,,,,,0,0,0,0,0,11,11,125,121.033211159,8.33882950246e-06,122.120664871,1.08746269194,,,,x,1,1.06718243158,2018_Nov_14_1248,59.983801499,chinese_cond1,001,1019,
images/straw.jpg,straw,z,sounds/greatgatsby_english.wav,,,,,,,,,0,0,0,0,0,12,12,109,123.21485376,8.98027792573e-06,124.671158175,1.45631467784,,,,z,1,1.43378390605,2018_Nov_14_1248,59.983801499,chinese_cond1,001,1019,
images/remotecontrol01c.jpg,remote control,z,sounds/greatgatsby_english.wav,,,,,,,,,0,0,0,0,0,13,13,85,125.782972381,9.30100213736e-06,126.75521415,0.972252031672,,,,z,1,0.950503823347,2018_Nov_14_1248,59.983801499,chinese_cond1,001,1019,
images/puma.jpg,puma,z,sounds/greatgatsby_english.wav,,,,,,,,,0,0,0,0,0,14,14,4,127.854825177,8.98027792573e-06,128.705683976,0.850868741632,,,,z,1,0.833784804097,2018_Nov_14_1248,59.983801499,chinese_cond1,001,1019,
images/ladder.jpg,ladder,z,sounds/greatgatsby_english.wav,,,,,,,,,0,0,0,0,0,15,15,113,129.800218605,9.30088572204e-06,130.872916826,1.07270784269,,,,z,1,1.05052537587,2018_Nov_14_1248,59.983801499,chinese_cond1,001,1019,
images/table02.jpg,table,z,sounds/greatgatsby_english.wav,,,,,,,,,0,0,0,0,0,16,16,49,131.987957824,8.98016151041e-06,132.723388833,0.735440310556,,,,z,1,0.717099460657,2018_Nov_14_1248,59.983801499,chinese_cond1,001,1019,
images/screw03c.jpg,screw,z,sounds/greatgatsby_english.wav,,,,,,,,,0,0,0,0,0,17,17,84,133.819094741,8.98027792573e-06,135.757502827,1.93841802876,,,,x,0,1.91740876564,2018_Nov_14_1248,59.983801499,chinese_cond1,001,1019,
images/flipflop01b.jpg,flip flop,z,sounds/greatgatsby_english.wav,,,,,,,,,0,0,0,0,0,18,18,27,136.877077882,1.02630583569e-05,137.84137567,0.964308691677,,,,x,0,0.950502540451,2018_Nov_14_1248,59.983801499,chinese_cond1,001,1019,
images/acousticguitar02.jpg,acoustic guitar,z,sounds/greatgatsby_english.wav,,,,,,,,,0,0,0,0,0,19,19,97,138.956980819,9.62160993367e-06,139.875234689,0.918264133041,,,,z,1,0.900455362163,2018_Nov_14_1248,59.983801499,chinese_cond1,001,1019,
images/squirrel.jpg,binder,x,sounds/greatgatsby_english.wav,,,,,,,,,0,0,0,0,0,20,20,132,140.978554233,8.98027792573e-06,142.275833093,1.297288161,,,,x,1,1.28390825016,2018_Nov_14_1248,59.983801499,chinese_cond1,001,1019,
images/croissant02b.jpg,croissant,z,sounds/greatgatsby_english.wav,,,,,,,,,0,0,0,0,0,21,21,39,143.388470916,9.30100213736e-06,145.293284258,1.90482296434,,,,x,0,1.884074128,2018_Nov_14_1248,59.983801499,chinese_cond1,001,1019,
images/lighter02b.jpg,stapler,x,sounds/greatgatsby_english.wav,,,,,,,,,0,0,0,0,0,22,22,227,146.396902396,8.98016151041e-06,147.293809282,0.896916186786,,,,z,0,0.883823322831,2018_Nov_14_1248,59.983801499,chinese_cond1,001,1019,
images/eraser.jpg,eraser,z,sounds/greatgatsby_english.wav,,,,,,,,,0,0,0,0,0,23,23,110,148.401467242,8.98027792573e-06,149.144264612,0.742807311704,,,,z,1,0.733758119866,2018_Nov_14_1248,59.983801499,chinese_cond1,001,1019,
images/nametag01a.jpg,name tag,z,sounds/greatgatsby_english.wav,,,,,,,,,0,0,0,0,0,24,24,108,150.265957399,8.65943729877e-06,152.261560611,1.99561251304,,,,z,1,1.98392890475,2018_Nov_14_1248,59.983801499,chinese_cond1,001,1019,
images/birthdaycandle.jpg,birthday candle,z,sounds/greatgatsby_english.wav,,,,,,,,,0,0,0,0,0,25,25,55,153.35928162,9.30100213736e-06,154.29557486,0.936303183087,,,,z,1,0.917143527884,2018_Nov_14_1248,59.983801499,chinese_cond1,001,1019,
images/broadsword.jpg,teapot,x,sounds/greatgatsby_english.wav,,,,,,,,,0,0,0,0,0,26,26,231,155.388723325,9.30100213736e-06,157.162998668,1.7742852855,,,,x,1,1.75071056117,2018_Nov_14_1248,59.983801499,chinese_cond1,001,1019,
images/crocodile.jpg,triangle ruler,x,sounds/greatgatsby_english.wav,,,,,,,,,0,0,0,0,0,27,27,235,158.260747258,9.62160993367e-06,160.797086106,2.53634911054,,,,x,1,2.51739151077,2018_Nov_14_1248,59.983801499,chinese_cond1,001,1019,
images/hairdryer03a.jpg,hairdryer,z,sounds/greatgatsby_english.wav,,,,,,,,,0,0,0,0,0,28,28,119,161.899106723,8.6595537141e-06,162.864441086,0.965343664051,,,,z,1,0.950490353047,2018_Nov_14_1248,59.983801499,chinese_cond1,001,1019,
images/feather03b.jpg,feather,z,sounds/greatgatsby_english.wav,,,,,,,,,0,0,0,0,0,29,29,114,163.967714446,8.33882950246e-06,164.914970952,0.947265486,,,,z,1,0.933824637788,2018_Nov_14_1248,59.983801499,chinese_cond1,001,1019,
images/sunglasses03a.jpg,sun glasses,z,sounds/greatgatsby_english.wav,,,,,,,,,0,0,0,0,0,30,30,17,166.025875589,9.62160993367e-06,168.232493189,2.20662722201,,,,z,1,2.1841400686,2018_Nov_14_1248,59.983801499,chinese_cond1,001,1019,
images/umbrella01.jpg,umbrella,z,sounds/greatgatsby_english.wav,,,,,,,,,0,0,0,0,0,31,31,53,169.345832753,8.98027792573e-06,170.416382774,1.07055996265,,,,z,1,1.0505202444,2018_Nov_14_1248,59.983801499,chinese_cond1,001,1019,
images/toothbrush03a.jpg,parrot,x,sounds/greatgatsby_english.wav,,,,,,,,,0,0,0,0,0,32,32,210,171.510817978,8.98027792573e-06,172.750316393,1.23950867844,,,,x,1,1.21722774964,2018_Nov_14_1248,59.983801499,chinese_cond1,001,1019,
images/apple06.jpg,apple,z,sounds/greatgatsby_english.wav,,,,,,,,,0,0,0,0,0,33,33,13,173.878118948,8.6595537141e-06,174.684145842,0.806036194204,,,,z,1,0.783783809748,2018_Nov_14_1248,59.983801499,chinese_cond1,001,1019,
images/backpack01b.jpg,swallow,x,sounds/greatgatsby_english.wav,,,,,,,,,0,0,0,0,0,34,34,228,175.816207274,9.30100213736e-06,177.518195563,1.70199823088,,,,x,1,1.68401242094,2018_Nov_14_1248,59.983801499,chinese_cond1,001,1019,
images/ceilingfan02.jpg,paper clip,x,sounds/greatgatsby_english.wav,,,,,,,,,0,0,0,0,0,35,35,208,178.618912763,9.30100213736e-06,179.968836655,1.34993383486,,,,x,1,1.33392463916,2018_Nov_14_1248,59.983801499,chinese_cond1,001,1019,
images/pictureframe04.jpg,picture frame,z,sounds/greatgatsby_english.wav,,,,,,,,,0,0,0,0,0,36,36,41,181.092589765,9.30100213736e-06,183.419759342,2.32717951946,,,,x,0,2.31753314193,2018_Nov_14_1248,59.983801499,chinese_cond1,001,1019,
images/bat.jpg,hand,x,sounds/greatgatsby_english.wav,,,,,,,,,0,0,0,0,0,37,37,185,184.519532976,8.98027792573e-06,185.486907136,0.967384102056,,,,x,1,0.950486825081,2018_Nov_14_1248,59.983801499,chinese_cond1,001,1019,
images/cherry01.jpg,highlighter,x,sounds/greatgatsby_english.wav,,,,,,,,,0,0,0,0,0,38,38,187,186.595839328,8.98027792573e-06,187.954211057,1.35838199232,,,,x,1,1.33392977074,2018_Nov_14_1248,59.983801499,chinese_cond1,001,1019,
images/highlighter03b.jpg,coin,x,sounds/greatgatsby_english.wav,,,,,,,,,0,0,0,0,0,39,39,156,189.056822767,8.6595537141e-06,190.154779506,1.09796636133,,,,x,1,1.08382409264,2018_Nov_14_1248,59.983801499,chinese_cond1,001,1019,
images/gamecontroller01.jpg,game controller,z,sounds/greatgatsby_english.wav,,,,,,,,,0,0,0,0,0,40,40,112,191.276883781,9.30100213736e-06,192.221972201,0.945099003846,,,,z,1,0.933825920685,2018_Nov_14_1248,59.983801499,chinese_cond1,001,1019,
images/printer03a.jpg,printer,z,sounds/greatgatsby_english.wav,,,,,,,,,0,0,0,0,0,41,41,72,193.332917249,8.98016151041e-06,195.822885042,2.48997709388,,,,z,1,2.46754959493,2018_Nov_14_1248,59.983801499,chinese_cond1,001,1019,
images/key03b.jpg,cigar,x,sounds/greatgatsby_english.wav,,,,,,,,,0,0,0,0,0,42,42,153,196.927134362,8.6595537141e-06,197.856749193,0.929624452954,,,,x,1,0.91715539468,2018_Nov_14_1248,59.983801499,chinese_cond1,001,1019,
images/teapot.jpg,light switch,x,sounds/greatgatsby_english.wav,,,,,,,,,0,0,0,0,0,43,43,197,198.974946102,8.6595537141e-06,200.624120658,1.64918417763,,,,x,1,1.63399571134,2018_Nov_14_1248,59.983801499,chinese_cond1,001,1019,
images/calculator02b.jpg,dice,x,sounds/greatgatsby_english.wav,,,,,,,,,0,0,0,0,0,44,44,165,201.727849766,8.65943729877e-06,202.541295617,0.813455152325,,,,x,1,0.800459146732,2018_Nov_14_1248,59.983801499,chinese_cond1,001,1019,
images/blackolive.jpg,tank,x,sounds/greatgatsby_english.wav,,,,,,,,,0,0,0,0,0,45,45,229,203.658634273,8.98027792573e-06,205.108625902,1.45000157156,,,,x,1,1.43396960443,2018_Nov_14_1248,59.983801499,chinese_cond1,001,1019,
images/bracelet02a.jpg,chess knight,x,sounds/greatgatsby_english.wav,,,,,,,,,0,0,0,0,0,46,46,152,206.219192818,8.6595537141e-06,208.242577353,2.02339479874,,,,z,0,2.00059526134,2018_Nov_14_1248,59.983801499,chinese_cond1,001,1019,
images/mushroom01.jpg,shower head,x,sounds/greatgatsby_english.wav,,,,,,,,,0,0,0,0,0,47,47,222,209.359262376,8.98016151041e-06,210.409972168,1.05071973382,,,,x,1,1.03385709494,2018_Nov_14_1248,59.983801499,chinese_cond1,001,1019,
images/rhinoceros01.jpg,envelope,x,sounds/greatgatsby_english.wav,,,,,,,,,0,0,0,0,0,48,48,173,211.521950584,8.98027792573e-06,213.060638084,1.53869904601,,,,x,1,1.51726995688,2018_Nov_14_1248,59.983801499,chinese_cond1,001,1019,
images/treadmill.jpg,lily,x,sounds/greatgatsby_english.wav,,,,,,,,,0,0,0,0,0,49,49,199,214.169688944,8.6595537141e-06,215.194540145,1.02486082248,,,,x,1,1.00050257251,2018_Nov_14_1248,59.983801499,chinese_cond1,001,1019,
images/hairpin.jpg,hair pin,z,sounds/greatgatsby_english.wav,,,,,,,,,0,0,0,0,0,50,50,28,216.287623181,8.98016151041e-06,217.778540635,1.49092707469,,,,z,1,1.46731097728,2018_Nov_14_1248,59.983801499,chinese_cond1,001,1019,
images/sportshorts02.jpg,tape,x,sounds/greatgatsby_english.wav,,,,,,,,,0,0,0,0,0,51,51,230,218.888444296,9.621726349e-06,219.862382688,0.973948013387,,,,z,0,0.950487145688,2018_Nov_14_1248,59.983801499,chinese_cond1,001,1019,
images/candy.jpg,candy,z,sounds/greatgatsby_english.wav,,,,,,,,,0,0,0,0,0,52,52,31,220.966280174,8.98027792573e-06,221.679540905,0.713270351989,,,,z,1,0.700442404952,2018_Nov_14_1248,59.983801499,chinese_cond1,001,1019,
images/boxingglove02a.jpg,bracelet,x,sounds/greatgatsby_english.wav,,,,,,,,,0,0,0,0,0,53,53,135,222.792662056,8.98016151041e-06,224.113482606,1.32083017146,,,,z,0,1.30059096368,2018_Nov_14_1248,59.983801499,chinese_cond1,001,1019,
images/highheelshoe02a.jpg,high heel shoe,z,sounds/greatgatsby_english.wav,,,,,,,,,0,0,0,0,0,54,54,75,225.2213593,8.98027792573e-06,226.164006058,0.942656058935,,,,z,1,0.933818223304,2018_Nov_14_1248,59.983801499,chinese_cond1,001,1019,
images/lychee02a.jpg,lychee,z,sounds/greatgatsby_english.wav,,,,,,,,,0,0,0,0,0,55,55,62,227.290089539,8.98016151041e-06,228.881360814,1.59128057526,,,,z,1,1.56730687199,2018_Nov_14_1248,59.983801499,chinese_cond1,001,1019,
images/mattress.jpg,cat,x,sounds/greatgatsby_english.wav,,,,,,,,,0,0,0,0,0,56,56,147,229.985892049,9.30088572204e-06,231.965488631,1.97960684518,,,,x,1,1.96739981743,2018_Nov_14_1248,59.983801499,chinese_cond1,001,1019,
images/envelope02a.jpg,grand piano,x,sounds/greatgatsby_english.wav,,,,,,,,,0,0,0,0,0,57,57,182,233.088721208,9.30088572204e-06,234.949584311,1.86087272502,,,,x,1,1.85067310068,2018_Nov_14_1248,59.983801499,chinese_cond1,001,1019,
images/honeycomb.jpg,honey comb,z,sounds/greatgatsby_english.wav,,,,,,,,,0,0,0,0,0,58,58,59,236.063105404,9.30088572204e-06,237.416876045,1.35378026252,,,,z,1,1.33391790395,2018_Nov_14_1248,59.983801499,chinese_cond1,001,1019,
images/hanger02a.jpg,hanger,z,sounds/greatgatsby_english.wav,,,,,,,,,0,0,0,0,0,59,59,88,238.510712139,8.98027792573e-06,239.667631508,1.15694727132,,,,z,1,1.133957866,2018_Nov_14_1248,59.983801499,chinese_cond1,001,1019,
images/bus.jpg,microphone,x,sounds/greatgatsby_english.wav,,,,,,,,,0,0,0,0,0,60,60,203,240.786103597,8.98027792573e-06,241.934721378,1.14862740296,,,,x,1,1.13388377917,2018_Nov_14_1248,59.983801499,chinese_cond1,001,1019,
images/lock02a.jpg,lock,z,sounds/greatgatsby_english.wav,,,,,,,,,0,0,0,0,0,61,61,65,243.045542948,8.98016151041e-06,245.685663501,2.64012953348,,,,z,1,2.61757021747,2018_Nov_14_1248,59.983801499,chinese_cond1,001,1019,
images/doll.jpg,carrot,x,sounds/greatgatsby_english.wav,,,,,,,,,0,0,0,0,0,62,62,146,246.797603752,3.72038921341e-05,248.369700939,1.57212380669,,,,x,1,1.55066007946,2018_Nov_14_1248,59.983801499,chinese_cond1,001,1019,
images/lily.jpg,kiwi,x,sounds/greatgatsby_english.wav,,,,,,,,,0,0,0,0,0,63,63,190,249.470574972,9.30088572204e-06,251.453830039,1.98326500866,,,,z,0,1.96742611681,2018_Nov_14_1248,59.983801499,chinese_cond1,001,1019,
images/banjo.jpg,knife,x,sounds/greatgatsby_english.wav,,,,,,,,,0,0,0,0,0,64,64,191,252.550601387,8.6595537141e-06,253.654380527,1.10378876177,,,,x,1,1.08386193786,2018_Nov_14_1248,59.983801499,chinese_cond1,001,1019,
images/dryingmachine01.jpg,drying machine,z,sounds/greatgatsby_english.wav,,,,,,,,,0,0,0,0,0,65,65,18,254.776050543,8.6595537141e-06,255.854944807,1.07890388521,,,,z,1,1.06716575404,2018_Nov_14_1248,59.983801499,chinese_cond1,001,1019,
images/pouch01b.jpg,pouch,z,sounds/greatgatsby_english.wav,,,,,,,,,0,0,0,0,0,66,66,25,256.967240418,8.98027792573e-06,259.8392945,2.87206402398,,,,x,0,2.85098420188,2018_Nov_14_1248,59.983801499,chinese_cond1,001,1019,
images/cocktailshrimp01.jpg,cocktail shrimp,z,sounds/greatgatsby_english.wav,,,,,,,,,0,0,0,0,0,67,67,30,260.954422093,8.98027792573e-06,262.673356088,1.71894361626,,,,z,1,1.70068134333,2018_Nov_14_1248,59.983801499,chinese_cond1,001,1019,
images/weight01.jpg,weight,z,sounds/greatgatsby_english.wav,,,,,,,,,0,0,0,0,0,68,68,67,263.778914597,9.30100213736e-06,266.774243591,2.99533989874,,,,None,0,,2018_Nov_14_1248,59.983801499,chinese_cond1,001,1019,
images/ant.jpg,ant,z,sounds/greatgatsby_english.wav,,,,,,,,,0,0,0,0,0,69,69,98,267.940686821,9.30100213736e-06,269.275064642,1.33438776282,,,,z,1,1.31726758345,2018_Nov_14_1248,59.983801499,chinese_cond1,001,1019,
images/thumbtack02a.jpg,thumb tack,z,sounds/greatgatsby_english.wav,,,,,,,,,0,0,0,0,0,70,70,60,270.386114566,8.98016151041e-06,272.825978413,2.4398737892,,,,z,1,2.41756175028,2018_Nov_14_1248,59.983801499,chinese_cond1,001,1019,
images/arrow02.jpg,hammer,x,sounds/greatgatsby_english.wav,,,,,,,,,0,0,0,0,0,71,71,184,273.924384806,9.30088572204e-06,276.776969735,2.85259455058,,,,x,1,2.83430661994,2018_Nov_14_1248,59.983801499,chinese_cond1,001,1019,
images/triangleruler02.jpg,bottle of red wine,x,sounds/greatgatsby_english.wav,,,,,,,,,0,0,0,0,0,72,72,134,277.888343589,8.98027792573e-06,280.394566572,2.5062332463,,,,x,1,2.48422525264,2018_Nov_14_1248,59.983801499,chinese_cond1,001,1019,
images/comb02a.jpg,diploma,x,sounds/greatgatsby_english.wav,,,,,,,,,0,0,0,0,0,73,73,166,281.500954471,8.98027792573e-06,282.428424629,0.927479780046,,,,x,1,0.917164374841,2018_Nov_14_1248,59.983801499,chinese_cond1,001,1019,
images/wallet01.jpg,lamp,x,sounds/greatgatsby_english.wav,,,,,,,,,0,0,0,0,0,74,74,193,283.534234586,9.62160993367e-06,285.845987662,2.31176366063,,,,x,1,2.30085395637,2018_Nov_14_1248,59.983801499,chinese_cond1,001,1019,
images/cigar.jpg,crocodile,x,sounds/greatgatsby_english.wav,,,,,,,,,0,0,0,0,0,75,75,162,286.944949226,4.10524662584e-05,288.513303579,1.56838578323,,,,x,1,1.55063730816,2018_Nov_14_1248,59.983801499,chinese_cond1,001,1019,
images/spoon02b.jpg,spoon,z,sounds/greatgatsby_english.wav,,,,,,,,,0,0,0,0,0,76,76,38,289.605694175,8.98027792573e-06,290.697208237,1.09152368316,,,,z,1,1.06719654333,2018_Nov_14_1248,59.983801499,chinese_cond1,001,1019,
images/swan.jpg,swan,z,sounds/greatgatsby_english.wav,,,,,,,,,0,0,0,0,0,77,77,54,291.790001661,8.98027792573e-06,293.497923641,1.70793192217,,,,x,0,1.68401049671,2018_Nov_14_1248,59.983801499,chinese_cond1,001,1019,
images/broom02.jpg,broom,z,sounds/greatgatsby_english.wav,,,,,,,,,0,0,0,0,0,78,78,116,294.672716887,9.30100213736e-06,295.181696803,0.508989858092,,,,z,1,0.500392885297,2018_Nov_14_1248,59.983801499,chinese_cond1,001,1019,
images/tank.jpg,wallet,x,sounds/greatgatsby_english.wav,,,,,,,,,0,0,0,0,0,79,79,237,296.28663279,8.98027792573e-06,297.532279139,1.24565629172,,,,x,1,1.23388865404,2018_Nov_14_1248,59.983801499,chinese_cond1,001,1019,
images/doorhandle.jpg,doll,x,sounds/greatgatsby_english.wav,,,,,,,,,0,0,0,0,0,80,80,168,298.635496694,9.30088572204e-06,300.132946627,1.497459876,,,,x,1,1.48395167605,2018_Nov_14_1248,59.983801499,chinese_cond1,001,1019,
images/scissors04a.jpg,leek,x,sounds/greatgatsby_english.wav,,,,,,,,,0,0,0,0,0,81,81,194,301.227737192,8.98027792573e-06,302.166813985,0.939086735598,,,,x,1,0.917153470335,2018_Nov_14_1248,59.983801499,chinese_cond1,001,1019,
images/scooter.jpg,pen,x,sounds/greatgatsby_english.wav,,,,,,,,,0,0,0,0,0,82,82,212,303.260409217,9.621726349e-06,304.634121114,1.37372216047,,,,x,1,1.35060735268,2018_Nov_14_1248,59.983801499,chinese_cond1,001,1019,
images/belt02a.jpg,snowman,x,sounds/greatgatsby_english.wav,,,,,,,,,0,0,0,0,0,83,83,224,305.73806286,9.621726349e-06,307.051390686,1.31333776785,,,,x,1,1.30057717266,2018_Nov_14_1248,59.983801499,chinese_cond1,001,1019,
images/button07.jpg,radish,x,sounds/greatgatsby_english.wav,,,,,,,,,0,0,0,0,0,84,84,215,308.164618959,8.98016151041e-06,309.085266703,0.920657686773,,,,x,1,0.90049416956,2018_Nov_14_1248,59.983801499,chinese_cond1,001,1019,
images/lightswitch02a.jpg,fork,x,sounds/greatgatsby_english.wav,,,,,,,,,0,0,0,0,0,85,85,177,310.197389125,9.30088572204e-06,311.052455164,0.855075982399,,,,x,1,0.833827780909,2018_Nov_14_1248,59.983801499,chinese_cond1,001,1019,
images/radish01.jpg,raisin,x,sounds/greatgatsby_english.wav,,,,,,,,,0,0,0,0,0,86,86,214,312.164128574,8.98027792573e-06,313.669770728,1.50565177598,,,,x,1,1.48398054112,2018_Nov_14_1248,59.983801499,chinese_cond1,001,1019,
images/lollipop03b.jpg,lollipop,z,sounds/greatgatsby_english.wav,,,,,,,,,0,0,0,0,0,87,87,42,314.763642102,8.98016151041e-06,315.903797934,1.14016545436,,,,x,0,1.11733256187,2018_Nov_14_1248,59.983801499,chinese_cond1,001,1019,
images/tie01.jpg,bench,x,sounds/greatgatsby_english.wav,,,,,,,,,0,0,0,0,0,88,88,130,317.002696316,9.62160993367e-06,318.070876195,1.06818950095,,,,z,0,1.05050581181,2018_Nov_14_1248,59.983801499,chinese_cond1,001,1019,
images/raisin.jpg,ruler,x,sounds/greatgatsby_english.wav,,,,,,,,,0,0,0,0,0,89,89,218,319.176885641,9.30088572204e-06,320.154762829,0.977887129993,,,,x,1,0.967174670077,2018_Nov_14_1248,59.983801499,chinese_cond1,001,1019,
images/beachumbrella01.jpg,beach umbrella,z,sounds/greatgatsby_english.wav,,,,,,,,,0,0,0,0,0,90,90,92,321.26112058,8.98016151041e-06,322.571910205,1.31080662401,,,,x,0,1.30041039677,2018_Nov_14_1248,59.983801499,chinese_cond1,001,1019,
images/paperclip04.jpg,eye drops,x,sounds/greatgatsby_english.wav,,,,,,,,,0,0,0,0,0,91,91,174,323.679413578,8.98027792573e-06,324.82261339,1.14320943388,,,,x,1,1.13386613934,2018_Nov_14_1248,59.983801499,chinese_cond1,001,1019,
images/aloe02.jpg,broad sword,x,sounds/greatgatsby_english.wav,,,,,,,,,0,0,0,0,0,92,92,137,325.945934807,8.98027792573e-06,327.306580461,1.36065495433,,,,x,1,1.3505890714,2018_Nov_14_1248,59.983801499,chinese_cond1,001,1019,
images/volleyball.jpg,volley ball,z,sounds/greatgatsby_english.wav,,,,,,,,,0,0,0,0,0,93,93,2,328.438482494,8.98027792573e-06,329.373781173,0.935308301123,,,,z,1,0.917147376575,2018_Nov_14_1248,59.983801499,chinese_cond1,001,1019,
images/watermelon01.jpg,orange,x,sounds/greatgatsby_english.wav,,,,,,,,,0,0,0,0,0,94,94,207,330.503627053,8.98016151041e-06,331.374288236,0.870670804405,,,,x,1,0.850449236343,2018_Nov_14_1248,59.983801499,chinese_cond1,001,1019,
images/shotglass.jpg,shot glass,z,sounds/greatgatsby_english.wav,,,,,,,,,0,0,0,0,0,95,95,86,332.48358092,8.98016151041e-06,335.425334466,2.94176348741,,,,x,0,2.91766149504,2018_Nov_14_1248,59.983801499,chinese_cond1,001,1019,
images/cactus.jpg,cactus,z,sounds/greatgatsby_english.wav,,,,,,,,,0,0,0,0,0,96,96,70,336.536609537,8.98027792573e-06,339.526218121,2.98961948825,,,,None,0,,2018_Nov_14_1248,59.983801499,chinese_cond1,001,1019,
images/saltshaker03c.jpg,salt shaker,z,sounds/greatgatsby_english.wav,,,,,,,,,0,0,0,0,0,97,97,63,340.638079153,9.30100213736e-06,342.477152996,1.83908378496,,,,z,1,1.81739587255,2018_Nov_14_1248,59.983801499,chinese_cond1,001,1019,
images/puzzle.jpg,puzzle,z,sounds/greatgatsby_english.wav,,,,,,,,,0,0,0,0,0,98,98,57,343.598247635,9.62160993367e-06,345.544574686,1.94633731432,,,,z,1,1.93406582135,2018_Nov_14_1248,59.983801499,chinese_cond1,001,1019,
images/paintbrush03a.jpg,paint brush,z,sounds/greatgatsby_english.wav,,,,,,,,,0,0,0,0,0,99,99,0,346.645523769,9.62160993367e-06,348.645392273,1.99987844611,,,,z,1,1.98409888777,2018_Nov_14_1248,59.983801499,chinese_cond1,001,1019,
images/glasses01b.jpg,calculator,x,sounds/greatgatsby_english.wav,,,,,,,,,0,0,0,0,0,100,100,142,349.738722266,9.30100213736e-06,350.962662101,1.2239494567,,,,x,1,1.20056684536,2018_Nov_14_1248,59.983801499,chinese_cond1,001,1019,
images/seagull.jpg,seagull,z,sounds/greatgatsby_english.wav,,,,,,,,,0,0,0,0,0,101,101,50,352.070392225,9.30100213736e-06,353.463279172,1.39289656887,,,,z,1,1.38392499194,2018_Nov_14_1248,59.983801499,chinese_cond1,001,1019,
images/corkscrew02a.jpg,masquerade mask,x,sounds/greatgatsby_english.wav,,,,,,,,,0,0,0,0,0,102,102,201,354.568245307,8.65943729877e-06,356.430739927,1.8625039208,,,,x,1,1.85074590484,2018_Nov_14_1248,59.983801499,chinese_cond1,001,1019,
images/bowlingball.jpg,bowling ball,z,sounds/greatgatsby_english.wav,,,,,,,,,0,0,0,0,0,103,103,20,357.563726965,9.621726349e-06,359.731564376,2.16784735397,,,,z,1,2.15078875341,2018_Nov_14_1248,59.983801499,chinese_cond1,001,1019,
images/handfan01b.jpg,handfan,z,sounds/greatgatsby_english.wav,,,,,,,,,0,0,0,0,0,104,104,69,360.845257377,9.30088572204e-06,362.082158579,1.23691082431,,,,z,1,1.21722229745,2018_Nov_14_1248,59.983801499,chinese_cond1,001,1019,
images/computerkeyboard01a.jpg,computer keyboard,z,sounds/greatgatsby_english.wav,,,,,,,,,0,0,0,0,0,105,105,61,363.199733928,9.30088572204e-06,365.282990021,2.08326571423,,,,z,1,2.06744029268,2018_Nov_14_1248,59.983801499,chinese_cond1,001,1019,
images/djmixer01.jpg,light bulb,x,sounds/greatgatsby_english.wav,,,,,,,,,0,0,0,0,0,106,106,196,366.406514135,9.30100213736e-06,368.283750775,1.87724690326,,,,x,1,1.8673449097,2018_Nov_14_1248,59.983801499,chinese_cond1,001,1019,
images/icecube02 (2).jpg,aloe,x,sounds/greatgatsby_english.wav,,,,,,,,,0,0,0,0,0,107,107,122,369.475971453,8.98016151041e-06,370.517653862,1.04169170978,,,,x,1,1.01716123172,2018_Nov_14_1248,59.983801499,chinese_cond1,001,1019,
images/flamingo.jpg,flamingo,z,sounds/greatgatsby_english.wav,,,,,,,,,0,0,0,0,0,108,108,52,371.616869117,8.98027792573e-06,373.468407208,1.85154771176,,,,z,1,1.8340468345,2018_Nov_14_1248,59.983801499,chinese_cond1,001,1019,
images/skateboard.jpg,key,x,sounds/greatgatsby_english.wav,,,,,,,,,0,0,0,0,0,109,109,189,374.560013958,9.621726349e-06,375.552269145,0.992265129928,,,,x,1,0.983819538262,2018_Nov_14_1248,59.983801499,chinese_cond1,001,1019,
images/bull.jpg,button,x,sounds/greatgatsby_english.wav,,,,,,,,,0,0,0,0,0,110,110,141,376.65952043,9.621726349e-06,378.803116976,2.14360680932,,,,x,1,2.13413041481,2018_Nov_14_1248,59.983801499,chinese_cond1,001,1019,
images/screwdriver02b.jpg,cola,x,sounds/greatgatsby_english.wav,,,,,,,,,0,0,0,0,0,111,111,158,379.897617607,9.30100213736e-06,382.620770389,2.7231624031,,,,x,1,2.70088692661,2018_Nov_14_1248,59.983801499,chinese_cond1,001,1019,
images/ear.jpg,bullet,x,sounds/greatgatsby_english.wav,,,,,,,,,0,0,0,0,0,112,112,139,383.725120736,9.621726349e-06,385.054725881,1.32961572928,,,,x,1,1.31726469705,2018_Nov_14_1248,59.983801499,chinese_cond1,001,1019,
images/swallow.jpg,mattress,x,sounds/greatgatsby_english.wav,,,,,,,,,0,0,0,0,0,113,113,202,386.157129121,9.30100213736e-06,387.738732529,1.58161335078,,,,x,1,1.56730943779,2018_Nov_14_1248,59.983801499,chinese_cond1,001,1019,
images/floorlamp.jpg,floor lamp,z,sounds/greatgatsby_english.wav,,,,,,,,,0,0,0,0,0,114,114,26,388.832469841,9.30100213736e-06,390.072680261,1.2402203622,,,,x,0,1.21723801282,2018_Nov_14_1248,59.983801499,chinese_cond1,001,1019,
images/parkbench03.jpg,park bench,z,sounds/greatgatsby_english.wav,,,,,,,,,0,0,0,0,0,115,115,71,391.178980602,8.65943729877e-06,392.489967793,1.3109961712,,,,z,1,1.30051302805,2018_Nov_14_1248,59.983801499,chinese_cond1,001,1019,
images/parkfountain.jpg,park fountain,z,sounds/greatgatsby_english.wav,,,,,,,,,0,0,0,0,0,116,116,93,393.611561156,9.30100213736e-06,395.790873065,2.179321851,,,,x,0,2.16753432853,2018_Nov_14_1248,59.983801499,chinese_cond1,001,1019,
images/egg01b (1).jpg,egg,z,sounds/greatgatsby_english.wav,,,,,,,,,0,0,0,0,0,117,117,19,396.904025648,8.98016151041e-06,397.574595296,0.67057927011,,,,z,1,0.650424091727,2018_Nov_14_1248,59.983801499,chinese_cond1,001,1019,
images/fork01.jpg,cooking pot,x,sounds/greatgatsby_english.wav,,,,,,,,,0,0,0,0,0,118,118,160,398.669672266,8.98027792573e-06,400.391998224,1.72233590065,,,,z,0,1.70069866243,2018_Nov_14_1248,59.983801499,chinese_cond1,001,1019,
images/cola.jpg,comb,x,sounds/greatgatsby_english.wav,,,,,,,,,0,0,0,0,0,119,119,157,401.513314804,8.98027792573e-06,402.759262633,1.24595745036,,,,x,1,1.23391270824,2018_Nov_14_1248,59.983801499,chinese_cond1,001,1019,
images/cauliflower01.jpg,glue stick,x,sounds/greatgatsby_english.wav,,,,,,,,,0,0,0,0,0,120,120,181,403.878100988,8.6595537141e-06,406.876823228,2.99873250374,,,,None,0,,2018_Nov_14_1248,59.983801499,chinese_cond1,001,1019,
images/coin01b.jpg,arrow,x,sounds/greatgatsby_english.wav,,,,,,,,,0,0,0,0,0,121,121,124,407.980618725,8.6595537141e-06,409.160898575,1.18028947152,,,,x,1,1.16721296438,2018_Nov_14_1248,59.983801499,chinese_cond1,001,1019,
images/electrictoothbrush01a.jpg,banjo,x,sounds/greatgatsby_english.wav,,,,,,,,,0,0,0,0,0,122,122,127,410.256342132,9.30100213736e-06,411.744884633,1.48855244368,,,,z,0,1.46728756453,2018_Nov_14_1248,59.983801499,chinese_cond1,001,1019,
images/hat05.jpg,hat,z,sounds/greatgatsby_english.wav,,,,,,,,,0,0,0,0,0,123,123,15,412.851095172,8.98027792573e-06,413.595365941,0.744280711981,,,,z,1,0.733770948718,2018_Nov_14_1248,59.983801499,chinese_cond1,001,1019,
images/ashtray02b.jpg,ashtray,z,sounds/greatgatsby_english.wav,,,,,,,,,0,0,0,0,0,124,124,43,414.710770318,8.98016151041e-06,415.6959138,0.985153103364,,,,x,0,0.967170179938,2018_Nov_14_1248,59.983801499,chinese_cond1,001,1019,
images/ladybug03.jpg,giraffe,x,sounds/greatgatsby_english.wav,,,,,,,,,0,0,0,0,0,125,125,178,416.799720843,8.6595537141e-06,418.029835232,1.23012368998,,,,z,0,1.2172296741,2018_Nov_14_1248,59.983801499,chinese_cond1,001,1019,
images/worldmap.jpg,scooter,x,sounds/greatgatsby_english.wav,,,,,,,,,0,0,0,0,0,126,126,220,419.160902103,9.30100213736e-06,420.397130109,1.23623858951,,,,x,1,1.21724667237,2018_Nov_14_1248,59.983801499,chinese_cond1,001,1019,
images/chessknight02b (1).jpg,cockroach,x,sounds/greatgatsby_english.wav,,,,,,,,,0,0,0,0,0,127,127,155,421.506550441,9.30088572204e-06,422.781047403,1.27450722549,,,,x,1,1.25056463236,2018_Nov_14_1248,59.983801499,chinese_cond1,001,1019,
images/charcoalbarbecue.jpg,charcoal barbecue,z,sounds/greatgatsby_english.wav,,,,,,,,,0,0,0,0,0,128,128,77,423.899208071,8.98027792573e-06,425.815161718,1.91596294753,,,,z,1,1.9007337495,2018_Nov_14_1248,59.983801499,chinese_cond1,001,1019,
images/blueberry02.jpg,blueberry,z,sounds/greatgatsby_english.wav,,,,,,,,,0,0,0,0,0,129,129,46,426.928629892,8.98027792573e-06,427.698978626,0.770358677022,,,,z,1,0.75044147484,2018_Nov_14_1248,59.983801499,chinese_cond1,001,1019,
images/lightbulb03b.jpg,treadmill,x,sounds/greatgatsby_english.wav,,,,,,,,,0,0,0,0,0,130,130,234,428.801915549,9.30100213736e-06,429.982962246,1.18105664034,,,,x,1,1.16727903322,2018_Nov_14_1248,59.983801499,chinese_cond1,001,1019,
images/masquerademask02b.jpg,mirror,x,sounds/greatgatsby_english.wav,,,,,,,,,0,0,0,0,0,131,131,204,431.088721849,9.62160993367e-06,432.467089999,1.37839444913,,,,x,1,1.36740296055,2018_Nov_14_1248,59.983801499,chinese_cond1,001,1019,
images/marker01a.jpg,marker,z,sounds/greatgatsby_english.wav,,,,,,,,,0,0,0,0,0,132,132,95,433.565425192,8.98027792573e-06,434.617431344,1.05201577453,,,,z,1,1.03385966062,2018_Nov_14_1248,59.983801499,chinese_cond1,001,1019,
images/baseball01a.jpg,baseball,z,sounds/greatgatsby_english.wav,,,,,,,,,0,0,0,0,0,133,133,74,435.750650586,8.98027792573e-06,437.101391039,1.35075007426,,,,z,1,1.33389128395,2018_Nov_14_1248,59.983801499,chinese_cond1,001,1019,
images/pepper05a.jpg,lighter,x,sounds/greatgatsby_english.wav,,,,,,,,,0,0,0,0,0,134,134,198,438.222584461,9.30088572204e-06,439.568682131,1.34610729199,,,,x,1,1.33391918684,2018_Nov_14_1248,59.983801499,chinese_cond1,001,1019,
images/battery03b.jpg,battery,z,sounds/greatgatsby_english.wav,,,,,,,,,0,0,0,0,0,135,135,34,440.678328573,9.30100213736e-06,441.802604461,1.12428615149,,,,z,1,1.10053567111,2018_Nov_14_1248,59.983801499,chinese_cond1,001,1019,
images/corn01.jpg,corn,z,sounds/greatgatsby_english.wav,,,,,,,,,0,0,0,0,0,136,136,22,442.903422689,8.98016151041e-06,443.786456713,0.883043966605,,,,z,1,0.867158569745,2018_Nov_14_1248,59.983801499,chinese_cond1,001,1019,
images/radio03a.jpg,radio,z,sounds/greatgatsby_english.wav,,,,,,,,,0,0,0,0,0,137,137,37,444.901266149,9.30100213736e-06,447.904014101,3.00275821553,,,,None,0,,2018_Nov_14_1248,59.983801499,chinese_cond1,001,1019,
images/gorilla.jpg,gorilla,z,sounds/greatgatsby_english.wav,,,,,,,,,0,0,0,0,0,138,138,80,449.017682406,9.30088572204e-06,450.004691211,0.987018426764,,,,z,1,0.967157992534,2018_Nov_14_1248,59.983801499,chinese_cond1,001,1019,
images/snowman.jpg,globe,x,sounds/greatgatsby_english.wav,,,,,,,,,0,0,0,0,0,139,139,180,451.11727387,8.98027792573e-06,453.088832819,1.97156857152,,,,x,1,1.9507623259,2018_Nov_14_1248,59.983801499,chinese_cond1,001,1019,
images/chameleon.jpg,50 dollar bill,x,sounds/greatgatsby_english.wav,,,,,,,,,0,0,0,0,0,140,140,120,454.201675584,8.98016151041e-06,455.439425419,1.23775977734,,,,x,1,1.21723544702,2018_Nov_14_1248,59.983801499,chinese_cond1,001,1019,
images/donut.jpg,rhinoceros,x,sounds/greatgatsby_english.wav,,,,,,,,,0,0,0,0,0,141,141,216,456.56747461,8.6595537141e-06,458.473523697,1.9060587089,,,,z,0,1.88405199815,2018_Nov_14_1248,59.983801499,chinese_cond1,001,1019,
images/orange.jpg,bat,x,sounds/greatgatsby_english.wav,,,,,,,,,0,0,0,0,0,142,142,128,459.598950659,8.98016151041e-06,460.940835316,1.34189427819,,,,x,1,1.31726277259,2018_Nov_14_1248,59.983801499,chinese_cond1,001,1019,
images/desktopcomputer.jpg,desktop computer,z,sounds/greatgatsby_english.wav,,,,,,,,,0,0,0,0,0,143,143,16,462.077589243,9.30088572204e-06,462.908054566,0.830475586816,,,,z,1,0.81717649824,2018_Nov_14_1248,59.983801499,chinese_cond1,001,1019,
images/flower01.jpg,bus,x,sounds/greatgatsby_english.wav,,,,,,,,,0,0,0,0,0,144,144,140,464.024233809,8.98016151041e-06,465.20857914,1.18435431132,,,,x,1,1.16720398411,2018_Nov_14_1248,59.983801499,chinese_cond1,001,1019,
images/parrot01.jpg,chameleon,x,sounds/greatgatsby_english.wav,,,,,,,,,0,0,0,0,0,145,145,150,466.323312245,9.30100213736e-06,467.542652916,1.21935093415,,,,x,1,1.20068519202,2018_Nov_14_1248,59.983801499,chinese_cond1,001,1019,
images/lemon02.jpg,lemon,z,sounds/greatgatsby_english.wav,,,,,,,,,0,0,0,0,0,146,146,14,468.655064629,9.30100213736e-06,469.359655582,0.704600254423,,,,z,1,0.68375263561,2018_Nov_14_1248,59.983801499,chinese_cond1,001,1019,
images/lettuce.jpg,mushroom,x,sounds/greatgatsby_english.wav,,,,,,,,,0,0,0,0,0,147,147,205,470.483548848,8.98016151041e-06,471.443573647,0.960036344244,,,,x,1,0.950537819881,2018_Nov_14_1248,59.983801499,chinese_cond1,001,1019,
images/cat.jpg,black olive,x,sounds/greatgatsby_english.wav,,,,,,,,,0,0,0,0,0,148,148,133,472.574953223,8.98027792573e-06,474.027524745,1.45258146524,,,,x,1,1.43394747458,2018_Nov_14_1248,59.983801499,chinese_cond1,001,1019,
images/dreamcatcher.jpg,dream catcher,z,sounds/greatgatsby_english.wav,,,,,,,,,0,0,0,0,0,149,149,48,475.12730319,9.30100213736e-06,475.644889059,0.517595490441,,,,x,0,0.500644331914,2018_Nov_14_1248,59.983801499,chinese_cond1,001,1019,
images/licenseplate.jpg,license plate,z,sounds/greatgatsby_english.wav,,,,,,,,,0,0,0,0,0,150,150,40,476.762724514,9.621726349e-06,479.06214067,2.2994260987,,,,z,1,2.28415424447,2018_Nov_14_1248,59.983801499,chinese_cond1,001,1019,
images/knife04.jpg,tooth brush,x,sounds/greatgatsby_english.wav,,,,,,,,,0,0,0,0,0,151,151,233,480.16016829,8.98027792573e-06,481.562778588,1.40262024058,,,,x,1,1.38393589656,2018_Nov_14_1248,59.983801499,chinese_cond1,001,1019,
images/8ball.jpg,nail clipper,x,sounds/greatgatsby_english.wav,,,,,,,,,0,0,0,0,0,152,152,206,482.680713467,9.30088572204e-06,483.629977376,0.9492738517,,,,x,1,0.933824958513,2018_Nov_14_1248,59.983801499,chinese_cond1,001,1019,
images/axe01.jpg,axe,z,sounds/greatgatsby_english.wav,,,,,,,,,0,0,0,0,0,153,153,104,484.734629844,9.30100213736e-06,485.230390211,0.495770308655,,,,x,0,0.483711454784,2018_Nov_14_1248,59.983801499,chinese_cond1,001,1019,
images/atm.jpg,atm,z,sounds/greatgatsby_english.wav,,,,,,,,,0,0,0,0,0,154,154,96,486.370398831,8.65943729877e-06,486.830801762,0.460412551998,,,,x,0,0.450369761209,2018_Nov_14_1248,59.983801499,chinese_cond1,001,1019,
images/cheetah.jpg,cheetah,z,sounds/greatgatsby_english.wav,,,,,,,,,0,0,0,0,0,155,155,82,488.007631918,8.98016151041e-06,489.198073547,1.19045157114,,,,z,1,1.16721392656,2018_Nov_14_1248,59.983801499,chinese_cond1,001,1019,
images/diaper01a.jpg,camera,x,sounds/greatgatsby_english.wav,,,,,,,,,0,0,0,0,0,156,156,143,490.318909042,8.98016151041e-06,491.448663196,1.12976345408,,,,x,1,1.11722159176,2018_Nov_14_1248,59.983801499,chinese_cond1,001,1019,
images/lip.jpg,boxing glove,x,sounds/greatgatsby_english.wav,,,,,,,,,0,0,0,0,0,157,157,136,492.551895503,9.30088572204e-06,493.765912498,1.2140269368,,,,x,1,1.20056556247,2018_Nov_14_1248,59.983801499,chinese_cond1,001,1019,
images/notebook02b.jpg,notebook,z,sounds/greatgatsby_english.wav,,,,,,,,,0,0,0,0,0,158,158,7,494.873090657,9.30088572204e-06,495.833110645,0.960029929876,,,,z,1,0.950503181899,2018_Nov_14_1248,59.983801499,chinese_cond1,001,1019,
images/redfox.jpg,red fox,z,sounds/greatgatsby_english.wav,,,,,,,,,0,0,0,0,0,159,159,1,496.947394737,8.98027792573e-06,498.217046541,1.26966142585,,,,z,1,1.25057232974,2018_Nov_14_1248,59.983801499,chinese_cond1,001,1019,
images/antelope.jpg,antelope,z,sounds/greatgatsby_english.wav,,,,,,,,,0,0,0,0,0,160,160,12,499.323452721,8.98027792573e-06,500.400952803,1.07750970346,,,,x,0,1.06718243158,2018_Nov_14_1248,59.983801499,chinese_cond1,001,1019,
images/mailbox01.jpg,mail box,z,sounds/greatgatsby_english.wav,,,,,,,,,0,0,0,0,0,161,161,73,501.521456992,9.30100213736e-06,502.634844023,1.11339665251,,,,x,0,1.10053214314,2018_Nov_14_1248,59.983801499,chinese_cond1,001,1019,
images/magnifyingglass01b.jpg,magnifying glass,z,sounds/greatgatsby_english.wav,,,,,,,,,0,0,0,0,0,162,162,64,503.742272667,8.98027792573e-06,506.052405132,2.31014176586,,,,z,1,2.30084914551,2018_Nov_14_1248,59.983801499,chinese_cond1,001,1019,
images/hand01a.jpg,cupcake,x,sounds/greatgatsby_english.wav,,,,,,,,,0,0,0,0,0,163,163,163,507.165424935,9.62160993367e-06,508.519684678,1.35426968546,,,,x,1,1.33392175264,2018_Nov_14_1248,59.983801499,chinese_cond1,001,1019,
images/candycane01a.jpg,lip,x,sounds/greatgatsby_english.wav,,,,,,,,,0,0,0,0,0,164,164,200,509.614244002,9.30088572204e-06,511.787202073,2.1729683337,,,,x,1,2.15081376978,2018_Nov_14_1248,59.983801499,chinese_cond1,001,1019,
images/coffeepot03b.jpg,coffee pot,z,sounds/greatgatsby_english.wav,,,,,,,,,0,0,0,0,0,165,165,107,512.908767212,9.30088572204e-06,513.737698199,0.828940928564,,,,z,1,0.817132238531,2018_Nov_14_1248,59.983801499,chinese_cond1,001,1019,
images/cockroach02.jpg,belt,x,sounds/greatgatsby_english.wav,,,,,,,,,0,0,0,0,0,166,166,129,514.837622893,9.30088572204e-06,516.071631818,1.23401886749,,,,x,1,1.2172229389,2018_Nov_14_1248,59.983801499,chinese_cond1,001,1019,
images/electricguitar02.jpg,electric guitar,z,sounds/greatgatsby_english.wav,,,,,,,,,0,0,0,0,0,167,167,100,517.175298705,9.30088572204e-06,518.072373329,0.897084886907,,,,x,0,0.883982080501,2018_Nov_14_1248,59.983801499,chinese_cond1,001,1019,
images/headphones02b.jpg,headphones,z,sounds/greatgatsby_english.wav,,,,,,,,,0,0,0,0,0,168,168,101,519.180846888,8.98027792573e-06,520.589453097,1.40861615201,,,,z,1,1.40060481895,2018_Nov_14_1248,59.983801499,chinese_cond1,001,1019,
images/microphone01.jpg,diaper,x,sounds/greatgatsby_english.wav,,,,,,,,,0,0,0,0,0,169,169,164,521.689296969,8.6595537141e-06,522.673327864,0.984040195588,,,,x,1,0.967173066456,2018_Nov_14_1248,59.983801499,chinese_cond1,001,1019,
images/parkingmeter.jpg,ear,x,sounds/greatgatsby_english.wav,,,,,,,,,0,0,0,0,0,170,170,171,523.774807743,9.30100213736e-06,526.224237466,2.44943966542,,,,x,1,2.43421495729,2018_Nov_14_1248,59.983801499,chinese_cond1,001,1019,
images/bandaid01.jpg,door handle,x,sounds/greatgatsby_english.wav,,,,,,,,,0,0,0,0,0,171,171,170,527.332362719,9.30088572204e-06,528.741555852,1.40920307452,,,,x,1,1.40062630735,2018_Nov_14_1248,59.983801499,chinese_cond1,001,1019,
images/lion.jpg,lion,z,sounds/greatgatsby_english.wav,,,,,,,,,0,0,0,0,0,172,172,44,529.853131761,8.6595537141e-06,530.725375711,0.872252929606,,,,z,1,0.850464951713,2018_Nov_14_1248,59.983801499,chinese_cond1,001,1019,
images/elbow.jpg,elbow,z,sounds/greatgatsby_english.wav,,,,,,,,,0,0,0,0,0,173,173,105,531.837542071,9.30100213736e-06,533.32604801,1.48851588124,,,,x,0,1.46728147077,2018_Nov_14_1248,59.983801499,chinese_cond1,001,1019,
images/lamp04b.jpg,parking meter,x,sounds/greatgatsby_english.wav,,,,,,,,,0,0,0,0,0,174,174,209,534.448279611,8.98027792573e-06,535.910045613,1.46177594434,,,,x,1,1.45062826376,2018_Nov_14_1248,59.983801499,chinese_cond1,001,1019,
images/dice05a.jpg,band aid,x,sounds/greatgatsby_english.wav,,,,,,,,,0,0,0,0,0,175,175,126,537.022974652,8.98016151041e-06,537.910560694,0.887595663546,,,,x,1,0.86713130842,2018_Nov_14_1248,59.983801499,chinese_cond1,001,1019,
images/drink.jpg,drink,z,sounds/greatgatsby_english.wav,,,,,,,,,0,0,0,0,0,176,176,117,539.012223064,9.30088572204e-06,540.011097648,0.998884847038,,,,z,1,0.983829480596,2018_Nov_14_1248,59.983801499,chinese_cond1,001,1019,
images/cake.jpg,cake,z,sounds/greatgatsby_english.wav,,,,,,,,,0,0,0,0,0,177,177,23,541.125469618,8.98016151041e-06,542.244991113,1.11953079549,,,,z,1,1.100518352,2018_Nov_14_1248,59.983801499,chinese_cond1,001,1019,
images/basketball01.jpg,basket ball,z,sounds/greatgatsby_english.wav,,,,,,,,,0,0,0,0,0,178,178,33,543.384999734,9.621726349e-06,544.178824731,0.793834618642,,,,z,1,0.783778036712,2018_Nov_14_1248,59.983801499,chinese_cond1,001,1019,
images/plate01b.jpg,plate,z,sounds/greatgatsby_english.wav,,,,,,,,,0,0,0,0,0,179,179,3,545.27924879,8.98027792573e-06,546.146000042,0.866760873585,,,,z,1,0.850455971435,2018_Nov_14_1248,59.983801499,chinese_cond1,001,1019,
images/dolphin01.jpg,dolphin,z,sounds/greatgatsby_english.wav,,,,,,,,,0,0,0,0,0,180,180,99,547.246900054,8.6595537141e-06,548.146512557,0.899621803779,,,,z,1,0.883802475873,2018_Nov_14_1248,59.983801499,chinese_cond1,001,1019,
images/cloud.jpg,ceiling fan,x,sounds/greatgatsby_english.wav,,,,,,,,,0,0,0,0,0,181,181,149,549.253125283,8.98027792573e-06,550.797190982,1.54407564178,,,,x,1,1.53396870638,2018_Nov_14_1248,59.983801499,chinese_cond1,001,1019,
images/handbag02a.jpg,candle,x,sounds/greatgatsby_english.wav,,,,,,,,,0,0,0,0,0,182,182,144,551.91392732,9.30088572204e-06,553.031105615,1.11718823668,,,,x,1,1.10052316287,2018_Nov_14_1248,59.983801499,chinese_cond1,001,1019,
images/camera01a.jpg,bull,x,sounds/greatgatsby_english.wav,,,,,,,,,0,0,0,0,0,183,183,138,554.141894471,9.30088572204e-06,555.798469704,1.65658485459,,,,z,0,1.63399122108,2018_Nov_14_1248,59.983801499,chinese_cond1,001,1019,
images/showerhead01.jpg,skateboard,x,sounds/greatgatsby_english.wav,,,,,,,,,0,0,0,0,0,184,184,223,556.906797654,9.62160993367e-06,557.965694855,1.05890746438,,,,x,1,1.05051703716,2018_Nov_14_1248,59.983801499,chinese_cond1,001,1019,
images/toucan.jpg,toucan,z,sounds/greatgatsby_english.wav,,,,,,,,,0,0,0,0,0,185,185,81,559.067324832,9.30100213736e-06,560.199795828,1.13248093787,,,,z,1,1.11738612258,2018_Nov_14_1248,59.983801499,chinese_cond1,001,1019,
images/eyedrops.jpg,bicycle,x,sounds/greatgatsby_english.wav,,,,,,,,,0,0,0,0,0,186,186,131,561.301005337,9.621726349e-06,562.300160233,0.999164838111,,,,x,1,0.98384423391,2018_Nov_14_1248,59.983801499,chinese_cond1,001,1019,
,,,sounds/greatgatsby_english.wav,,,,,,,,,0,0,0,0,,,,,,,,,,,,,,,2018_Nov_14_1248,59.983801499,chinese_cond1,001,1019,
images/tank.jpg,wallet,x,sounds/animalfarm_chinese.wav,,,,,,,,,0,1,1,1,0,0,0,237,583.429260753,9.621726349e-06,585.022635648,1.59338579932,,,573.303165726,x,1,1.58398862334,2018_Nov_14_1248,59.983801499,chinese_cond1,001,1019,
images/coin01b.jpg,arrow,x,sounds/animalfarm_chinese.wav,,,,,,,,,0,1,1,1,0,1,1,124,586.123442651,8.6595537141e-06,587.573298614,1.44986590592,,,,x,1,1.43395902053,2018_Nov_14_1248,59.983801499,chinese_cond1,001,1019,
images/globe.jpg,cloud,x,sounds/animalfarm_chinese.wav,,,,,,,,,0,1,1,1,0,2,2,154,588.698976702,8.98016151041e-06,589.573818826,0.874852066627,,,,x,1,0.850483553717,2018_Nov_14_1248,59.983801499,chinese_cond1,001,1019,
images/cigar.jpg,crocodile,x,sounds/animalfarm_chinese.wav,,,,,,,,,0,1,1,1,0,3,3,162,590.670299921,8.98027792573e-06,592.557903282,1.88761298265,,,,z,0,1.86739365966,2018_Nov_14_1248,59.983801499,chinese_cond1,001,1019,
images/plate01b.jpg,plate,z,sounds/animalfarm_chinese.wav,,,,,,,,,0,1,1,1,0,4,4,3,593.655006257,8.98027792573e-06,595.608681387,1.95368507213,,,,z,1,1.93407897092,2018_Nov_14_1248,59.983801499,chinese_cond1,001,1019,
images/antelope.jpg,antelope,z,sounds/animalfarm_chinese.wav,,,,,,,,,0,1,1,1,0,5,5,12,596.711926524,9.30088572204e-06,597.909314686,1.19739778398,,,,x,0,1.18393512676,2018_Nov_14_1248,59.983801499,chinese_cond1,001,1019,
images/cake.jpg,cake,z,sounds/animalfarm_chinese.wav,,,,,,,,,0,1,1,1,0,6,6,23,599.021458275,9.30100213736e-06,599.67641899,0.65497065708,,,,z,1,0.633780506323,2018_Nov_14_1248,59.983801499,chinese_cond1,001,1019,
images/peach01.jpg,peach,z,sounds/animalfarm_chinese.wav,,,,,,,,,0,1,1,1,0,7,7,106,600.804593583,9.621726349e-06,601.826938336,1.02235533646,,,,z,1,1.00050449686,2018_Nov_14_1248,59.983801499,chinese_cond1,001,1019,
images/mailbox01.jpg,mail box,z,sounds/animalfarm_chinese.wav,,,,,,,,,0,1,1,1,0,8,8,73,602.944632352,8.98016151041e-06,604.044213873,1.09959114261,,,,z,1,1.08389882091,2018_Nov_14_1248,59.983801499,chinese_cond1,001,1019,
images/wallet01.jpg,lamp,x,sounds/animalfarm_chinese.wav,,,,,,,,,0,1,1,1,0,9,9,193,605.14796479,8.98016151041e-06,606.378113496,1.23015832796,,,,x,1,1.21723961644,2018_Nov_14_1248,59.983801499,chinese_cond1,001,1019,
images/headphones02b.jpg,headphones,z,sounds/animalfarm_chinese.wav,,,,,,,,,0,1,1,1,0,10,10,101,607.484051421,8.98027792573e-06,608.928752408,1.44471060869,,,,z,1,1.43394875748,2018_Nov_14_1248,59.983801499,chinese_cond1,001,1019,
images/hairband.jpg,hairband,z,sounds/animalfarm_chinese.wav,,,,,,,,,0,1,1,1,0,11,11,66,610.037941499,9.62160993367e-06,611.346046034,1.30811543961,,,,x,0,1.28390921233,2018_Nov_14_1248,59.983801499,chinese_cond1,001,1019,
images/axe01.jpg,axe,z,sounds/animalfarm_chinese.wav,,,,,,,,,0,1,1,1,0,12,12,104,612.448799503,8.98027792573e-06,613.729985138,1.28119589807,,,,z,1,1.26723515836,2018_Nov_14_1248,59.983801499,chinese_cond1,001,1019,
images/blueberry02.jpg,blueberry,z,sounds/animalfarm_chinese.wav,,,,,,,,,0,1,1,1,0,13,13,46,614.841518391,8.98027792573e-06,615.647196017,0.805687568616,,,,z,1,0.783831597539,2018_Nov_14_1248,59.983801499,chinese_cond1,001,1019,
images/lip.jpg,boxing glove,x,sounds/animalfarm_chinese.wav,,,,,,,,,0,1,1,1,0,14,14,136,616.748183266,9.30100213736e-06,617.731014016,0.982841013349,,,,x,1,0.967164086178,2018_Nov_14_1248,59.983801499,chinese_cond1,001,1019,
images/nailclipper03a.jpg,aquarium,x,sounds/animalfarm_chinese.wav,,,,,,,,,0,1,1,1,0,15,15,123,618.830176994,8.98027792573e-06,621.231908512,2.40174113959,,,,x,1,2.38418990897,2018_Nov_14_1248,59.983801499,chinese_cond1,001,1019,
images/table02.jpg,table,z,sounds/animalfarm_chinese.wav,,,,,,,,,0,1,1,1,0,16,16,49,622.345075206,9.621726349e-06,623.199074843,0.854009579285,,,,z,1,0.833788652672,2018_Nov_14_1248,59.983801499,chinese_cond1,001,1019,
images/sunglasses03a.jpg,sun glasses,z,sounds/animalfarm_chinese.wav,,,,,,,,,0,1,1,1,0,17,17,17,624.307041019,9.30088572204e-06,626.666641116,2.35961003962,,,,z,1,2.35086072364,2018_Nov_14_1248,59.983801499,chinese_cond1,001,1019,
images/pepper05a.jpg,lighter,x,sounds/animalfarm_chinese.wav,,,,,,,,,0,1,1,1,0,18,18,198,627.786924327,8.98027792573e-06,628.800513349,1.01359896455,,,,x,1,1.00050193106,2018_Nov_14_1248,59.983801499,chinese_cond1,001,1019,
images/banana04a.jpg,banana,z,sounds/animalfarm_chinese.wav,,,,,,,,,0,1,1,1,0,19,19,118,629.907435892,8.6595537141e-06,630.584306139,0.676880509709,,,,z,1,0.667084354558,2018_Nov_14_1248,59.983801499,chinese_cond1,001,1019,
images/hand01a.jpg,cupcake,x,sounds/animalfarm_chinese.wav,,,,,,,,,0,1,1,1,0,20,20,163,631.69381018,8.98027792573e-06,632.834908937,1.14110869996,,,,x,1,1.1172260819,2018_Nov_14_1248,59.983801499,chinese_cond1,001,1019,
images/eyedrops.jpg,bicycle,x,sounds/animalfarm_chinese.wav,,,,,,,,,0,1,1,1,0,21,21,131,633.934095969,9.30100213736e-06,634.868746147,0.934659799794,,,,x,1,0.917162450613,2018_Nov_14_1248,59.983801499,chinese_cond1,001,1019,
images/doll.jpg,carrot,x,sounds/animalfarm_chinese.wav,,,,,,,,,0,1,1,1,0,22,22,146,635.978057754,9.30088572204e-06,637.102640254,1.12459212088,,,,x,1,1.10053342604,2018_Nov_14_1248,59.983801499,chinese_cond1,001,1019,
images/dresser02.jpg,dresser,z,sounds/animalfarm_chinese.wav,,,,,,,,,0,1,1,1,0,23,23,87,638.222909994,8.98016151041e-06,638.903106777,0.6802064043,,,,z,1,0.667070242809,2018_Nov_14_1248,59.983801499,chinese_cond1,001,1019,
images/nametag01a.jpg,name tag,z,sounds/animalfarm_chinese.wav,,,,,,,,,0,1,1,1,0,24,24,108,640.024127009,8.98027792573e-06,641.337059383,1.31294231676,,,,z,1,1.30057749338,2018_Nov_14_1248,59.983801499,chinese_cond1,001,1019,
images/arrow02.jpg,hammer,x,sounds/animalfarm_chinese.wav,,,,,,,,,0,1,1,1,0,25,25,184,642.433463183,9.30100213736e-06,644.43785067,2.00439775013,,,,x,1,1.98407932371,2018_Nov_14_1248,59.983801499,chinese_cond1,001,1019,
images/sportshorts02.jpg,tape,x,sounds/animalfarm_chinese.wav,,,,,,,,,0,1,1,1,0,26,26,230,645.544121826,9.30100213736e-06,647.355284773,1.81117288943,,,,x,1,1.80072759162,2018_Nov_14_1248,59.983801499,chinese_cond1,001,1019,
images/handfan01b.jpg,handfan,z,sounds/animalfarm_chinese.wav,,,,,,,,,0,1,1,1,0,27,27,69,648.468393096,9.621726349e-06,649.28909562,0.820712145651,,,,z,1,0.800453052972,2018_Nov_14_1248,59.983801499,chinese_cond1,001,1019,
images/cola.jpg,comb,x,sounds/animalfarm_chinese.wav,,,,,,,,,0,1,1,1,0,28,28,157,650.408963174,8.65943729877e-06,651.689726417,1.28077254409,,,,x,1,1.26725472242,2018_Nov_14_1248,59.983801499,chinese_cond1,001,1019,
images/charcoalbarbecue.jpg,charcoal barbecue,z,sounds/animalfarm_chinese.wav,,,,,,,,,0,1,1,1,0,29,29,77,652.805545168,8.98027792573e-06,654.023654584,1.21811935888,,,,z,1,1.20056620392,2018_Nov_14_1248,59.983801499,chinese_cond1,001,1019,
images/lychee02a.jpg,lychee,z,sounds/animalfarm_chinese.wav,,,,,,,,,0,1,1,1,0,30,30,62,655.145521203,9.62160993367e-06,656.124434646,0.978923385148,,,,z,1,0.967418419314,2018_Nov_14_1248,59.983801499,chinese_cond1,001,1019,
images/swallow.jpg,mattress,x,sounds/animalfarm_chinese.wav,,,,,,,,,0,1,1,1,0,31,31,202,657.224313156,9.30100213736e-06,658.874896326,1.65059279185,,,,x,1,1.63400661584,2018_Nov_14_1248,59.983801499,chinese_cond1,001,1019,
images/tissuebox03.jpg,tissue box,z,sounds/animalfarm_chinese.wav,,,,,,,,,0,1,1,1,0,32,32,58,659.999307239,8.98027792573e-06,660.875413011,0.876115393476,,,,z,1,0.867154079722,2018_Nov_14_1248,59.983801499,chinese_cond1,001,1019,
images/electricguitar02.jpg,electric guitar,z,sounds/animalfarm_chinese.wav,,,,,,,,,0,1,1,1,0,33,33,100,661.976413409,9.30100213736e-06,663.609436368,1.63303290168,,,,z,1,1.61733192054,2018_Nov_14_1248,59.983801499,chinese_cond1,001,1019,
images/blackolive.jpg,tank,x,sounds/animalfarm_chinese.wav,,,,,,,,,0,1,1,1,0,34,34,229,664.722897486,9.30100213736e-06,666.77691874,2.05403151677,,,,x,1,2.03410822083,2018_Nov_14_1248,59.983801499,chinese_cond1,001,1019,
images/orange.jpg,bat,x,sounds/animalfarm_chinese.wav,,,,,,,,,0,1,1,1,0,35,35,128,667.901237284,9.30100213736e-06,669.177563008,1.27633566584,,,,x,1,1.26728005952,2018_Nov_14_1248,59.983801499,chinese_cond1,001,1019,
images/treadmill.jpg,lily,x,sounds/animalfarm_chinese.wav,,,,,,,,,0,1,1,1,0,36,36,199,670.282173461,9.30100213736e-06,671.244724913,0.962561394321,,,,x,1,0.950468864525,2018_Nov_14_1248,59.983801499,chinese_cond1,001,1019,
images/licenseplate.jpg,license plate,z,sounds/animalfarm_chinese.wav,,,,,,,,,0,1,1,1,0,37,37,40,672.361194089,9.30100213736e-06,674.278842435,1.91765828792,,,,z,1,1.90074080543,2018_Nov_14_1248,59.983801499,chinese_cond1,001,1019,
images/scooter.jpg,pen,x,sounds/animalfarm_chinese.wav,,,,,,,,,0,1,1,1,0,38,38,212,675.370314802,8.98027792573e-06,677.11290274,1.742597559,,,,x,1,1.73402143328,2018_Nov_14_1248,59.983801499,chinese_cond1,001,1019,
images/ashtray02b.jpg,ashtray,z,sounds/animalfarm_chinese.wav,,,,,,,,,0,1,1,1,0,39,39,43,678.225783349,8.98016151041e-06,679.480174845,1.25440143829,,,,z,1,1.23390982172,2018_Nov_14_1248,59.983801499,chinese_cond1,001,1019,
images/pictureframe04.jpg,picture frame,z,sounds/animalfarm_chinese.wav,,,,,,,,,0,1,1,1,0,40,40,41,680.600698598,9.30100213736e-06,683.214449649,2.61376099358,,,,x,0,2.60089680494,2018_Nov_14_1248,59.983801499,chinese_cond1,001,1019,
images/barrel01.jpg,barrel,z,sounds/animalfarm_chinese.wav,,,,,,,,,0,1,1,1,0,41,41,9,684.344437289,9.30100213736e-06,685.264984968,0.920557300677,,,,z,1,0.900481019984,2018_Nov_14_1248,59.983801499,chinese_cond1,001,1019,
images/gluestick.jpg,squirrel,x,sounds/animalfarm_chinese.wav,,,,,,,,,0,1,1,1,0,42,42,226,686.372642608,8.65943729877e-06,688.432495883,2.05986321811,,,,x,1,2.05078548205,2018_Nov_14_1248,59.983801499,chinese_cond1,001,1019,
images/computerkeyboard01a.jpg,computer keyboard,z,sounds/animalfarm_chinese.wav,,,,,,,,,0,1,1,1,0,43,43,61,689.548677371,9.30100213736e-06,690.549680913,1.00101348385,,,,z,1,0.983838781714,2018_Nov_14_1248,59.983801499,chinese_cond1,001,1019,
images/plant01.jpg,plant,z,sounds/animalfarm_chinese.wav,,,,,,,,,0,1,1,1,0,44,44,47,691.661951829,9.62160993367e-06,692.500166134,0.838224248029,,,,z,1,0.81709888333,2018_Nov_14_1248,59.983801499,chinese_cond1,001,1019,
images/mushroom01.jpg,shower head,x,sounds/animalfarm_chinese.wav,,,,,,,,,0,1,1,1,0,45,45,222,693.616172508,9.30100213736e-06,694.600711748,0.984549182467,,,,x,1,0.96716344473,2018_Nov_14_1248,59.983801499,chinese_cond1,001,1019,
images/bull.jpg,button,x,sounds/animalfarm_chinese.wav,,,,,,,,,0,1,1,1,0,46,46,141,695.705040607,9.621726349e-06,696.901305598,1.19627493375,,,,x,1,1.18388862198,2018_Nov_14_1248,59.983801499,chinese_cond1,001,1019,
images/8ball.jpg,nail clipper,x,sounds/animalfarm_chinese.wav,,,,,,,,,0,1,1,1,0,47,47,206,698.017562456,9.94233414531e-06,699.785376519,1.76782432594,,,,x,1,1.75069869438,2018_Nov_14_1248,59.983801499,chinese_cond1,001,1019,
images/daisy.jpg,daisy,z,sounds/animalfarm_chinese.wav,,,,,,,,,0,1,1,1,0,48,48,6,700.887563912,8.98027792573e-06,702.836163284,1.94860899344,,,,x,0,1.93407576368,2018_Nov_14_1248,59.983801499,chinese_cond1,001,1019,
images/straw.jpg,straw,z,sounds/animalfarm_chinese.wav,,,,,,,,,0,1,1,1,0,49,49,109,703.926502538,9.94245056063e-06,704.819994047,0.893501451937,,,,z,1,0.883807607461,2018_Nov_14_1248,59.983801499,chinese_cond1,001,1019,
images/pen03c.jpg,pepper,x,sounds/animalfarm_chinese.wav,,,,,,,,,0,1,1,1,0,50,50,211,705.913990182,9.30100213736e-06,706.937199603,1.02321904269,,,,x,1,1.00050417613,2018_Nov_14_1248,59.983801499,chinese_cond1,001,1019,
images/lipstick04.jpg,lipstick,z,sounds/animalfarm_chinese.wav,,,,,,,,,0,1,1,1,0,51,51,56,708.037070095,8.98027792573e-06,709.987990858,1.95093102602,,,,z,1,1.93406742497,2018_Nov_14_1248,59.983801499,chinese_cond1,001,1019,
images/knife04.jpg,tooth brush,x,sounds/animalfarm_chinese.wav,,,,,,,,,0,1,1,1,0,52,52,233,711.083947571,8.6595537141e-06,712.62201768,1.53807908902,,,,x,1,1.51732896979,2018_Nov_14_1248,59.983801499,chinese_cond1,001,1019,
images/thumbtack02a.jpg,thumb tack,z,sounds/animalfarm_chinese.wav,,,,,,,,,0,1,1,1,0,53,53,60,713.732075288,9.30088572204e-06,714.922600304,1.19053495908,,,,z,1,1.1672264348,2018_Nov_14_1248,59.983801499,chinese_cond1,001,1019,
images/cheetah.jpg,cheetah,z,sounds/animalfarm_chinese.wav,,,,,,,,,0,1,1,1,0,54,54,82,716.023444831,8.98027792573e-06,717.073140498,1.04970464646,,,,x,0,1.03385420842,2018_Nov_14_1248,59.983801499,chinese_cond1,001,1019,
images/lock02a.jpg,lock,z,sounds/animalfarm_chinese.wav,,,,,,,,,0,1,1,1,0,55,55,65,718.182377056,9.62160993367e-06,719.056980562,0.874613448861,,,,z,1,0.850475856336,2018_Nov_14_1248,59.983801499,chinese_cond1,001,1019,
images/apple06.jpg,apple,z,sounds/animalfarm_chinese.wav,,,,,,,,,0,1,1,1,0,56,56,13,720.182873855,9.30100213736e-06,721.057490511,0.87462627783,,,,z,1,0.850460461574,2018_Nov_14_1248,59.983801499,chinese_cond1,001,1019,
images/apricot.jpg,apricot,z,sounds/animalfarm_chinese.wav,,,,,,,,,0,1,1,1,0,57,57,32,722.174206644,8.98027792573e-06,723.574808897,1.4006121956,,,,x,0,1.38385731936,2018_Nov_14_1248,59.983801499,chinese_cond1,001,1019,
images/cherry01.jpg,highlighter,x,sounds/animalfarm_chinese.wav,,,,,,,,,0,1,1,1,0,58,58,187,724.683114397,9.30100213736e-06,726.725608235,2.04250506265,,,,x,1,2.03405145288,2018_Nov_14_1248,59.983801499,chinese_cond1,001,1019,
images/broadsword.jpg,teapot,x,sounds/animalfarm_chinese.wav,,,,,,,,,0,1,1,1,0,59,59,231,727.817222361,8.98016151041e-06,730.809842211,2.99263075378,,,,None,0,,2018_Nov_14_1248,59.983801499,chinese_cond1,001,1019,
images/djmixer01.jpg,light bulb,x,sounds/animalfarm_chinese.wav,,,,,,,,,0,1,1,1,0,60,60,196,731.930695346,8.6595537141e-06,733.22727054,1.29658481607,,,,x,1,1.28390760883,2018_Nov_14_1248,59.983801499,chinese_cond1,001,1019,
images/dragonfly02.jpg,dragon fly,z,sounds/animalfarm_chinese.wav,,,,,,,,,0,1,1,1,0,61,61,29,734.324231115,9.30100213736e-06,736.194703392,1.87048157805,,,,z,1,1.85072120919,2018_Nov_14_1248,59.983801499,chinese_cond1,001,1019,
images/parkingmeter.jpg,ear,x,sounds/animalfarm_chinese.wav,,,,,,,,,0,1,1,1,0,62,62,171,737.295350034,8.98027792573e-06,738.228554073,0.933213019511,,,,x,1,0.91714930092,2018_Nov_14_1248,59.983801499,chinese_cond1,001,1019,
images/comb02a.jpg,diploma,x,sounds/animalfarm_chinese.wav,,,,,,,,,0,1,1,1,0,63,63,166,739.33157759,9.30088572204e-06,740.462486987,1.13091998035,,,,x,1,1.11722223321,2018_Nov_14_1248,59.983801499,chinese_cond1,001,1019,
images/mattress.jpg,cat,x,sounds/animalfarm_chinese.wav,,,,,,,,,0,1,1,1,0,64,64,147,741.565353671,9.30100213736e-06,742.512987346,0.947643297375,,,,x,1,0.933824317181,2018_Nov_14_1248,59.983801499,chinese_cond1,001,1019,
images/paintbrush03a.jpg,paint brush,z,sounds/animalfarm_chinese.wav,,,,,,,,,0,1,1,1,0,65,65,0,743.611785021,9.621726349e-06,745.36372844,1.75195336179,,,,x,0,1.73402271618,2018_Nov_14_1248,59.983801499,chinese_cond1,001,1019,
images/50dollarbill.jpg,cherry,x,sounds/animalfarm_chinese.wav,,,,,,,,,0,1,1,1,0,66,66,151,746.485039567,9.62160993367e-06,748.381158438,1.89612913318,,,,x,1,1.88406610989,2018_Nov_14_1248,59.983801499,chinese_cond1,001,1019,
images/kiwi03.jpg,backpack,x,sounds/animalfarm_chinese.wav,,,,,,,,,0,1,1,1,0,67,67,125,749.508228783,8.6595537141e-06,750.715085001,1.20686551905,,,,x,1,1.18388188689,2018_Nov_14_1248,59.983801499,chinese_cond1,001,1019,
images/rhinoceros01.jpg,envelope,x,sounds/animalfarm_chinese.wav,,,,,,,,,0,1,1,1,0,68,68,173,751.826445064,8.98016151041e-06,752.648934976,0.822499854024,,,,x,1,0.800467164721,2018_Nov_14_1248,59.983801499,chinese_cond1,001,1019,
images/aloe02.jpg,broad sword,x,sounds/animalfarm_chinese.wav,,,,,,,,,0,1,1,1,0,69,69,137,753.769964188,8.98016151041e-06,755.399653235,1.62969930959,,,,x,1,1.61735661607,2018_Nov_14_1248,59.983801499,chinese_cond1,001,1019,
images/mitten01.jpg,mitten,z,sounds/animalfarm_chinese.wav,,,,,,,,,0,1,1,1,0,70,70,102,756.519335411,8.6595537141e-06,758.650455522,2.13112941233,,,,x,0,2.11745636084,2018_Nov_14_1248,59.983801499,chinese_cond1,001,1019,
images/bus.jpg,microphone,x,sounds/animalfarm_chinese.wav,,,,,,,,,0,1,1,1,0,71,71,203,759.767628364,8.98027792573e-06,760.650969641,0.88335025683,,,,x,1,0.867130025523,2018_Nov_14_1248,59.983801499,chinese_cond1,001,1019,
images/ladybug03.jpg,giraffe,x,sounds/animalfarm_chinese.wav,,,,,,,,,0,1,1,1,0,72,72,178,761.752560811,9.62160993367e-06,763.368347489,1.61579694145,,,,x,1,1.60066524311,2018_Nov_14_1248,59.983801499,chinese_cond1,001,1019,
images/tape01a.jpg,tie,x,sounds/animalfarm_chinese.wav,,,,,,,,,0,1,1,1,0,73,73,232,764.494293701,8.98027792573e-06,766.469139738,1.97485630016,,,,x,1,1.95075815648,2018_Nov_14_1248,59.983801499,chinese_cond1,001,1019,
images/printer03a.jpg,printer,z,sounds/animalfarm_chinese.wav,,,,,,,,,0,1,1,1,0,74,74,72,767.577381414,9.30088572204e-06,768.519651323,0.942279851064,,,,z,1,0.933819826925,2018_Nov_14_1248,59.983801499,chinese_cond1,001,1019,
images/ostrich.jpg,ostrich,z,sounds/animalfarm_chinese.wav,,,,,,,,,0,1,1,1,0,75,75,76,769.620152356,8.98027792573e-06,770.770245141,1.15010272746,,,,x,0,1.13384785817,2018_Nov_14_1248,59.983801499,chinese_cond1,001,1019,
images/spoon02b.jpg,spoon,z,sounds/animalfarm_chinese.wav,,,,,,,,,0,1,1,1,0,76,76,38,771.862107508,8.65943729877e-06,773.737664843,1.87556599546,,,,z,1,1.8674052055,2018_Nov_14_1248,59.983801499,chinese_cond1,001,1019,
images/handbag02a.jpg,candle,x,sounds/animalfarm_chinese.wav,,,,,,,,,0,1,1,1,0,77,77,144,774.852590381,8.98016151041e-06,775.988246795,1.13566635596,,,,x,1,1.11721613957,2018_Nov_14_1248,59.983801499,chinese_cond1,001,1019,
images/marker01a.jpg,marker,z,sounds/animalfarm_chinese.wav,,,,,,,,,0,1,1,1,0,78,78,95,777.085112115,9.30100213736e-06,779.272453638,2.18735114462,,,,z,1,2.16751893389,2018_Nov_14_1248,59.983801499,chinese_cond1,001,1019,
images/leek.jpg,donut,x,sounds/animalfarm_chinese.wav,,,,,,,,,0,1,1,1,0,79,79,169,780.373275394,9.621726349e-06,781.823072986,1.44980753434,,,,x,1,1.43395517196,2018_Nov_14_1248,59.983801499,chinese_cond1,001,1019,
images/carrot02.jpg,corkscrew,x,sounds/animalfarm_chinese.wav,,,,,,,,,0,1,1,1,0,80,80,161,782.925832869,8.98027792573e-06,784.006964494,1.08114092622,,,,x,1,1.06719622272,2018_Nov_14_1248,59.983801499,chinese_cond1,001,1019,
images/cocktailshrimp01.jpg,cocktail shrimp,z,sounds/animalfarm_chinese.wav,,,,,,,,,0,1,1,1,0,81,81,30,785.120702716,9.621726349e-06,786.640969827,1.52027769457,,,,z,1,1.50064497336,2018_Nov_14_1248,59.983801499,chinese_cond1,001,1019,
images/snowman.jpg,globe,x,sounds/animalfarm_chinese.wav,,,,,,,,,0,1,1,1,0,82,82,180,787.750944047,9.30088572204e-06,788.858222272,1.10728816746,,,,x,1,1.08388759557,2018_Nov_14_1248,59.983801499,chinese_cond1,001,1019,
images/button07.jpg,radish,x,sounds/animalfarm_chinese.wav,,,,,,,,,0,1,1,1,0,83,83,215,789.96926482,9.30100213736e-06,792.209048679,2.23979380098,,,,x,1,2.21746797103,2018_Nov_14_1248,59.983801499,chinese_cond1,001,1019,
images/screw03c.jpg,screw,z,sounds/animalfarm_chinese.wav,,,,,,,,,0,1,1,1,0,84,84,84,793.301588091,9.30100213736e-06,794.376322901,1.07474507357,,,,x,0,1.05056482484,2018_Nov_14_1248,59.983801499,chinese_cond1,001,1019,
images/cauliflower01.jpg,glue stick,x,sounds/animalfarm_chinese.wav,,,,,,,,,0,1,1,1,0,85,85,181,795.491399179,8.98027792573e-06,796.810233813,1.31884425646,,,,x,1,1.30055632559,2018_Nov_14_1248,59.983801499,chinese_cond1,001,1019,
images/dolphin01.jpg,dolphin,z,sounds/animalfarm_chinese.wav,,,,,,,,,0,1,1,1,0,86,86,99,797.909326553,9.30100213736e-06,798.744067431,0.834750820883,,,,z,1,0.817123258254,2018_Nov_14_1248,59.983801499,chinese_cond1,001,1019,
images/weight01.jpg,weight,z,sounds/animalfarm_chinese.wav,,,,,,,,,0,1,1,1,0,87,87,67,799.848038043,9.30100213736e-06,800.777962692,0.92993459187,,,,z,1,0.917175279465,2018_Nov_14_1248,59.983801499,chinese_cond1,001,1019,
images/dice05a.jpg,band aid,x,sounds/animalfarm_chinese.wav,,,,,,,,,0,1,1,1,0,88,88,126,801.889179713,9.621726349e-06,802.961818921,1.07264947123,,,,x,1,1.05052858312,2018_Nov_14_1248,59.983801499,chinese_cond1,001,1019,
images/fireextinguisher02.jpg,fire extinguisher,z,sounds/animalfarm_chinese.wav,,,,,,,,,0,1,1,1,0,89,89,175,804.072652358,9.30088572204e-06,805.312410879,1.23976846377,,,,z,1,1.21722518397,2018_Nov_14_1248,59.983801499,chinese_cond1,001,1019,
images/corn01.jpg,corn,z,sounds/animalfarm_chinese.wav,,,,,,,,,0,1,1,1,0,90,90,22,806.410519641,9.621726349e-06,807.396413614,0.985903915367,,,,z,1,0.967287243693,2018_Nov_14_1248,59.983801499,chinese_cond1,001,1019,
images/gamecontroller01.jpg,game controller,z,sounds/animalfarm_chinese.wav,,,,,,,,,0,1,1,1,0,91,91,112,808.515028105,8.6595537141e-06,809.380122182,0.865104019991,,,,z,1,0.850461423746,2018_Nov_14_1248,59.983801499,chinese_cond1,001,1019,
images/acousticguitar02.jpg,acoustic guitar,z,sounds/animalfarm_chinese.wav,,,,,,,,,0,1,1,1,0,92,92,97,810.493134609,9.30100213736e-06,811.380632773,0.887508106302,,,,z,1,0.867138364352,2018_Nov_14_1248,59.983801499,chinese_cond1,001,1019,
images/toothbrush03a.jpg,parrot,x,sounds/animalfarm_chinese.wav,,,,,,,,,0,1,1,1,0,93,93,210,812.471957929,9.30100213736e-06,814.398072071,1.92612408509,,,,x,1,1.91740748263,2018_Nov_14_1248,59.983801499,chinese_cond1,001,1019,
images/flower01.jpg,bus,x,sounds/animalfarm_chinese.wav,,,,,,,,,0,1,1,1,0,94,94,140,815.510649277,9.30100213736e-06,816.548627018,1.03798768297,,,,x,1,1.01718464459,2018_Nov_14_1248,59.983801499,chinese_cond1,001,1019,
images/belt02a.jpg,snowman,x,sounds/animalfarm_chinese.wav,,,,,,,,,0,1,1,1,0,95,95,224,817.650521271,9.621726349e-06,819.882826517,2.23231550911,,,,x,1,2.21748593159,2018_Nov_14_1248,59.983801499,chinese_cond1,001,1019,
images/chessknight02b (1).jpg,cockroach,x,sounds/animalfarm_chinese.wav,,,,,,,,,0,1,1,1,0,96,96,155,820.990447594,9.621726349e-06,823.000296348,2.0098583753,,,,x,1,2.00078224274,2018_Nov_14_1248,59.983801499,chinese_cond1,001,1019,
images/crocodile.jpg,triangle ruler,x,sounds/animalfarm_chinese.wav,,,,,,,,,0,1,1,1,0,97,97,235,824.097508369,8.98016151041e-06,825.200856458,1.10335771041,,,,x,1,1.08386739017,2018_Nov_14_1248,59.983801499,chinese_cond1,001,1019,
images/toucan.jpg,toucan,z,sounds/animalfarm_chinese.wav,,,,,,,,,0,1,1,1,0,98,98,81,826.300211228,9.621726349e-06,827.184684014,0.884483049507,,,,x,0,0.867134836386,2018_Nov_14_1248,59.983801499,chinese_cond1,001,1019,
images/graduationcap.jpg,graduation cap,z,sounds/animalfarm_chinese.wav,,,,,,,,,0,1,1,1,0,99,99,35,828.287194375,9.30088572204e-06,829.835395153,1.54821071995,,,,z,1,1.53400366521,2018_Nov_14_1248,59.983801499,chinese_cond1,001,1019,
images/eraser.jpg,eraser,z,sounds/animalfarm_chinese.wav,,,,,,,,,0,1,1,1,0,100,100,110,830.941657649,8.33871308714e-06,831.702512349,0.760864963522,,,,z,1,0.750445002806,2018_Nov_14_1248,59.983801499,chinese_cond1,001,1019,
images/tie01.jpg,bench,x,sounds/animalfarm_chinese.wav,,,,,,,,,0,1,1,1,0,101,101,130,832.800056319,8.6595537141e-06,834.23649613,1.43644943263,,,,z,0,1.41728496668,2018_Nov_14_1248,59.983801499,chinese_cond1,001,1019,
images/pouch01b.jpg,pouch,z,sounds/animalfarm_chinese.wav,,,,,,,,,0,1,1,1,0,102,102,25,835.347648044,9.30088572204e-06,836.220329459,0.872691357625,,,,x,0,0.850460140849,2018_Nov_14_1248,59.983801499,chinese_cond1,001,1019,
images/glasses01b.jpg,calculator,x,sounds/animalfarm_chinese.wav,,,,,,,,,0,1,1,1,0,103,103,142,837.312265271,8.6595537141e-06,838.770986973,1.45873100287,,,,x,1,1.45061960421,2018_Nov_14_1248,59.983801499,chinese_cond1,001,1019,
images/croissant02b.jpg,croissant,z,sounds/animalfarm_chinese.wav,,,,,,,,,0,1,1,1,0,104,104,39,839.881025338,8.98016151041e-06,841.07158403,1.19056863501,,,,x,0,1.16715074412,2018_Nov_14_1248,59.983801499,chinese_cond1,001,1019,
images/radish01.jpg,raisin,x,sounds/animalfarm_chinese.wav,,,,,,,,,0,1,1,1,0,105,105,214,842.182042542,9.30100213736e-06,843.572221948,1.39018966898,,,,x,1,1.3672701813,2018_Nov_14_1248,59.983801499,chinese_cond1,001,1019,
images/broom02.jpg,broom,z,sounds/animalfarm_chinese.wav,,,,,,,,,0,1,1,1,0,106,106,116,844.665508964,8.6595537141e-06,846.222922823,1.55742348044,,,,z,1,1.53399917518,2018_Nov_14_1248,59.983801499,chinese_cond1,001,1019,
images/desktopcomputer.jpg,desktop computer,z,sounds/animalfarm_chinese.wav,,,,,,,,,0,1,1,1,0,107,107,16,847.357924962,8.98016151041e-06,848.373464299,1.01554960012,,,,z,1,1.00050834555,2018_Nov_14_1248,59.983801499,chinese_cond1,001,1019,
images/grasshopper.jpg,cauliflower,x,sounds/animalfarm_chinese.wav,,,,,,,,,0,1,1,1,0,108,108,148,849.466370297,8.98016151041e-06,850.990802314,1.52444259985,,,,x,1,1.50064465264,2018_Nov_14_1248,59.983801499,chinese_cond1,001,1019,
images/notebook02b.jpg,notebook,z,sounds/animalfarm_chinese.wav,,,,,,,,,0,1,1,1,0,109,109,7,852.096997458,8.98027792573e-06,853.09134023,0.994353034883,,,,z,1,0.983849686221,2018_Nov_14_1248,59.983801499,chinese_cond1,001,1019,
images/saltshaker03c.jpg,salt shaker,z,sounds/animalfarm_chinese.wav,,,,,,,,,0,1,1,1,0,110,110,63,854.201620099,9.62160993367e-06,857.192220357,2.99061148358,,,,None,0,,2018_Nov_14_1248,59.983801499,chinese_cond1,001,1019,
images/candle08a.jpg,screw driver,x,sounds/animalfarm_chinese.wav,,,,,,,,,0,1,1,1,0,111,111,221,858.306529145,8.98027792573e-06,859.843150549,1.53663102584,,,,x,1,1.51740305673,2018_Nov_14_1248,59.983801499,chinese_cond1,001,1019,
images/computermouse02a.jpg,world map,x,sounds/animalfarm_chinese.wav,,,,,,,,,0,1,1,1,0,112,112,239,860.945558279,8.98027792573e-06,862.060305495,1.11475651688,,,,x,1,1.10053919908,2018_Nov_14_1248,59.983801499,chinese_cond1,001,1019,
images/diploma01.jpg,glasses,x,sounds/animalfarm_chinese.wav,,,,,,,,,0,1,1,1,0,113,113,179,863.191815926,9.30100213736e-06,864.060804219,0.868997914717,,,,x,1,0.850471045473,2018_Nov_14_1248,59.983801499,chinese_cond1,001,1019,
images/butterfly.jpg,butterfly,z,sounds/animalfarm_chinese.wav,,,,,,,,,0,1,1,1,0,114,114,91,865.1684269,8.98016151041e-06,868.145187972,2.97677101486,,,,z,1,2.96768109128,2018_Nov_14_1248,59.983801499,chinese_cond1,001,1019,
images/scissors04a.jpg,leek,x,sounds/animalfarm_chinese.wav,,,,,,,,,0,1,1,1,0,115,115,194,869.237940986,8.98027792573e-06,870.145695356,0.907763991738,,,,x,1,0.883811135311,2018_Nov_14_1248,59.983801499,chinese_cond1,001,1019,
images/lightbulb03b.jpg,treadmill,x,sounds/animalfarm_chinese.wav,,,,,,,,,0,1,1,1,0,116,116,234,871.247308976,9.30100213736e-06,872.646358931,1.39905893535,,,,x,1,1.38392884063,2018_Nov_14_1248,59.983801499,chinese_cond1,001,1019,
images/watermelon01.jpg,orange,x,sounds/animalfarm_chinese.wav,,,,,,,,,0,1,1,1,0,117,117,207,873.774764445,8.98027792573e-06,874.696870837,0.922116013127,,,,x,1,0.900481019984,2018_Nov_14_1248,59.983801499,chinese_cond1,001,1019,
images/honeycomb.jpg,honey comb,z,sounds/animalfarm_chinese.wav,,,,,,,,,0,1,1,1,0,118,118,59,875.809234762,9.30088572204e-06,876.513988322,0.704763502232,,,,z,1,0.683750069817,2018_Nov_14_1248,59.983801499,chinese_cond1,001,1019,
images/lemon02.jpg,lemon,z,sounds/animalfarm_chinese.wav,,,,,,,,,0,1,1,1,0,119,119,14,877.624944595,9.94233414531e-06,878.314458373,0.689524041023,,,,z,1,0.667092693388,2018_Nov_14_1248,59.983801499,chinese_cond1,001,1019,
images/beachumbrella01.jpg,beach umbrella,z,sounds/animalfarm_chinese.wav,,,,,,,,,0,1,1,1,0,120,120,92,879.41919038,9.62160993367e-06,880.281839268,0.86265850917,,,,z,1,0.850674704416,2018_Nov_14_1248,59.983801499,chinese_cond1,001,1019,
images/birthdaycandle.jpg,birthday candle,z,sounds/animalfarm_chinese.wav,,,,,,,,,0,1,1,1,0,121,121,55,881.377333498,8.6595537141e-06,882.765603,1.38827880297,,,,z,1,1.36727050203,2018_Nov_14_1248,59.983801499,chinese_cond1,001,1019,
images/parkbench03.jpg,park bench,z,sounds/animalfarm_chinese.wav,,,,,,,,,0,1,1,1,0,122,122,71,883.869589007,9.30088572204e-06,884.766110384,0.896531319479,,,,z,1,0.88378547749,2018_Nov_14_1248,59.983801499,chinese_cond1,001,1019,
images/lightswitch02a.jpg,fork,x,sounds/animalfarm_chinese.wav,,,,,,,,,0,1,1,1,0,123,123,177,885.877007965,8.98027792573e-06,886.933343233,1.0563445692,,,,x,1,1.03386447148,2018_Nov_14_1248,59.983801499,chinese_cond1,001,1019,
images/bowl02b (1).jpg,bowl,z,sounds/animalfarm_chinese.wav,,,,,,,,,0,1,1,1,0,124,124,24,888.050122227,8.98027792573e-06,888.900333808,0.850221202476,,,,z,1,0.833624763414,2018_Nov_14_1248,59.983801499,chinese_cond1,001,1019,
images/bat.jpg,hand,x,sounds/animalfarm_chinese.wav,,,,,,,,,0,1,1,1,0,125,125,185,889.997583996,8.65943729877e-06,891.401320993,1.40374629805,,,,x,1,1.38411261467,2018_Nov_14_1248,59.983801499,chinese_cond1,001,1019,
images/egg01b (1).jpg,egg,z,sounds/animalfarm_chinese.wav,,,,,,,,,0,1,1,1,0,126,126,19,892.512648984,9.62160993367e-06,893.368314454,0.855675733881,,,,z,1,0.833801802364,2018_Nov_14_1248,59.983801499,chinese_cond1,001,1019,
images/umbrella01.jpg,umbrella,z,sounds/animalfarm_chinese.wav,,,,,,,,,0,1,1,1,0,127,127,53,894.479985939,1.02631747723e-05,895.168767507,0.688791189692,,,,z,1,0.66707152559,2018_Nov_14_1248,59.983801499,chinese_cond1,001,1019,
images/clothespin02a.jpg,clothes pin,z,sounds/animalfarm_chinese.wav,,,,,,,,,0,1,1,1,0,128,128,79,896.273872836,8.98016151041e-06,897.402681819,1.1288189257,,,,x,0,1.11719657539,2018_Nov_14_1248,59.983801499,chinese_cond1,001,1019,
images/flashlight05.jpg,flash light,z,sounds/animalfarm_chinese.wav,,,,,,,,,0,1,1,1,0,129,129,8,898.505562294,9.30100213736e-06,899.286490068,0.780937395524,,,,x,0,0.767106869258,2018_Nov_14_1248,59.983801499,chinese_cond1,001,1019,
images/bandaid01.jpg,door handle,x,sounds/animalfarm_chinese.wav,,,,,,,,,0,1,1,1,0,130,130,170,900.391949475,9.30100213736e-06,901.387046586,0.995107054012,,,,x,1,0.983849686221,2018_Nov_14_1248,59.983801499,chinese_cond1,001,1019,
images/showerhead01.jpg,skateboard,x,sounds/animalfarm_chinese.wav,,,,,,,,,0,1,1,1,0,131,131,223,902.49373853,8.98027792573e-06,903.570930077,1.07720148901,,,,x,1,1.06718852522,2018_Nov_14_1248,59.983801499,chinese_cond1,001,1019,
images/bench02.jpg,electric toothbrush,x,sounds/animalfarm_chinese.wav,,,,,,,,,0,1,1,1,0,132,132,172,904.682699061,8.98027792573e-06,905.671483708,0.98879394785,,,,x,1,0.967183008906,2018_Nov_14_1248,59.983801499,chinese_cond1,001,1019,
images/cupcake.jpg,scissors,x,sounds/animalfarm_chinese.wav,,,,,,,,,0,1,1,1,0,133,133,219,906.834886166,9.30100213736e-06,908.455524738,1.62064883497,,,,x,1,1.60066652601,2018_Nov_14_1248,59.983801499,chinese_cond1,001,1019,
images/candy.jpg,candy,z,sounds/animalfarm_chinese.wav,,,,,,,,,0,1,1,1,0,134,134,31,909.557829515,9.30100213736e-06,910.322648349,0.764828775777,,,,x,0,0.750429928885,2018_Nov_14_1248,59.983801499,chinese_cond1,001,1019,
images/ladder.jpg,ladder,z,sounds/animalfarm_chinese.wav,,,,,,,,,0,1,1,1,0,135,135,113,911.415369931,8.98027792573e-06,912.406523757,0.991163447383,,,,z,1,0.967159275431,2018_Nov_14_1248,59.983801499,chinese_cond1,001,1019,
images/teapot.jpg,light switch,x,sounds/animalfarm_chinese.wav,,,,,,,,,0,1,1,1,0,136,136,197,913.524042338,9.30100213736e-06,914.54041844,1.01638604503,,,,x,1,1.00051508076,2018_Nov_14_1248,59.983801499,chinese_cond1,001,1019,
images/lion.jpg,lion,z,sounds/animalfarm_chinese.wav,,,,,,,,,0,1,1,1,0,137,137,44,915.653187118,8.98016151041e-06,916.407540127,0.754362951615,,,,z,1,0.733765817247,2018_Nov_14_1248,59.983801499,chinese_cond1,001,1019,
images/gps.jpg,gps,z,sounds/animalfarm_chinese.wav,,,,,,,,,0,1,1,1,0,138,138,21,917.526924352,9.30100213736e-06,918.724809314,1.1978949043,,,,z,1,1.18388830125,2018_Nov_14_1248,59.983801499,chinese_cond1,001,1019,
images/nailpolish02b.jpg,nail polish,z,sounds/animalfarm_chinese.wav,,,,,,,,,0,1,1,1,0,139,139,94,919.834779365,8.98016151041e-06,922.059063656,2.2242942336,,,,z,1,2.20086768328,2018_Nov_14_1248,59.983801499,chinese_cond1,001,1019,
images/masquerademask02b.jpg,mirror,x,sounds/animalfarm_chinese.wav,,,,,,,,,0,1,1,1,0,140,140,204,923.163938706,8.98016151041e-06,924.042845349,0.878916264977,,,,x,1,0.867146382341,2018_Nov_14_1248,59.983801499,chinese_cond1,001,1019,
images/cactus.jpg,cactus,z,sounds/animalfarm_chinese.wav,,,,,,,,,0,1,1,1,0,141,141,70,925.154894646,9.62160993367e-06,926.876896353,1.72201164986,,,,x,0,1.70068294695,2018_Nov_14_1248,59.983801499,chinese_cond1,001,1019,
images/ear.jpg,bullet,x,sounds/animalfarm_chinese.wav,,,,,,,,,0,1,1,1,0,142,142,139,927.980455477,9.62160993367e-06,928.844066533,0.863620677381,,,,x,1,0.850459820125,2018_Nov_14_1248,59.983801499,chinese_cond1,001,1019,
images/hairpin.jpg,hair pin,z,sounds/animalfarm_chinese.wav,,,,,,,,,0,1,1,1,0,143,143,28,929.935202783,8.98027792573e-06,930.727892422,0.792699260172,,,,z,1,0.783786375541,2018_Nov_14_1248,59.983801499,chinese_cond1,001,1019,
images/icecube02 (2).jpg,aloe,x,sounds/animalfarm_chinese.wav,,,,,,,,,0,1,1,1,0,144,144,122,931.838604625,9.62160993367e-06,933.128513277,1.28991923563,,,,x,1,1.26725696749,2018_Nov_14_1248,59.983801499,chinese_cond1,001,1019,
images/lantern03.jpg,lantern,z,sounds/animalfarm_chinese.wav,,,,,,,,,0,1,1,1,0,145,145,5,934.236909541,8.98027792573e-06,935.47911197,1.24221205036,,,,z,1,1.23390597303,2018_Nov_14_1248,59.983801499,chinese_cond1,001,1019,
images/flipflop01b.jpg,flip flop,z,sounds/animalfarm_chinese.wav,,,,,,,,,0,1,1,1,0,146,146,27,936.596387123,8.98027792573e-06,937.779691388,1.18331388687,,,,z,1,1.16720911569,2018_Nov_14_1248,59.983801499,chinese_cond1,001,1019,
images/worldmap.jpg,scooter,x,sounds/animalfarm_chinese.wav,,,,,,,,,0,1,1,1,0,147,147,220,938.911184179,9.62160993367e-06,939.996925873,1.08575227752,,,,x,1,1.06717954506,2018_Nov_14_1248,59.983801499,chinese_cond1,001,1019,
images/bed.jpg,bed,z,sounds/animalfarm_chinese.wav,,,,,,,,,0,1,1,1,0,148,148,103,941.116769373,8.98027792573e-06,941.964105353,0.847345281742,,,,z,1,0.833802443813,2018_Nov_14_1248,59.983801499,chinese_cond1,001,1019,
images/parrot01.jpg,chameleon,x,sounds/animalfarm_chinese.wav,,,,,,,,,0,1,1,1,0,149,149,150,943.078067119,9.62160993367e-06,944.648311491,1.57025431388,,,,x,1,1.55084289133,2018_Nov_14_1248,59.983801499,chinese_cond1,001,1019,
images/electrictoothbrush01a.jpg,banjo,x,sounds/animalfarm_chinese.wav,,,,,,,,,0,1,1,1,0,150,150,127,945.743523165,9.30100213736e-06,946.932051362,1.18853781873,,,,x,1,1.16717608133,2018_Nov_14_1248,59.983801499,chinese_cond1,001,1019,
images/ruler02b.jpg,watermelon,x,sounds/animalfarm_chinese.wav,,,,,,,,,0,1,1,1,0,151,151,238,948.035945962,9.30088572204e-06,949.249326001,1.21338998154,,,,x,1,1.20057390118,2018_Nov_14_1248,59.983801499,chinese_cond1,001,1019,
images/remotecontrol01c.jpg,remote control,z,sounds/animalfarm_chinese.wav,,,,,,,,,0,1,1,1,0,152,152,85,950.359769118,8.65943729877e-06,951.433212057,1.07345224021,,,,z,1,1.05054012907,2018_Nov_14_1248,59.983801499,chinese_cond1,001,1019,
images/parkfountain.jpg,park fountain,z,sounds/animalfarm_chinese.wav,,,,,,,,,0,1,1,1,0,153,153,93,952.553626123,9.30100213736e-06,953.500404431,0.946787929744,,,,z,1,0.933837145916,2018_Nov_14_1248,59.983801499,chinese_cond1,001,1019,
images/bracelet02a.jpg,chess knight,x,sounds/animalfarm_chinese.wav,,,,,,,,,0,1,1,1,0,154,154,152,954.609239124,9.30100213736e-06,955.734294689,1.1250655076,,,,x,1,1.10052957735,2018_Nov_14_1248,59.983801499,chinese_cond1,001,1019,
images/leaf01a.jpg,leaf,z,sounds/animalfarm_chinese.wav,,,,,,,,,0,1,1,1,0,155,155,68,956.839469294,9.621726349e-06,957.818181643,0.978721971274,,,,z,1,0.967182367458,2018_Nov_14_1248,59.983801499,chinese_cond1,001,1019,
images/hanger02a.jpg,hanger,z,sounds/animalfarm_chinese.wav,,,,,,,,,0,1,1,1,0,156,156,88,958.91173486,8.98016151041e-06,959.668645312,0.756919753156,,,,z,1,0.733777042478,2018_Nov_14_1248,59.983801499,chinese_cond1,001,1019,
images/flamingo.jpg,flamingo,z,sounds/animalfarm_chinese.wav,,,,,,,,,0,1,1,1,0,157,157,52,960.767425347,9.30100213736e-06,961.752526814,0.98511173029,,,,z,1,0.967182367342,2018_Nov_14_1248,59.983801499,chinese_cond1,001,1019,
images/bicycle.jpg,hand bag,x,sounds/animalfarm_chinese.wav,,,,,,,,,0,1,1,1,0,158,158,186,962.862980194,9.621726349e-06,963.553037276,0.690067024669,,,,z,0,0.667154592928,2018_Nov_14_1248,59.983801499,chinese_cond1,001,1019,
images/envelope02a.jpg,grand piano,x,sounds/animalfarm_chinese.wav,,,,,,,,,0,1,1,1,0,159,159,182,964.676139319,8.6595537141e-06,967.02052433,2.34439463273,,,,x,1,2.33418153797,2018_Nov_14_1248,59.983801499,chinese_cond1,001,1019,
images/binder03b.jpg,dj mixer,x,sounds/animalfarm_chinese.wav,,,,,,,,,0,1,1,1,0,160,160,167,968.134727921,9.30100213736e-06,969.021034921,0.886316942051,,,,z,0,0.867125535384,2018_Nov_14_1248,59.983801499,chinese_cond1,001,1019,
images/bowlingball.jpg,bowling ball,z,sounds/animalfarm_chinese.wav,,,,,,,,,0,1,1,1,0,161,161,20,970.153195777,9.30100213736e-06,971.4549933,1.30180810648,,,,z,1,1.28391530609,2018_Nov_14_1248,59.983801499,chinese_cond1,001,1019,
images/triangleruler02.jpg,bottle of red wine,x,sounds/animalfarm_chinese.wav,,,,,,,,,0,1,1,1,0,162,162,134,972.565797551,9.30088572204e-06,974.572459283,2.00667199492,,,,x,1,1.98409632209,2018_Nov_14_1248,59.983801499,chinese_cond1,001,1019,
images/chameleon.jpg,50 dollar bill,x,sounds/animalfarm_chinese.wav,,,,,,,,,0,1,1,1,0,163,163,120,975.682913946,8.6595537141e-06,977.43987411,1.75697010674,,,,x,1,1.73404420458,2018_Nov_14_1248,59.983801499,chinese_cond1,001,1019,
images/highheelshoe02a.jpg,high heel shoe,z,sounds/animalfarm_chinese.wav,,,,,,,,,0,1,1,1,0,164,164,75,978.547081455,9.30088572204e-06,979.507072578,0.960001064814,,,,z,1,0.950497729587,2018_Nov_14_1248,59.983801499,chinese_cond1,001,1019,
images/microphone01.jpg,diaper,x,sounds/animalfarm_chinese.wav,,,,,,,,,0,1,1,1,0,165,165,164,980.606886622,9.62160993367e-06,983.258025605,2.6511508493,,,,x,1,2.63426543912,2018_Nov_14_1248,59.983801499,chinese_cond1,001,1019,
images/drink.jpg,drink,z,sounds/animalfarm_chinese.wav,,,,,,,,,0,1,1,1,0,166,166,117,984.358271343,9.30100213736e-06,985.158508229,0.800246828236,,,,z,1,0.783787658555,2018_Nov_14_1248,59.983801499,chinese_cond1,001,1019,
images/lily.jpg,kiwi,x,sounds/animalfarm_chinese.wav,,,,,,,,,0,1,1,1,0,167,167,190,986.258153253,9.30088572204e-06,987.609132644,1.35098933335,,,,z,0,1.33392752567,2018_Nov_14_1248,59.983801499,chinese_cond1,001,1019,
images/banjo.jpg,knife,x,sounds/animalfarm_chinese.wav,,,,,,,,,0,1,1,1,0,168,168,191,988.706626901,9.94245056063e-06,989.65965834,0.953042343725,,,,x,1,0.93381790258,2018_Nov_14_1248,59.983801499,chinese_cond1,001,1019,
images/aquarium.jpg,computer mouse,x,sounds/animalfarm_chinese.wav,,,,,,,,,0,1,1,1,0,169,169,159,990.795231045,9.30088572204e-06,992.793796132,1.99857534957,,,,x,1,1.98409503908,2018_Nov_14_1248,59.983801499,chinese_cond1,001,1019,
images/dryingmachine01.jpg,drying machine,z,sounds/animalfarm_chinese.wav,,,,,,,,,0,1,1,1,0,170,170,18,993.915228813,9.30100213736e-06,994.777627216,0.862407704,,,,z,1,0.850454688654,2018_Nov_14_1248,59.983801499,chinese_cond1,001,1019,
images/baseball01a.jpg,baseball,z,sounds/animalfarm_chinese.wav,,,,,,,,,0,1,1,1,0,171,171,74,995.910359601,9.30100213736e-06,997.361632517,1.45128285885,,,,z,1,1.43395388906,2018_Nov_14_1248,59.983801499,chinese_cond1,001,1019,
images/highlighter03b.jpg,coin,x,sounds/animalfarm_chinese.wav,,,,,,,,,0,1,1,1,0,172,172,156,998.464079054,8.98016151041e-06,999.395684612,0.931614858098,,,,x,1,0.91735199769,2018_Nov_14_1248,59.983801499,chinese_cond1,001,1019,
images/puzzle.jpg,puzzle,z,sounds/animalfarm_chinese.wav,,,,,,,,,0,1,1,1,0,173,173,57,1000.51642004,8.98027792573e-06,1001.42933773,0.912927306956,,,,z,1,0.900477171293,2018_Nov_14_1248,59.983801499,chinese_cond1,001,1019,
images/ant.jpg,ant,z,sounds/animalfarm_chinese.wav,,,,,,,,,0,1,1,1,0,174,174,98,1002.524797,9.30100213736e-06,1003.62974229,1.10495458893,,,,z,1,1.08369965223,2018_Nov_14_1248,59.983801499,chinese_cond1,001,1019,
images/calculator02b.jpg,dice,x,sounds/animalfarm_chinese.wav,,,,,,,,,0,1,1,1,0,175,175,165,1004.73202878,8.98016151041e-06,1005.84718909,1.11517056997,,,,z,0,1.10057896876,2018_Nov_14_1248,59.983801499,chinese_cond1,001,1019,
images/squirrel.jpg,binder,x,sounds/animalfarm_chinese.wav,,,,,,,,,0,1,1,1,0,176,176,132,1006.95064366,8.98027792573e-06,1008.28108878,1.33045441925,,,,x,1,1.31725122652,2018_Nov_14_1248,59.983801499,chinese_cond1,001,1019,
images/basketball01.jpg,basket ball,z,sounds/animalfarm_chinese.wav,,,,,,,,,0,1,1,1,0,177,177,33,1009.42156822,9.30100213736e-06,1010.23158522,0.810027588625,,,,z,1,0.8004520908,2018_Nov_14_1248,59.983801499,chinese_cond1,001,1019,
images/lettuce.jpg,mushroom,x,sounds/animalfarm_chinese.wav,,,,,,,,,0,1,1,1,0,178,178,205,1011.35572962,8.98027792573e-06,1013.0823276,1.72660792735,,,,x,1,1.71732621163,2018_Nov_14_1248,59.983801499,chinese_cond1,001,1019,
images/hat05.jpg,hat,z,sounds/animalfarm_chinese.wav,,,,,,,,,0,1,1,1,0,179,179,15,1014.18653587,8.98016151041e-06,1016.24980548,2.06327955669,,,,x,0,2.0507755396,2018_Nov_14_1248,59.983801499,chinese_cond1,001,1019,
images/cookingpot.jpg,grasshopper,x,sounds/animalfarm_chinese.wav,,,,,,,,,0,1,1,1,0,180,180,183,1017.3656547,8.98027792573e-06,1018.50039096,1.13474556105,,,,z,0,1.11720940436,2018_Nov_14_1248,59.983801499,chinese_cond1,001,1019,
images/radio03a.jpg,radio,z,sounds/animalfarm_chinese.wav,,,,,,,,,0,1,1,1,0,181,181,37,1019.61483734,8.98027792573e-06,1021.03454216,1.41971444129,,,,z,1,1.40078089572,2018_Nov_14_1248,59.983801499,chinese_cond1,001,1019,
images/puma.jpg,puma,z,sounds/animalfarm_chinese.wav,,,,,,,,,0,1,1,1,0,182,182,4,1022.13408583,2.43749236688e-05,1022.93484871,0.800787246088,,,,z,1,0.783782847575,2018_Nov_14_1248,59.983801499,chinese_cond1,001,1019,
images/battery03b.jpg,battery,z,sounds/animalfarm_chinese.wav,,,,,,,,,0,1,1,1,0,183,183,34,1024.04449034,9.30088572204e-06,1024.86869932,0.824218286434,,,,z,1,0.800474220654,2018_Nov_14_1248,59.983801499,chinese_cond1,001,1019,
images/fork01.jpg,cooking pot,x,sounds/animalfarm_chinese.wav,,,,,,,,,0,1,1,1,0,184,184,160,1025.96297545,8.65943729877e-06,1028.08616697,2.12320082565,,,,x,1,2.10078647628,2018_Nov_14_1248,59.983801499,chinese_cond1,001,1019,
images/swan.jpg,swan,z,sounds/animalfarm_chinese.wav,,,,,,,,,0,1,1,1,0,185,185,54,1029.17857585,8.65943729877e-06,1031.62024216,2.44167625089,,,,x,0,2.41735648783,2018_Nov_14_1248,59.983801499,chinese_cond1,001,1019,
images/redfox.jpg,red fox,z,sounds/animalfarm_chinese.wav,,,,,,,,,0,1,1,1,0,186,186,1,1032.73527706,8.98016151041e-06,1033.70428851,0.969020750141,,,,z,1,0.950490994379,2018_Nov_14_1248,59.983801499,chinese_cond1,001,1019,
images/bullet (2).jpg,rubber glove,x,sounds/animalfarm_chinese.wav,,,,,,,,,0,1,1,1,0,187,187,217,1034.81071971,9.30088572204e-06,1036.63835914,1.82764905749,,,,x,1,1.81737919501,2018_Nov_14_1248,59.983801499,chinese_cond1,001,1019,
images/coffeepot03b.jpg,coffee pot,z,sounds/animalfarm_chinese.wav,,,,,,,,,0,1,1,1,0,188,188,107,1037.76014622,9.30100213736e-06,1038.65554828,0.895411997219,,,,z,1,0.883816266898,2018_Nov_14_1248,59.983801499,chinese_cond1,001,1019,
images/floorlamp.jpg,floor lamp,z,sounds/animalfarm_chinese.wav,,,,,,,,,0,1,1,1,0,189,189,26,1039.74852933,8.65943729877e-06,1040.88945233,1.14093262318,,,,z,1,1.11720395216,2018_Nov_14_1248,59.983801499,chinese_cond1,001,1019,
images/grandpiano.jpg,tulip,x,sounds/animalfarm_chinese.wav,,,,,,,,,0,1,1,1,0,190,190,236,1042.00571817,8.65943729877e-06,1043.12339647,1.11768760195,,,,x,1,1.10056004603,2018_Nov_14_1248,59.983801499,chinese_cond1,001,1019,
images/sock03.jpg,sock,z,sounds/animalfarm_chinese.wav,,,,,,,,,0,1,1,1,0,191,191,90,1044.23063107,9.30100213736e-06,1045.27391389,1.04329275771,,,,x,0,1.03385292552,2018_Nov_14_1248,59.983801499,chinese_cond1,001,1019,
images/panda.jpg,panda,z,sounds/animalfarm_chinese.wav,,,,,,,,,0,1,1,1,0,192,192,83,1046.38477042,9.30100213736e-06,1047.47447015,1.08970935468,,,,z,1,1.06719109113,2018_Nov_14_1248,59.983801499,chinese_cond1,001,1019,
images/tent.jpg,tent,z,sounds/animalfarm_chinese.wav,,,,,,,,,0,1,1,1,0,193,193,11,1048.60303859,9.30100213736e-06,1049.94177215,1.33874381892,,,,z,1,1.31724866084,2018_Nov_14_1248,59.983801499,chinese_cond1,001,1019,
images/volleyball.jpg,volley ball,z,sounds/animalfarm_chinese.wav,,,,,,,,,0,1,1,1,0,194,194,2,1051.07506772,8.98016151041e-06,1051.87560769,0.800548949046,,,,z,1,0.78378477192,2018_Nov_14_1248,59.983801499,chinese_cond1,001,1019,
images/mirror02.jpg,8 ball,x,sounds/animalfarm_chinese.wav,,,,,,,,,0,1,1,1,0,195,195,121,1053.05997804,9.30088572204e-06,1053.97613278,0.916164361406,,,,x,1,0.90047236043,2018_Nov_14_1248,59.983801499,chinese_cond1,001,1019,
,,,sounds/animalfarm_chinese.wav,,,,,,,,,0,1,1,1,,,,,,,,,,,,,,,2018_Nov_14_1248,59.983801499,chinese_cond1,001,1019,
