images,name,corrAns,sounds,trials_3.thisRepN,trials_3.thisTrialN,trials_3.thisN,trials_3.thisIndex,trials_4.thisRepN,trials_4.thisTrialN,trials_4.thisN,trials_4.thisIndex,trials_2.thisRepN,trials_2.thisTrialN,trials_2.thisN,trials_2.thisIndex,trials.thisRepN,trials.thisTrialN,trials.thisN,trials.thisIndex,begin_global,begin_routine,end_global,end_routine,key_resp_2.keys,key_resp_2.corr,key_resp_2.rt,begin_book,key_resp_1.keys,key_resp_1.corr,key_resp_1.rt,date,frameRate,expName,session,participant,
images\volleyball.jpg,volley ball,z,,0,0,0,0,,,,,,,,,,,,,,,,,,,,,,,,2018_Nov_14_1402,59.9851283793,chinese_cond2,001,1022,
images\puma.jpg,puma,z,,,,,,0,0,0,0,,,,,,,,,48.1678295684,1.02631747723e-05,49.4564733722,1.28865470842,z,1,1.26726832869,,,,,2018_Nov_14_1402,59.9851283793,chinese_cond2,001,1022,
images\eraser.jpg,eraser,z,sounds\animalfarm_english.wav,,,,,,,,,0,0,0,1,0,0,0,110,91.6145935799,9.621726349e-06,93.0181627554,1.40357911796,,,,81.45362147,z,1,1.38394679269,2018_Nov_14_1402,59.9851283793,chinese_cond2,001,1022,
images\barrel01.jpg,barrel,z,sounds\animalfarm_english.wav,,,,,,,,,0,0,0,1,0,1,1,9,94.1523484093,9.30111855268e-06,95.8522498499,1.69991074177,,,,,z,1,1.68401776953,2018_Nov_14_1402,59.9851283793,chinese_cond2,001,1022,
images\hairband.jpg,hairband,z,sounds\animalfarm_english.wav,,,,,,,,,0,0,0,1,0,2,2,66,96.9658935976,9.30111855268e-06,98.3527699084,1.3868865741,,,,,x,0,1.36711344973,2018_Nov_14_1402,59.9851283793,chinese_cond2,001,1022,
images\parkingmeter.jpg,ear,x,sounds\animalfarm_english.wav,,,,,,,,,0,0,0,1,0,3,3,171,99.4575442787,9.62184276432e-06,100.870272127,1.41273779084,,,,,x,1,1.40062169672,2018_Nov_14_1402,59.9851283793,chinese_cond2,001,1022,
images\eyedrops.jpg,bicycle,x,sounds\animalfarm_english.wav,,,,,,,,,0,0,0,1,0,4,4,131,101.972657083,9.30111855268e-06,103.320932648,1.34828518645,,,,,x,1,1.33393875859,2018_Nov_14_1402,59.9851283793,chinese_cond2,001,1022,
images\handfan01b.jpg,handfan,z,sounds\animalfarm_english.wav,,,,,,,,,0,0,0,1,0,5,5,69,104.434396468,9.30100213736e-06,106.088354444,1.65396759822,,,,,z,1,1.63401903643,2018_Nov_14_1402,59.9851283793,chinese_cond2,001,1022,
images\swan.jpg,swan,z,sounds\animalfarm_english.wav,,,,,,,,,0,0,0,1,0,6,6,54,107.180160229,8.98039434105e-06,108.605708487,1.42555788008,,,,,z,1,1.41732001374,2018_Nov_14_1402,59.9851283793,chinese_cond2,001,1022,
images\aquarium.jpg,computer mouse,x,sounds\animalfarm_english.wav,,,,,,,,,0,0,0,1,0,7,7,159,109.741554223,9.621726349e-06,111.373108795,1.6315645146,,,,,x,1,1.61735792365,2018_Nov_14_1402,59.9851283793,chinese_cond2,001,1022,
images\flower01.jpg,bus,x,sounds\animalfarm_english.wav,,,,,,,,,0,0,0,1,0,8,8,140,112.486110447,9.30111855268e-06,113.990463832,1.50436300621,,,,,x,1,1.4839705585,2018_Nov_14_1402,59.9851283793,chinese_cond2,001,1022,
images\electricguitar02.jpg,electric guitar,z,sounds\animalfarm_english.wav,,,,,,,,,0,0,0,1,0,9,9,100,115.091909379,9.30111855268e-06,116.224420519,1.13252108218,,,,,z,1,1.11723300058,2018_Nov_14_1402,59.9851283793,chinese_cond2,001,1022,
images\glasses01b.jpg,calculator,x,sounds\animalfarm_english.wav,,,,,,,,,0,0,0,1,0,10,10,142,117.316658964,9.30111855268e-06,118.708412245,1.39176290343,,,,,x,1,1.36729017016,2018_Nov_14_1402,59.9851283793,chinese_cond2,001,1022,
images\notebook02b.jpg,notebook,z,sounds\animalfarm_english.wav,,,,,,,,,0,0,0,1,0,11,11,7,119.814820398,9.30111855268e-06,121.042354853,1.22754407674,,,,,z,1,1.2172266182,2018_Nov_14_1402,59.9851283793,chinese_cond2,001,1022,
images\mitten01.jpg,mitten,z,sounds\animalfarm_english.wav,,,,,,,,,0,0,0,1,0,12,12,102,122.162706921,8.98027792573e-06,123.776431973,1.61373467359,,,,,z,1,1.6006801331,2018_Nov_14_1402,59.9851283793,chinese_cond2,001,1022,
images\magnifyingglass01b.jpg,magnifying glass,z,sounds\animalfarm_english.wav,,,,,,,,,0,0,0,1,0,13,13,64,124.882618182,9.62184276432e-06,126.327113373,1.44450481236,,,,,z,1,1.43394295999,2018_Nov_14_1402,59.9851283793,chinese_cond2,001,1022,
images\flashlight05.jpg,flash light,z,sounds\animalfarm_english.wav,,,,,,,,,0,0,0,1,0,14,14,8,127.428287585,8.98039434105e-06,128.444348618,1.01607033412,,,,,z,1,1.00051380426,2018_Nov_14_1402,59.9851283793,chinese_cond2,001,1022,
images\bottleofredwine02.jpg,pipe,x,sounds\animalfarm_english.wav,,,,,,,,,0,0,0,1,0,15,15,213,129.542641101,8.98039434105e-06,130.694995604,1.15236348344,,,,,x,1,1.13389764132,2018_Nov_14_1402,59.9851283793,chinese_cond2,001,1022,
images\hairdryer03a.jpg,hairdryer,z,sounds\animalfarm_english.wav,,,,,,,,,0,0,0,1,0,16,16,119,131.793839096,8.98039434105e-06,133.395686033,1.60185623809,,,,,z,1,1.58400073892,2018_Nov_14_1402,59.9851283793,chinese_cond2,001,1022,
images\radio03a.jpg,radio,z,sounds\animalfarm_english.wav,,,,,,,,,0,0,0,1,0,17,17,37,134.50766585,9.621726349e-06,135.712987412,1.20533118397,,,,,z,1,1.18391080713,2018_Nov_14_1402,59.9851283793,chinese_cond2,001,1022,
images\chessknight02b (1).jpg,cockroach,x,sounds\animalfarm_english.wav,,,,,,,,,0,0,0,1,0,18,18,155,136.822105064,9.62184276432e-06,138.347036597,1.52494179609,,,,,x,1,1.50066630985,2018_Nov_14_1402,59.9851283793,chinese_cond2,001,1022,
images\screw03c.jpg,screw,z,sounds\animalfarm_english.wav,,,,,,,,,0,0,0,1,0,19,19,84,139.439039949,9.30111855268e-06,140.814373305,1.37534329796,,,,,x,0,1.36731326254,2018_Nov_14_1402,59.9851283793,chinese_cond2,001,1022,
images\clothespin02a.jpg,clothes pin,z,sounds\animalfarm_english.wav,,,,,,,,,0,0,0,1,0,20,20,79,141.918792631,9.30111855268e-06,143.381718383,1.46293537458,,,,,z,1,1.45064640872,2018_Nov_14_1402,59.9851283793,chinese_cond2,001,1022,
images\camera01a.jpg,bull,x,sounds\animalfarm_english.wav,,,,,,,,,0,0,0,1,0,21,21,138,144.492176352,9.62184276432e-06,145.582298642,1.09013255313,,,,,x,1,1.06720379845,2018_Nov_14_1402,59.9851283793,chinese_cond2,001,1022,
images\bullet (2).jpg,rubber glove,x,sounds\animalfarm_english.wav,,,,,,,,,0,0,0,1,0,22,22,217,146.688648102,8.98027792573e-06,147.949589774,1.2609516154,,,,,x,1,1.25057129445,2018_Nov_14_1402,59.9851283793,chinese_cond2,001,1022,
images\wallet01.jpg,lamp,x,sounds\animalfarm_english.wav,,,,,,,,,0,0,0,1,0,23,23,193,149.053674582,9.30111855268e-06,150.316896622,1.26323198259,,,,,x,1,1.25058059557,2018_Nov_14_1402,59.9851283793,chinese_cond2,001,1022,
images\broadsword.jpg,teapot,x,sounds\animalfarm_english.wav,,,,,,,,,0,0,0,1,0,24,24,231,151.40890671,8.98039434105e-06,152.400800021,0.991903253365,,,,,x,1,0.983858464519,2018_Nov_14_1402,59.9851283793,chinese_cond2,001,1022,
images\key03b.jpg,cigar,x,sounds\animalfarm_english.wav,,,,,,,,,0,0,0,1,0,25,25,153,153.500499532,8.98039434105e-06,154.551370963,1.05088137311,,,,,x,1,1.0338607257,2018_Nov_14_1402,59.9851283793,chinese_cond2,001,1022,
images\pingpongpaddle01c (1).jpg,ping pong paddle,z,sounds\animalfarm_english.wav,,,,,,,,,0,0,0,1,0,26,26,10,155.660396566,9.30100213736e-06,156.952025373,1.29163842928,,,,,z,1,1.2672542166,2018_Nov_14_1402,59.9851283793,chinese_cond2,001,1022,
images\doorhandle.jpg,doll,x,sounds\animalfarm_english.wav,,,,,,,,,0,0,0,1,0,27,27,168,158.054342656,9.62184276432e-06,159.252646717,1.19831432437,,,,,x,1,1.18390471337,2018_Nov_14_1402,59.9851283793,chinese_cond2,001,1022,
images\safe.jpg,safe,z,sounds\animalfarm_english.wav,,,,,,,,,0,0,0,1,0,28,28,78,160.363444336,8.98039434105e-06,161.403222791,1.03978807665,,,,,z,1,1.01719223615,2018_Nov_14_1402,59.9851283793,chinese_cond2,001,1022,
images\knife04.jpg,tooth brush,x,sounds\animalfarm_english.wav,,,,,,,,,0,0,0,1,0,29,29,233,162.499642229,9.30111855268e-06,163.453756496,0.954124209122,,,,,x,1,0.933814508957,2018_Nov_14_1402,59.9851283793,chinese_cond2,001,1022,
images\licenseplate.jpg,license plate,z,sounds\animalfarm_english.wav,,,,,,,,,0,0,0,1,0,30,30,40,164.569954511,9.94256697595e-06,166.471484025,1.90153945633,,,,,z,1,1.8843292594,2018_Nov_14_1402,59.9851283793,chinese_cond2,001,1022,
images\ladder.jpg,ladder,z,sounds\animalfarm_english.wav,,,,,,,,,0,0,0,1,0,31,31,113,167.563472624,8.98039434105e-06,168.455103869,0.891641187598,,,,,z,1,0.867140871822,2018_Nov_14_1402,59.9851283793,chinese_cond2,001,1022,
images\ashtray02b.jpg,ashtray,z,sounds\animalfarm_english.wav,,,,,,,,,0,0,0,1,0,32,32,43,169.567721291,8.65967012942e-06,170.605685395,1.03797340475,,,,,x,0,1.01718004863,2018_Nov_14_1402,59.9851283793,chinese_cond2,001,1022,
images\stapler03a.jpg,candy cane,x,sounds\animalfarm_english.wav,,,,,,,,,0,0,0,1,0,33,33,145,171.71563854,8.98039434105e-06,172.872971363,1.15734276618,,,,,x,1,1.13389058528,2018_Nov_14_1402,59.9851283793,chinese_cond2,001,1022,
images\paintbrush03a.jpg,paint brush,z,sounds\animalfarm_english.wav,,,,,,,,,0,0,0,1,0,34,34,0,173.973065689,8.98039434105e-06,175.040203418,1.06714831269,,,,,z,1,1.05051670677,2018_Nov_14_1402,59.9851283793,chinese_cond2,001,1022,
images\charcoalbarbecue.jpg,charcoal barbecue,z,sounds\animalfarm_english.wav,,,,,,,,,0,0,0,1,0,35,35,77,176.15718561,9.621726349e-06,177.974342181,1.81716651388,,,,,z,1,1.80073472077,2018_Nov_14_1402,59.9851283793,chinese_cond2,001,1022,
images\bench02.jpg,electric toothbrush,x,sounds\animalfarm_english.wav,,,,,,,,,0,0,0,1,0,36,36,172,179.082093217,9.62184276432e-06,180.675053457,1.592970183,,,,,x,1,1.58397764666,2018_Nov_14_1402,59.9851283793,chinese_cond2,001,1022,
images\pen03c.jpg,pepper,x,sounds\animalfarm_english.wav,,,,,,,,,0,0,0,1,0,37,37,211,181.768705024,9.30111855268e-06,182.692262371,0.923567610327,,,,,x,1,0.900482661673,2018_Nov_14_1402,59.9851283793,chinese_cond2,001,1022,
images\remotecontrol01c.jpg,remote control,z,sounds\animalfarm_english.wav,,,,,,,,,0,0,0,1,0,38,38,85,183.801535576,8.98039434105e-06,185.042890466,1.24136547488,,,,,z,1,1.21722886327,2018_Nov_14_1402,59.9851283793,chinese_cond2,001,1022,
images\microphone01.jpg,diaper,x,sounds\animalfarm_english.wav,,,,,,,,,0,0,0,1,0,39,39,164,186.141605026,9.30111855268e-06,188.377134557,2.23553979432,,,,,z,0,2.217508537,2018_Nov_14_1402,59.9851283793,chinese_cond2,001,1022,
images\graduationcap.jpg,graduation cap,z,sounds\animalfarm_english.wav,,,,,,,,,0,0,0,1,0,40,40,35,189.477331194,8.98039434105e-06,190.727765859,1.25044460746,,,,,z,1,1.23390986095,2018_Nov_14_1402,59.9851283793,chinese_cond2,001,1022,
images\pouch01b.jpg,pouch,z,sounds\animalfarm_english.wav,,,,,,,,,0,0,0,1,0,41,41,25,191.839493585,9.30111855268e-06,193.161756928,1.32227328548,,,,,x,0,1.30058638472,2018_Nov_14_1402,59.9851283793,chinese_cond2,001,1022,
images\hammer02a.jpg,flower,x,sounds\animalfarm_english.wav,,,,,,,,,0,0,0,1,0,42,42,176,194.255268017,9.30111855268e-06,195.212306028,0.957047633361,,,,,x,1,0.933836959768,2018_Nov_14_1402,59.9851283793,chinese_cond2,001,1022,
images\panda.jpg,panda,z,sounds\animalfarm_english.wav,,,,,,,,,0,0,0,1,0,43,43,83,196.321259789,9.62184276432e-06,198.229771845,1.90852231893,,,,,z,1,1.88407909253,2018_Nov_14_1402,59.9851283793,chinese_cond2,001,1022,
images\lock02a.jpg,lock,z,sounds\animalfarm_english.wav,,,,,,,,,0,0,0,1,0,44,44,65,199.340858438,9.30111855268e-06,201.330630141,1.98978324968,,,,,z,1,1.96746964892,2018_Nov_14_1402,59.9851283793,chinese_cond2,001,1022,
images\broom02.jpg,broom,z,sounds\animalfarm_english.wav,,,,,,,,,0,0,0,1,0,45,45,116,202.423917684,9.62184276432e-06,204.598160825,2.17425372498,,,,,x,0,2.15083650348,2018_Nov_14_1402,59.9851283793,chinese_cond2,001,1022,
images\battery03b.jpg,battery,z,sounds\animalfarm_english.wav,,,,,,,,,0,0,0,1,0,46,46,34,205.706727468,9.30111855268e-06,206.598692269,0.891975384904,,,,,z,1,0.883822190342,2018_Nov_14_1402,59.9851283793,chinese_cond2,001,1022,
images\chameleon.jpg,50 dollar bill,x,sounds\animalfarm_english.wav,,,,,,,,,0,0,0,1,0,47,47,120,207.710842713,9.30111855268e-06,210.699680139,2.98884768982,,,,,None,0,,2018_Nov_14_1402,59.9851283793,chinese_cond2,001,1022,
images\basketball01.jpg,basket ball,z,sounds\animalfarm_english.wav,,,,,,,,,0,0,0,1,0,48,48,33,211.838351798,9.30100213736e-06,212.700345006,0.862002829439,,,,,z,1,0.850459553301,2018_Nov_14_1402,59.9851283793,chinese_cond2,001,1022,
images\cake.jpg,cake,z,sounds\animalfarm_english.wav,,,,,,,,,0,0,0,1,0,49,49,23,213.813621201,9.62184276432e-06,214.967609806,1.15399822767,,,,,z,1,1.13388898177,2018_Nov_14_1402,59.9851283793,chinese_cond2,001,1022,
images\ceilingfan02.jpg,paper clip,x,sounds\animalfarm_english.wav,,,,,,,,,0,0,0,1,0,50,50,208,216.06571723,9.30111855268e-06,217.601648728,1.53594144038,,,,,x,1,1.51731972513,2018_Nov_14_1402,59.9851283793,chinese_cond2,001,1022,
images\cheetah.jpg,cheetah,z,sounds\animalfarm_english.wav,,,,,,,,,0,0,0,1,0,51,51,82,218.703838682,8.6595537141e-06,220.019001135,1.31517175399,,,,,x,0,1.30062070244,2018_Nov_14_1402,59.9851283793,chinese_cond2,001,1022,
images\redfox.jpg,red fox,z,sounds\animalfarm_english.wav,,,,,,,,,0,0,0,1,0,52,52,1,221.131240741,9.62184276432e-06,222.452949227,1.32171842817,,,,,z,1,1.30059632717,2018_Nov_14_1402,59.9851283793,chinese_cond2,001,1022,
images\gluestick.jpg,squirrel,x,sounds\animalfarm_english.wav,,,,,,,,,0,0,0,1,0,53,53,226,223.558831387,9.62184276432e-06,224.720229422,1.16140765685,,,,,x,1,1.15055394324,2018_Nov_14_1402,59.9851283793,chinese_cond2,001,1022,
images\toucan.jpg,toucan,z,sounds\animalfarm_english.wav,,,,,,,,,0,0,0,1,0,54,54,81,225.819346173,9.30111855268e-06,227.137542701,1.31820614962,,,,,x,0,1.30059119558,2018_Nov_14_1402,59.9851283793,chinese_cond2,001,1022,
images\banana04a.jpg,banana,z,sounds\animalfarm_english.wav,,,,,,,,,0,0,0,1,0,55,55,118,228.242830555,9.30100213736e-06,228.938024689,0.69520311465,,,,,z,1,0.683753169957,2018_Nov_14_1402,59.9851283793,chinese_cond2,001,1022,
images\daisy.jpg,daisy,z,sounds\animalfarm_english.wav,,,,,,,,,0,0,0,1,0,56,56,6,230.039757287,9.30111855268e-06,230.971919732,0.932172067347,,,,,z,1,0.917171998415,2018_Nov_14_1402,59.9851283793,chinese_cond2,001,1022,
images\ladybug03.jpg,giraffe,x,sounds\animalfarm_english.wav,,,,,,,,,0,0,0,1,0,57,57,178,232.074717143,8.98027792573e-06,233.289230092,1.21452289168,,,,,z,0,1.20059405011,2018_Nov_14_1402,59.9851283793,chinese_cond2,001,1022,
images\birthdaycandle.jpg,birthday candle,z,sounds\animalfarm_english.wav,,,,,,,,,0,0,0,1,0,58,58,55,234.383794768,8.6595537141e-06,236.073293116,1.68950796989,,,,,z,1,1.66737333464,2018_Nov_14_1402,59.9851283793,chinese_cond2,001,1022,
images\lily.jpg,kiwi,x,sounds\animalfarm_english.wav,,,,,,,,,0,0,0,1,0,59,59,190,237.171050627,9.30111855268e-06,238.257208734,1.08616772923,,,,,x,1,1.06720764714,2018_Nov_14_1402,59.9851283793,chinese_cond2,001,1022,
images\crocodile.jpg,triangle ruler,x,sounds\animalfarm_english.wav,,,,,,,,,0,0,0,1,0,60,60,235,239.354311642,9.30111855268e-06,240.407778714,1.05347701465,,,,,x,1,1.03385880135,2018_Nov_14_1402,59.9851283793,chinese_cond2,001,1022,
images\swallow.jpg,mattress,x,sounds\animalfarm_english.wav,,,,,,,,,0,0,0,1,0,61,61,202,241.5094972,8.98027792573e-06,243.325239687,1.81575210893,,,,,x,1,1.80073119281,2018_Nov_14_1402,59.9851283793,chinese_cond2,001,1022,
images\binder03b.jpg,dj mixer,x,sounds\animalfarm_english.wav,,,,,,,,,0,0,0,1,0,62,62,167,244.43764992,9.30111855268e-06,246.376073272,1.93843265332,,,,,x,1,1.91744397464,2018_Nov_14_1402,59.9851283793,chinese_cond2,001,1022,
images\lemon02.jpg,lemon,z,sounds\animalfarm_english.wav,,,,,,,,,0,0,0,1,0,63,63,14,247.488126215,3.78458062187e-05,248.459938504,0.97182736313,,,,,z,1,0.950499997009,2018_Nov_14_1402,59.9851283793,chinese_cond2,001,1022,
images\plate01b.jpg,plate,z,sounds\animalfarm_english.wav,,,,,,,,,0,0,0,1,0,64,64,3,249.559174565,9.62184276432e-06,250.51049915,0.951334207202,,,,,z,1,0.933835997595,2018_Nov_14_1402,59.9851283793,chinese_cond2,001,1022,
images\ruler02b.jpg,watermelon,x,sounds\animalfarm_english.wav,,,,,,,,,0,0,0,1,0,65,65,238,251.612106985,9.30111855268e-06,252.99451012,1.38241275668,,,,,x,1,1.36728535919,2018_Nov_14_1402,59.9851283793,chinese_cond2,001,1022,
images\peach01.jpg,peach,z,sounds\animalfarm_english.wav,,,,,,,,,0,0,0,1,0,66,66,106,254.121685009,9.621726349e-06,255.311777503,1.19010307826,,,,,z,1,1.16722884716,2018_Nov_14_1402,59.9851283793,chinese_cond2,001,1022,
images\lamp04b.jpg,parking meter,x,sounds\animalfarm_english.wav,,,,,,,,,0,0,0,1,0,67,67,209,256.4326453,9.30111855268e-06,257.945844969,1.51320993272,,,,,x,1,1.50066598901,2018_Nov_14_1402,59.9851283793,chinese_cond2,001,1022,
images\shotglass.jpg,shot glass,z,sounds\animalfarm_english.wav,,,,,,,,,0,0,0,1,0,68,68,86,259.054107243,9.62184276432e-06,261.580140151,2.52604253031,,,,,z,1,2.51759779523,2018_Nov_14_1402,59.9851283793,chinese_cond2,001,1022,
images\scooter.jpg,pen,x,sounds\animalfarm_english.wav,,,,,,,,,0,0,0,1,0,69,69,212,262.67250368,9.30100213736e-06,263.563999257,0.891506161657,,,,,x,1,0.86715017294,2018_Nov_14_1402,59.9851283793,chinese_cond2,001,1022,
images\mushroom01.jpg,shower head,x,sounds\animalfarm_english.wav,,,,,,,,,0,0,0,1,0,70,70,222,264.680653667,9.30111855268e-06,266.031333399,1.350689354,,,,,x,1,1.33389995061,2018_Nov_14_1402,59.9851283793,chinese_cond2,001,1022,
images\headphones02b.jpg,headphones,z,sounds\animalfarm_english.wav,,,,,,,,,0,0,0,1,0,71,71,101,267.137975361,8.98039434105e-06,268.248585996,1.11062057735,,,,,z,1,1.1005366079,2018_Nov_14_1402,59.9851283793,chinese_cond2,001,1022,
images\tape01a.jpg,tie,x,sounds\animalfarm_english.wav,,,,,,,,,0,0,0,1,0,72,72,232,269.37596198,8.98039434105e-06,270.365828298,0.98987561895,,,,,x,1,0.967166882823,2018_Nov_14_1402,59.9851283793,chinese_cond2,001,1022,
images\tent.jpg,tent,z,sounds\animalfarm_english.wav,,,,,,,,,0,0,0,1,0,73,73,11,271.49085592,9.30100213736e-06,272.516415276,1.02556929796,,,,,z,1,1.01719640568,2018_Nov_14_1402,59.9851283793,chinese_cond2,001,1022,
images\puma.jpg,puma,z,sounds\animalfarm_english.wav,,,,,,,,,0,0,0,1,0,74,74,4,273.615331251,1.02631747723e-05,274.450262178,0.834941510577,,,,,z,1,0.817130592535,2018_Nov_14_1402,59.9851283793,chinese_cond2,001,1022,
images\cupcake.jpg,scissors,x,sounds\animalfarm_english.wav,,,,,,,,,0,0,0,1,0,75,75,219,275.568828119,8.98039434105e-06,276.584166234,1.01534773677,,,,,x,1,1.00051637006,2018_Nov_14_1402,59.9851283793,chinese_cond2,001,1022,
images\bracelet02a.jpg,chess knight,x,sounds\animalfarm_english.wav,,,,,,,,,0,0,0,1,0,76,76,152,277.692483993,9.30111855268e-06,279.818385276,2.12591154559,,,,,x,1,2.1174982416,2018_Nov_14_1402,59.9851283793,chinese_cond2,001,1022,
images\banjo.jpg,knife,x,sounds\animalfarm_english.wav,,,,,,,,,0,0,0,1,0,77,77,191,280.914770076,9.30100213736e-06,282.135657469,1.22089669423,,,,,x,1,1.20056807122,2018_Nov_14_1402,59.9851283793,chinese_cond2,001,1022,
images\leaf01a.jpg,leaf,z,sounds\animalfarm_english.wav,,,,,,,,,0,0,0,1,0,78,78,68,283.239673962,9.30111855268e-06,284.036184391,0.79652069218,,,,,z,1,0.783800028148,2018_Nov_14_1402,59.9851283793,chinese_cond2,001,1022,
images\blackolive.jpg,tank,x,sounds\animalfarm_english.wav,,,,,,,,,0,0,0,1,0,79,79,229,285.151111366,9.30111855268e-06,286.320126341,1.16902491695,,,,,x,1,1.15056581004,2018_Nov_14_1402,59.9851283793,chinese_cond2,001,1022,
images\bus.jpg,microphone,x,sounds\animalfarm_english.wav,,,,,,,,,0,0,0,1,0,80,80,203,287.43840459,9.30111855268e-06,288.5874168,1.14902279375,,,,,x,1,1.13389379263,2018_Nov_14_1402,59.9851283793,chinese_cond2,001,1022,
images\floorlamp.jpg,floor lamp,z,sounds\animalfarm_english.wav,,,,,,,,,0,0,0,1,0,81,81,26,289.680505812,9.30111855268e-06,290.988038817,1.30754262698,,,,,z,1,1.28392270615,2018_Nov_14_1402,59.9851283793,chinese_cond2,001,1022,
images\toothbrush03a.jpg,parrot,x,sounds\animalfarm_english.wav,,,,,,,,,0,0,0,1,0,82,82,210,292.080483489,8.98039434105e-06,293.221972732,1.14149854437,,,,,x,1,1.11721183255,2018_Nov_14_1402,59.9851283793,chinese_cond2,001,1022,
images\carrot02.jpg,corkscrew,x,sounds\animalfarm_english.wav,,,,,,,,,0,0,0,1,0,83,83,161,294.322327168,9.94256697595e-06,295.989384586,1.66706768202,,,,,x,1,1.65069618553,2018_Nov_14_1402,59.9851283793,chinese_cond2,001,1022,
images\saltshaker03c.jpg,salt shaker,z,sounds\animalfarm_english.wav,,,,,,,,,0,0,0,1,0,84,84,63,297.1015392,9.621726349e-06,298.556755323,1.45522510365,,,,,z,1,1.43397791928,2018_Nov_14_1402,59.9851283793,chinese_cond2,001,1022,
images\butterfly.jpg,butterfly,z,sounds\animalfarm_english.wav,,,,,,,,,0,0,0,1,0,85,85,91,299.663722823,9.62184276432e-06,300.807352596,1.14364003681,,,,,x,0,1.13388641586,2018_Nov_14_1402,59.9851283793,chinese_cond2,001,1022,
images\marker01a.jpg,marker,z,sounds\animalfarm_english.wav,,,,,,,,,0,0,0,1,0,86,86,95,301.905074186,9.30100213736e-06,302.924579183,1.01951526001,,,,,z,1,1.0005077105,2018_Nov_14_1402,59.9851283793,chinese_cond2,001,1022,
images\lantern03.jpg,lantern,z,sounds\animalfarm_english.wav,,,,,,,,,0,0,0,1,0,87,87,5,304.031531608,9.30111855268e-06,305.341890216,1.31036855024,,,,,z,1,1.30058189447,2018_Nov_14_1402,59.9851283793,chinese_cond2,001,1022,
images\hand01a.jpg,cupcake,x,sounds\animalfarm_english.wav,,,,,,,,,0,0,0,1,0,88,88,163,306.453375152,9.621726349e-06,307.475816402,1.02245119261,,,,,x,1,1.0005170115,2018_Nov_14_1402,59.9851283793,chinese_cond2,001,1022,
images\handbag02a.jpg,candle,x,sounds\animalfarm_english.wav,,,,,,,,,0,0,0,1,0,89,89,144,308.591555137,9.30100213736e-06,309.893118134,1.30157326092,,,,,x,1,1.28391885734,2018_Nov_14_1402,59.9851283793,chinese_cond2,001,1022,
images\tulip02.jpg,sport shorts,x,sounds\animalfarm_english.wav,,,,,,,,,0,0,0,1,0,90,90,225,310.987725788,8.98039434105e-06,312.060370074,1.07265390793,,,,,x,1,1.05051798967,2018_Nov_14_1402,59.9851283793,chinese_cond2,001,1022,
images\bicycle.jpg,hand bag,x,sounds\animalfarm_english.wav,,,,,,,,,0,0,0,1,0,91,91,186,313.170234698,9.94245056063e-06,314.744422482,1.57419772609,,,,,z,0,1.55065510049,2018_Nov_14_1402,59.9851283793,chinese_cond2,001,1022,
images\cherry01.jpg,highlighter,x,sounds\animalfarm_english.wav,,,,,,,,,0,0,0,1,0,92,92,187,315.853476309,9.62184276432e-06,317.128405196,1.27493850864,,,,,x,1,1.25057995412,2018_Nov_14_1402,59.9851283793,chinese_cond2,001,1022,
images\pepper05a.jpg,lighter,x,sounds\animalfarm_english.wav,,,,,,,,,0,0,0,1,0,93,93,198,318.249016091,8.98027792573e-06,319.412351315,1.16334516706,,,,,x,1,1.15056164062,2018_Nov_14_1402,59.9851283793,chinese_cond2,001,1022,
images\parrot01.jpg,chameleon,x,sounds\animalfarm_english.wav,,,,,,,,,0,0,0,1,0,94,94,150,320.523936638,9.94256697595e-06,321.729636658,1.20570996229,,,,,x,1,1.18389541225,2018_Nov_14_1402,59.9851283793,chinese_cond2,001,1022,
images\djmixer01.jpg,light bulb,x,sounds\animalfarm_english.wav,,,,,,,,,0,0,0,1,0,95,95,196,322.85039188,9.30111855268e-06,324.146948012,1.29656639579,,,,,x,1,1.28392238542,2018_Nov_14_1402,59.9851283793,chinese_cond2,001,1022,
images\highlighter03b.jpg,coin,x,sounds\animalfarm_english.wav,,,,,,,,,0,0,0,1,0,96,96,156,325.247564802,9.621726349e-06,326.147488758,0.899933256675,,,,,x,1,0.883809681982,2018_Nov_14_1402,59.9851283793,chinese_cond2,001,1022,
images\raisin.jpg,ruler,x,sounds\animalfarm_english.wav,,,,,,,,,0,0,0,1,0,97,97,218,327.252004622,8.98039434105e-06,328.047996436,0.796001756331,,,,,x,1,0.783721450134,2018_Nov_14_1402,59.9851283793,chinese_cond2,001,1022,
images\dolphin01.jpg,dolphin,z,sounds\animalfarm_english.wav,,,,,,,,,0,0,0,1,0,98,98,99,329.147882931,9.30111855268e-06,330.16523553,1.01736190077,,,,,z,1,1.00050322036,2018_Nov_14_1402,59.9851283793,chinese_cond2,001,1022,
images\coin01b.jpg,arrow,x,sounds\animalfarm_english.wav,,,,,,,,,0,0,0,1,0,99,99,124,331.268070146,9.30100213736e-06,332.232464025,0.96440350113,,,,,x,1,0.950499996892,2018_Nov_14_1402,59.9851283793,chinese_cond2,001,1022,
images\lion.jpg,lion,z,sounds\animalfarm_english.wav,,,,,,,,,0,0,0,1,0,100,100,44,333.344827431,9.621726349e-06,334.216318961,0.871501472546,,,,,z,1,0.850472382386,2018_Nov_14_1402,59.9851283793,chinese_cond2,001,1022,
images\bull.jpg,button,x,sounds\animalfarm_english.wav,,,,,,,,,0,0,0,1,0,101,101,141,335.320369131,9.30100213736e-06,337.150457404,1.83009789535,,,,,x,1,1.81740994554,2018_Nov_14_1402,59.9851283793,chinese_cond2,001,1022,
images\leek.jpg,donut,x,sounds\animalfarm_english.wav,,,,,,,,,0,0,0,1,0,102,102,169,338.251128718,8.98039434105e-06,339.484603032,1.23348361521,,,,,x,1,1.21743027971,2018_Nov_14_1402,59.9851283793,chinese_cond2,001,1022,
images\lettuce.jpg,mushroom,x,sounds\animalfarm_english.wav,,,,,,,,,0,0,0,1,0,103,103,205,340.6079122,9.30111855268e-06,341.568300844,0.96039858635,,,,,x,1,0.950503524975,2018_Nov_14_1402,59.9851283793,chinese_cond2,001,1022,
images\tank.jpg,wallet,x,sounds\animalfarm_english.wav,,,,,,,,,0,0,0,1,0,104,104,237,342.672255437,9.30111855268e-06,343.518837725,0.846592230257,,,,,x,1,0.833806779468,2018_Nov_14_1402,59.9851283793,chinese_cond2,001,1022,
images\coffeepot03b.jpg,coffee pot,z,sounds\animalfarm_english.wav,,,,,,,,,0,0,0,1,0,105,105,107,344.639018525,9.30111855268e-06,346.019500827,1.38049224508,,,,,z,1,1.3672789447,2018_Nov_14_1402,59.9851283793,chinese_cond2,001,1022,
images\hat05.jpg,hat,z,sounds\animalfarm_english.wav,,,,,,,,,0,0,0,1,0,106,106,15,347.121548058,9.62184276432e-06,347.903608144,0.782076122006,,,,,z,1,0.767324616201,2018_Nov_14_1402,59.9851283793,chinese_cond2,001,1022,
images\highheelshoe02a.jpg,high heel shoe,z,sounds\animalfarm_english.wav,,,,,,,,,0,0,0,1,0,107,107,75,349.009406595,8.98039434105e-06,350.804137632,1.79474033799,,,,,z,1,1.78407200438,2018_Nov_14_1402,59.9851283793,chinese_cond2,001,1022,
images\nailpolish02b.jpg,nail polish,z,sounds\animalfarm_english.wav,,,,,,,,,0,0,0,1,0,108,108,94,351.912339929,8.98039434105e-06,353.938290571,2.02595994319,,,,,z,1,2.0174523457,2018_Nov_14_1402,59.9851283793,chinese_cond2,001,1022,
images\apple06.jpg,apple,z,sounds\animalfarm_english.wav,,,,,,,,,0,0,0,1,0,109,109,13,355.064304749,8.98039434105e-06,356.072247226,1.00795209885,,,,,z,1,0.98388604715,2018_Nov_14_1402,59.9851283793,chinese_cond2,001,1022,
images\comb02a.jpg,diploma,x,sounds\animalfarm_english.wav,,,,,,,,,0,0,0,1,0,110,110,166,357.17538557,9.30100213736e-06,358.956303868,1.78092792013,,,,,x,1,1.76737817761,2018_Nov_14_1402,59.9851283793,chinese_cond2,001,1022,
images\sportshorts02.jpg,tape,x,sounds\animalfarm_english.wav,,,,,,,,,0,0,0,1,0,111,111,230,360.064269149,9.621726349e-06,361.223643398,1.15938451258,,,,,x,1,1.15057767695,2018_Nov_14_1402,59.9851283793,chinese_cond2,001,1022,
images\calculator02b.jpg,dice,x,sounds\animalfarm_english.wav,,,,,,,,,0,0,0,1,0,112,112,165,362.324850646,8.65967012942e-06,363.72426224,1.39942121657,,,,,x,1,1.38396218757,2018_Nov_14_1402,59.9851283793,chinese_cond2,001,1022,
images\atm.jpg,atm,z,sounds\animalfarm_english.wav,,,,,,,,,0,0,0,1,0,113,113,96,364.86214876,8.98027792573e-06,366.058216714,1.19607789675,,,,,z,1,1.18389348791,2018_Nov_14_1402,59.9851283793,chinese_cond2,001,1022,
images\blueberry02.jpg,blueberry,z,sounds\animalfarm_english.wav,,,,,,,,,0,0,0,1,0,114,114,46,367.170321294,9.30111855268e-06,368.408846093,1.23853441991,,,,,z,1,1.2172125061,2018_Nov_14_1402,59.9851283793,chinese_cond2,001,1022,
images\thumbtack02a.jpg,thumb tack,z,sounds\animalfarm_english.wav,,,,,,,,,0,0,0,1,0,115,115,60,369.518678003,9.30100213736e-06,370.992886602,1.47421854117,,,,,x,0,1.45065474755,2018_Nov_14_1402,59.9851283793,chinese_cond2,001,1022,
images\flamingo.jpg,flamingo,z,sounds\animalfarm_english.wav,,,,,,,,,0,0,0,1,0,116,116,52,372.091191914,9.30100213736e-06,373.076780058,0.985597444931,,,,,z,1,0.967188371462,2018_Nov_14_1402,59.9851283793,chinese_cond2,001,1022,
images\button07.jpg,radish,x,sounds\animalfarm_english.wav,,,,,,,,,0,0,0,1,0,117,117,215,374.187445216,9.30100213736e-06,375.927538207,1.74010325468,,,,,x,1,1.71738104802,2018_Nov_14_1402,59.9851283793,chinese_cond2,001,1022,
images\donut.jpg,rhinoceros,x,sounds\animalfarm_english.wav,,,,,,,,,0,0,0,1,0,118,118,216,377.052114567,9.30111855268e-06,378.294844735,1.2427404304,,,,,x,1,1.23390312574,2018_Nov_14_1402,59.9851283793,chinese_cond2,001,1022,
images\medal01.jpg,medal,z,sounds\animalfarm_english.wav,,,,,,,,,0,0,0,1,0,119,119,115,379.394512494,1.02631747723e-05,380.878870811,1.48436954257,,,,,z,1,1.46730495559,2018_Nov_14_1402,59.9851283793,chinese_cond2,001,1022,
images\50dollarbill.jpg,cherry,x,sounds\animalfarm_english.wav,,,,,,,,,0,0,0,1,0,120,120,151,381.999881652,9.30100213736e-06,383.612936706,1.6130649962,,,,,x,1,1.60065415432,2018_Nov_14_1402,59.9851283793,chinese_cond2,001,1022,
images\grasshopper.jpg,cauliflower,x,sounds\animalfarm_english.wav,,,,,,,,,0,0,0,1,0,121,121,148,384.705074122,8.98039434105e-06,385.763524646,1.05846014607,,,,,x,1,1.03386457439,2018_Nov_14_1402,59.9851283793,chinese_cond2,001,1022,
images\umbrella01.jpg,umbrella,z,sounds\animalfarm_english.wav,,,,,,,,,0,0,0,1,0,122,122,53,386.875095216,9.94245056063e-06,387.814073105,0.938987510512,,,,,z,1,0.91716526309,2018_Nov_14_1402,59.9851283793,chinese_cond2,001,1022,
images\skateboard.jpg,key,x,sounds\animalfarm_english.wav,,,,,,,,,0,0,0,1,0,123,123,189,388.903615841,9.94256697595e-06,389.714577255,0.810971676954,,,,,x,1,0.800463065272,2018_Nov_14_1402,59.9851283793,chinese_cond2,001,1022,
images\corkscrew02a.jpg,masquerade mask,x,sounds\animalfarm_english.wav,,,,,,,,,0,0,0,1,0,124,124,201,390.817798025,9.62184276432e-06,392.132101892,1.31431380997,,,,,x,1,1.30080095096,2018_Nov_14_1402,59.9851283793,chinese_cond2,001,1022,
images\tissuebox03.jpg,tissue box,z,sounds\animalfarm_english.wav,,,,,,,,,0,0,0,1,0,125,125,58,393.256300757,8.98039434105e-06,394.682584762,1.42629362724,,,,,z,1,1.41731359914,2018_Nov_14_1402,59.9851283793,chinese_cond2,001,1022,
images\spoon02b.jpg,spoon,z,sounds\animalfarm_english.wav,,,,,,,,,0,0,0,1,0,126,126,38,395.773979055,8.98027792573e-06,396.633104965,0.85913585301,,,,,z,1,0.850480079767,2018_Nov_14_1402,59.9851283793,chinese_cond2,001,1022,
images\table02.jpg,table,z,sounds\animalfarm_english.wav,,,,,,,,,0,0,0,1,0,127,127,49,397.745672033,9.30100213736e-06,398.883714747,1.13805201475,,,,,z,1,1.11722241656,2018_Nov_14_1402,59.9851283793,chinese_cond2,001,1022,
images\axe01.jpg,axe,z,sounds\animalfarm_english.wav,,,,,,,,,0,0,0,1,0,128,128,104,399.986465332,8.98027792573e-06,400.850896704,0.864440994104,,,,,z,1,0.85046404344,2018_Nov_14_1402,59.9851283793,chinese_cond2,001,1022,
images\volleyball.jpg,volley ball,z,sounds\animalfarm_english.wav,,,,,,,,,0,0,0,1,0,129,129,2,401.982536429,8.98027792573e-06,402.90173991,0.919214065536,,,,,z,1,0.900635327678,2018_Nov_14_1402,59.9851283793,chinese_cond2,001,1022,
images\razor04a.jpg,razor,z,sounds\animalfarm_english.wav,,,,,,,,,0,0,0,1,0,130,130,36,404.000133743,8.98027792573e-06,404.968673657,0.968549535726,,,,,x,0,0.950497751823,2018_Nov_14_1402,59.9851283793,chinese_cond2,001,1022,
images\mattress.jpg,cat,x,sounds\animalfarm_english.wav,,,,,,,,,0,0,0,1,0,131,131,147,406.071515649,9.621726349e-06,407.385991426,1.31448604015,,,,,x,1,1.30058959196,2018_Nov_14_1402,59.9851283793,chinese_cond2,001,1022,
images\cocktailshrimp01.jpg,cocktail shrimp,z,sounds\animalfarm_english.wav,,,,,,,,,0,0,0,1,0,132,132,30,408.499648965,9.30111855268e-06,410.80358085,2.30394182797,,,,,x,0,2.28418987151,2018_Nov_14_1402,59.9851283793,chinese_cond2,001,1022,
images\grandpiano.jpg,tulip,x,sounds\animalfarm_english.wav,,,,,,,,,0,0,0,1,0,133,133,236,411.918034433,9.621726349e-06,413.104197062,1.18617225136,,,,,x,1,1.16722820571,2018_Nov_14_1402,59.9851283793,chinese_cond2,001,1022,
images\cola.jpg,comb,x,sounds\animalfarm_english.wav,,,,,,,,,0,0,0,1,0,134,134,157,414.223470526,8.98039434105e-06,415.371477258,1.14801635325,,,,,x,1,1.13385658839,2018_Nov_14_1402,59.9851283793,chinese_cond2,001,1022,
images\candycane01a.jpg,lip,x,sounds\animalfarm_english.wav,,,,,,,,,0,0,0,1,0,135,135,200,416.463903328,9.30100213736e-06,417.638741738,1.1748480316,,,,,x,1,1.15055298095,2018_Nov_14_1402,59.9851283793,chinese_cond2,001,1022,
images\printer03a.jpg,printer,z,sounds\animalfarm_english.wav,,,,,,,,,0,0,0,1,0,136,136,72,418.746085129,9.30100213736e-06,419.689294687,0.943219499895,,,,,z,1,0.933834714699,2018_Nov_14_1402,59.9851283793,chinese_cond2,001,1022,
images\gps.jpg,gps,z,sounds\animalfarm_english.wav,,,,,,,,,0,0,0,1,0,137,137,21,420.806157889,9.94256697595e-06,422.023268725,1.21712109912,,,,,z,1,1.20057544799,2018_Nov_14_1402,59.9851283793,chinese_cond2,001,1022,
images\straw.jpg,straw,z,sounds\animalfarm_english.wav,,,,,,,,,0,0,0,1,0,138,138,109,423.113136999,9.62184276432e-06,423.990470567,0.877345113899,,,,,z,1,0.867159474059,2018_Nov_14_1402,59.9851283793,chinese_cond2,001,1022,
images\cauliflower01.jpg,glue stick,x,sounds\animalfarm_english.wav,,,,,,,,,0,0,0,1,0,139,139,181,425.158778339,8.6595537141e-06,426.207719636,1.04895027739,,,,,x,1,1.03386168787,2018_Nov_14_1402,59.9851283793,chinese_cond2,001,1022,
images\sunglasses03a.jpg,sun glasses,z,sounds\animalfarm_english.wav,,,,,,,,,0,0,0,1,0,140,140,17,427.31504186,9.30100213736e-06,428.024871397,0.70983980014,,,,,z,1,0.70043929934,2018_Nov_14_1402,59.9851283793,chinese_cond2,001,1022,
images\croissant02b.jpg,croissant,z,sounds\animalfarm_english.wav,,,,,,,,,0,0,0,1,0,141,141,39,429.134283155,9.62184276432e-06,430.442187882,1.30791434925,,,,,z,1,1.28392976208,2018_Nov_14_1402,59.9851283793,chinese_cond2,001,1022,
images\computermouse02a.jpg,world map,x,sounds\animalfarm_english.wav,,,,,,,,,0,0,0,1,0,142,142,239,431.542376181,8.98039434105e-06,432.49274019,0.950373630621,,,,,x,1,0.933835676988,2018_Nov_14_1402,59.9851283793,chinese_cond2,001,1022,
images\icecube02 (2).jpg,aloe,x,sounds\animalfarm_english.wav,,,,,,,,,0,0,0,1,0,143,143,122,433.601862973,9.30111855268e-06,434.91027477,1.30842173903,,,,,x,1,1.28413759312,2018_Nov_14_1402,59.9851283793,chinese_cond2,001,1022,
images\baseball01a.jpg,baseball,z,sounds\animalfarm_english.wav,,,,,,,,,0,0,0,1,0,144,144,74,436.041762791,9.30111855268e-06,436.843901654,0.802148484276,,,,,z,1,0.78376506886,2018_Nov_14_1402,59.9851283793,chinese_cond2,001,1022,
images\envelope02a.jpg,grand piano,x,sounds\animalfarm_english.wav,,,,,,,,,0,0,0,1,0,145,145,182,437.965112307,9.30111855268e-06,439.477949235,1.51284622855,,,,,x,1,1.50065540511,2018_Nov_14_1402,59.9851283793,chinese_cond2,001,1022,
images\beermug01b.jpg,beer mug,z,sounds\animalfarm_english.wav,,,,,,,,,0,0,0,1,0,146,146,111,440.593827486,9.30100213736e-06,441.62852627,1.03470840643,,,,,x,0,1.01717908646,2018_Nov_14_1402,59.9851283793,chinese_cond2,001,1022,
images\elbow.jpg,elbow,z,sounds\animalfarm_english.wav,,,,,,,,,0,0,0,1,0,147,147,105,442.739147168,9.30100213736e-06,443.745763761,1.00662621448,,,,,z,1,0.983829599223,2018_Nov_14_1402,59.9851283793,chinese_cond2,001,1022,
images\boxingglove02a.jpg,bracelet,x,sounds\animalfarm_english.wav,,,,,,,,,0,0,0,1,0,148,148,135,444.855539865,9.62184276432e-06,445.963035281,1.10750535852,,,,,x,1,1.08386811847,2018_Nov_14_1402,59.9851283793,chinese_cond2,001,1022,
images\8ball.jpg,nail clipper,x,sounds\animalfarm_english.wav,,,,,,,,,0,0,0,1,0,149,149,206,447.078838802,9.30100213736e-06,448.163621954,1.08479341504,,,,,x,1,1.06719898747,2018_Nov_14_1402,59.9851283793,chinese_cond2,001,1022,
images\candle08a.jpg,screw driver,x,sounds\animalfarm_english.wav,,,,,,,,,0,0,0,1,0,150,150,221,449.27719001,9.30100213736e-06,450.647628755,1.370448687,,,,,z,0,1.35061398323,2018_Nov_14_1402,59.9851283793,chinese_cond2,001,1022,
images\desktopcomputer.jpg,desktop computer,z,sounds\animalfarm_english.wav,,,,,,,,,0,0,0,1,0,151,151,16,451.783599895,8.98039434105e-06,452.714841534,0.931251260918,,,,,z,1,0.91715916933,2018_Nov_14_1402,59.9851283793,chinese_cond2,001,1022,
images\aloe02.jpg,broad sword,x,sounds\animalfarm_english.wav,,,,,,,,,0,0,0,1,0,152,152,137,453.835356531,9.30100213736e-06,454.998958921,1.16361265315,,,,,x,1,1.15071879677,2018_Nov_14_1402,59.9851283793,chinese_cond2,001,1022,
images\diploma01.jpg,glasses,x,sounds\animalfarm_english.wav,,,,,,,,,0,0,0,1,0,153,153,179,456.130901733,9.30111855268e-06,457.06600845,0.935116018052,,,,,x,1,0.917148585315,2018_Nov_14_1402,59.9851283793,chinese_cond2,001,1022,
images\triangleruler02.jpg,bottle of red wine,x,sounds\animalfarm_english.wav,,,,,,,,,0,0,0,1,0,154,154,134,458.176550449,9.30100213736e-06,459.566684702,1.39014483697,,,,,x,1,1.36728215206,2018_Nov_14_1402,59.9851283793,chinese_cond2,001,1022,
images\dresser02.jpg,dresser,z,sounds\animalfarm_english.wav,,,,,,,,,0,0,0,1,0,155,155,87,460.689140417,9.94256697595e-06,462.034019165,1.34488901088,,,,,z,1,1.3339442109,2018_Nov_14_1402,59.9851283793,chinese_cond2,001,1022,
images\lighter02b.jpg,stapler,x,sounds\animalfarm_english.wav,,,,,,,,,0,0,0,1,0,156,156,227,463.13556959,1.02632911876e-05,464.034556382,0.898997376207,,,,,x,1,0.883824435412,2018_Nov_14_1402,59.9851283793,chinese_cond2,001,1022,
images\ant.jpg,ant,z,sounds\animalfarm_english.wav,,,,,,,,,0,0,0,1,0,157,157,98,465.129622033,9.30111855268e-06,466.068493441,0.938904442359,,,,,z,1,0.917166866828,2018_Nov_14_1402,59.9851283793,chinese_cond2,001,1022,
images\orange.jpg,bat,x,sounds\animalfarm_english.wav,,,,,,,,,0,0,0,1,0,158,158,128,467.193575266,8.98039434105e-06,468.102307982,0.908742337371,,,,,x,1,0.900486510363,2018_Nov_14_1402,59.9851283793,chinese_cond2,001,1022,
images\nametag01a.jpg,name tag,z,sounds\animalfarm_english.wav,,,,,,,,,0,0,0,1,0,159,159,108,469.222309496,9.30100213736e-06,470.369586574,1.14728669985,,,,,z,1,1.1338880196,2018_Nov_14_1402,59.9851283793,chinese_cond2,001,1022,
images\belt02a.jpg,snowman,x,sounds\animalfarm_english.wav,,,,,,,,,0,0,0,1,0,160,160,224,471.472945898,9.62184276432e-06,472.836906283,1.36397032766,,,,,x,1,1.35059955053,2018_Nov_14_1402,59.9851283793,chinese_cond2,001,1022,
images\acousticguitar02.jpg,acoustic guitar,z,sounds\animalfarm_english.wav,,,,,,,,,0,0,0,1,0,161,161,97,473.950418212,9.621726349e-06,474.937573106,0.987194664078,,,,,z,1,0.967180032632,2018_Nov_14_1402,59.9851283793,chinese_cond2,001,1022,
images\lightbulb03b.jpg,treadmill,x,sounds\animalfarm_english.wav,,,,,,,,,0,0,0,1,0,162,162,234,476.040715618,9.30111855268e-06,477.988325226,1.94761922932,,,,,x,1,1.93412914185,2018_Nov_14_1402,59.9851283793,chinese_cond2,001,1022,
images\pineapple01a.jpg,pineapple,z,sounds\animalfarm_english.wav,,,,,,,,,0,0,0,1,0,163,163,51,479.101569989,8.98027792573e-06,479.788788933,0.687228885596,,,,,z,1,0.667097509489,2018_Nov_14_1402,59.9851283793,chinese_cond2,001,1022,
images\feather03b.jpg,feather,z,sounds\animalfarm_english.wav,,,,,,,,,0,0,0,1,0,164,164,114,480.890054232,9.30111855268e-06,482.055894332,1.16585004295,,,,,z,1,1.15039454203,2018_Nov_14_1402,59.9851283793,chinese_cond2,001,1022,
images\bowl02b (1).jpg,bowl,z,sounds\animalfarm_english.wav,,,,,,,,,0,0,0,1,0,165,165,24,483.173973089,9.62184276432e-06,484.823474567,1.64951238304,,,,,z,1,1.63401839498,2018_Nov_14_1402,59.9851283793,chinese_cond2,001,1022,
images\bat.jpg,hand,x,sounds\animalfarm_english.wav,,,,,,,,,0,0,0,1,0,166,166,185,485.921897586,9.94245056063e-06,487.357490685,1.43560304155,,,,,x,1,1.41729563847,2018_Nov_14_1402,59.9851283793,chinese_cond2,001,1022,
images\candy.jpg,candy,z,sounds\animalfarm_english.wav,,,,,,,,,0,0,0,1,0,167,167,31,488.459726824,9.30100213736e-06,489.324674246,0.86495736416,,,,,z,1,0.850464684889,2018_Nov_14_1402,59.9851283793,chinese_cond2,001,1022,
images\egg01b (1).jpg,egg,z,sounds\animalfarm_english.wav,,,,,,,,,0,0,0,1,0,168,168,19,490.43740745,1.12254638225e-05,491.275209523,0.83781265642,,,,,z,1,0.81713957293,2018_Nov_14_1402,59.9851283793,chinese_cond2,001,1022,
images\pipe.jpg,icecube,x,sounds\animalfarm_english.wav,,,,,,,,,0,0,0,1,0,169,169,188,492.384467012,8.65967012942e-06,493.875912428,1.49145471712,,,,,x,1,1.46731457755,2018_Nov_14_1402,59.9851283793,chinese_cond2,001,1022,
images\screwdriver02b.jpg,cola,x,sounds\animalfarm_english.wav,,,,,,,,,0,0,0,1,0,170,170,158,494.969694851,9.30100213736e-06,495.859767364,0.890081814141,,,,,x,1,0.867138306028,2018_Nov_14_1402,59.9851283793,chinese_cond2,001,1022,
images\ostrich.jpg,ostrich,z,sounds\animalfarm_english.wav,,,,,,,,,0,0,0,1,0,171,171,76,496.958786934,9.621726349e-06,497.993678797,1.03490244609,,,,,x,0,1.01718197297,2018_Nov_14_1402,59.9851283793,chinese_cond2,001,1022,
images\electrictoothbrush01a.jpg,banjo,x,sounds\animalfarm_english.wav,,,,,,,,,0,0,0,1,0,172,172,127,499.0889,9.30111855268e-06,500.711067542,1.62217748445,,,,,x,1,1.60067307716,2018_Nov_14_1402,59.9851283793,chinese_cond2,001,1022,
images\cigar.jpg,crocodile,x,sounds\animalfarm_english.wav,,,,,,,,,0,0,0,1,0,173,173,162,501.81000212,1.02632911876e-05,503.095056029,1.28506449331,,,,,x,1,1.26725485816,2018_Nov_14_1402,59.9851283793,chinese_cond2,001,1022,
images\dragonfly02.jpg,dragon fly,z,sounds\animalfarm_english.wav,,,,,,,,,0,0,0,1,0,174,174,29,504.193941215,1.12253474072e-05,505.56238953,1.36845889839,,,,,x,0,1.35060660657,2018_Nov_14_1402,59.9851283793,chinese_cond2,001,1022,
images\kiwi03.jpg,backpack,x,sounds\animalfarm_english.wav,,,,,,,,,0,0,0,1,0,175,175,125,506.689905671,9.30100213736e-06,507.879666213,1.18977080542,,,,,x,1,1.16722211195,2018_Nov_14_1402,59.9851283793,chinese_cond2,001,1022,
images\cloud.jpg,ceiling fan,x,sounds\animalfarm_english.wav,,,,,,,,,0,0,0,1,0,176,176,149,508.985225723,8.98027792573e-06,510.230304572,1.24508911232,,,,,x,1,1.23381877469,2018_Nov_14_1402,59.9851283793,chinese_cond2,001,1022,
images\fryingpan01.jpg,frying pan,z,sounds\animalfarm_english.wav,,,,,,,,,0,0,0,1,0,177,177,45,511.330895062,8.98027792573e-06,512.647619133,1.31673433469,,,,,z,1,1.30058670545,2018_Nov_14_1402,59.9851283793,chinese_cond2,001,1022,
images\watermelon01.jpg,orange,x,sounds\animalfarm_english.wav,,,,,,,,,0,0,0,1,0,178,178,207,513.776915629,9.62184276432e-06,514.648149936,0.87124457059,,,,,x,1,0.850467571523,2018_Nov_14_1402,59.9851283793,chinese_cond2,001,1022,
images\dreamcatcher.jpg,dream catcher,z,sounds\animalfarm_english.wav,,,,,,,,,0,0,0,1,0,179,179,48,515.74638565,3.75250820071e-05,517.81568636,2.06932380225,,,,,x,0,2.05080600234,2018_Nov_14_1402,59.9851283793,chinese_cond2,001,1022,
images\hairpin.jpg,hair pin,z,sounds\animalfarm_english.wav,,,,,,,,,0,0,0,1,0,180,180,28,518.907215357,9.30100213736e-06,520.04960039,1.14239497564,,,,,z,1,1.13387037965,2018_Nov_14_1402,59.9851283793,chinese_cond2,001,1022,
images\bed.jpg,bed,z,sounds\animalfarm_english.wav,,,,,,,,,0,0,0,1,0,181,181,103,521.169567907,9.62184276432e-06,521.783397195,0.613839230617,,,,,z,1,0.600400459371,2018_Nov_14_1402,59.9851283793,chinese_cond2,001,1022,
images\snowman.jpg,globe,x,sounds\animalfarm_english.wav,,,,,,,,,0,0,0,1,0,182,182,180,522.894685847,9.62184276432e-06,523.867301235,0.972625331138,,,,,x,1,0.950493903132,2018_Nov_14_1402,59.9851283793,chinese_cond2,001,1022,
images\hanger02a.jpg,hanger,z,sounds\animalfarm_english.wav,,,,,,,,,0,0,0,1,0,183,183,88,524.960808796,8.98027792573e-06,526.101230019,1.14043084497,,,,,z,1,1.11717206251,2018_Nov_14_1402,59.9851283793,chinese_cond2,001,1022,
images\fireextinguisher02.jpg,fire extinguisher,z,sounds\animalfarm_english.wav,,,,,,,,,0,0,0,1,0,184,184,175,527.21211263,9.30100213736e-06,528.451863567,1.23976087896,,,,,z,1,1.2172372021,2018_Nov_14_1402,59.9851283793,chinese_cond2,001,1022,
images\radish01.jpg,raisin,x,sounds\animalfarm_english.wav,,,,,,,,,0,0,0,1,0,185,185,214,529.56299859,8.98039434105e-06,531.519358585,1.9563692963,,,,,z,0,1.93407814635,2018_Nov_14_1402,59.9851283793,chinese_cond2,001,1022,
images\teapot.jpg,light switch,x,sounds\animalfarm_english.wav,,,,,,,,,0,0,0,1,0,186,186,197,532.636359059,9.62184276432e-06,534.220081728,1.58373293211,,,,,x,1,1.56733802252,2018_Nov_14_1402,59.9851283793,chinese_cond2,001,1022,
images\parkbench03.jpg,park bench,z,sounds\animalfarm_english.wav,,,,,,,,,0,0,0,1,0,187,187,71,535.325755095,9.621726349e-06,536.554045503,1.2283009917,,,,,z,1,1.21724297514,2018_Nov_14_1402,59.9851283793,chinese_cond2,001,1022,
images\gamecontroller01.jpg,game controller,z,sounds\animalfarm_english.wav,,,,,,,,,0,0,0,1,0,188,188,112,537.675629162,9.30100213736e-06,538.887991638,1.21237241884,,,,,z,1,1.20055203489,2018_Nov_14_1402,59.9851283793,chinese_cond2,001,1022,
images\mailbox01.jpg,mail box,z,sounds\animalfarm_english.wav,,,,,,,,,0,0,0,1,0,189,189,73,540.007636183,9.30111855268e-06,541.555410195,1.54778395465,,,,,z,1,1.53401643853,2018_Nov_14_1402,59.9851283793,chinese_cond2,001,1022,
images\puzzle.jpg,puzzle,z,sounds\animalfarm_english.wav,,,,,,,,,0,0,0,1,0,190,190,57,542.675752321,8.98039434105e-06,545.256397616,2.58065523836,,,,,z,1,2.56762186566,2018_Nov_14_1402,59.9851283793,chinese_cond2,001,1022,
images\cat.jpg,black olive,x,sounds\animalfarm_english.wav,,,,,,,,,0,0,0,1,0,191,191,133,546.386785866,9.30111855268e-06,547.757050777,1.37027485319,,,,,x,1,1.35060083342,2018_Nov_14_1402,59.9851283793,chinese_cond2,001,1022,
images\lollipop03b.jpg,lollipop,z,sounds\animalfarm_english.wav,,,,,,,,,0,0,0,1,0,192,192,42,548.850117659,8.98027792573e-06,550.541159023,1.69105098618,,,,,z,1,1.66738712578,2018_Nov_14_1402,59.9851283793,chinese_cond2,001,1022,
images\dice05a.jpg,band aid,x,sounds\animalfarm_english.wav,,,,,,,,,0,0,0,1,0,193,193,126,551.653847967,9.62184276432e-06,552.741723246,1.08788522088,,,,,x,1,1.06719481805,2018_Nov_14_1402,59.9851283793,chinese_cond2,001,1022,
images\honeycomb.jpg,honey comb,z,sounds\animalfarm_english.wav,,,,,,,,,0,0,0,1,0,194,194,59,553.854601098,9.30111855268e-06,554.992341687,1.1377508525,,,,,z,1,1.11722113367,2018_Nov_14_1402,59.9851283793,chinese_cond2,001,1022,
images\beachumbrella01.jpg,beach umbrella,z,sounds\animalfarm_english.wav,,,,,,,,,0,0,0,1,0,195,195,92,556.096408855,9.62184276432e-06,557.192929643,1.09653169313,,,,,z,1,1.0838671563,2018_Nov_14_1402,59.9851283793,chinese_cond2,001,1022,
images\cookingpot.jpg,grasshopper,x,sounds\animalfarm_english.wav,,,,,,,,,0,0,0,1,0,196,196,183,558.30697045,9.30111855268e-06,560.210406364,1.90344585606,,,,,x,1,1.88409095944,2018_Nov_14_1402,59.9851283793,chinese_cond2,001,1022,
images\antelope.jpg,antelope,z,sounds\animalfarm_english.wav,,,,,,,,,0,0,0,1,0,197,197,12,561.314598615,9.30100213736e-06,562.577711288,1.26312261482,,,,,z,1,1.25058733078,2018_Nov_14_1402,59.9851283793,chinese_cond2,001,1022,
,,,sounds\animalfarm_english.wav,,,,,,,,,0,0,0,1,,,,,,,,,,,,,,,,2018_Nov_14_1402,59.9851283793,chinese_cond2,001,1022,
images\leek.jpg,donut,x,sounds\greatgatsby_chinese.wav,,,,,,,,,0,1,1,0,0,0,0,169,583.703845097,9.30111855268e-06,584.800347924,1.09651341173,,,,573.580821054,x,1,1.08387741947,2018_Nov_14_1402,59.9851283793,chinese_cond2,001,1022,
images\coin01b.jpg,arrow,x,sounds\greatgatsby_chinese.wav,,,,,,,,,0,1,1,0,0,1,1,124,585.901100702,9.30100213736e-06,587.234330654,1.33323957422,,,,,x,1,1.31726257165,2018_Nov_14_1402,59.9851283793,chinese_cond2,001,1022,
images\dreamcatcher.jpg,dream catcher,z,sounds\greatgatsby_chinese.wav,,,,,,,,,0,1,1,0,0,2,2,48,588.330398577,9.30111855268e-06,589.851700124,1.52131213166,,,,,z,1,1.50065155642,2018_Nov_14_1402,59.9851283793,chinese_cond2,001,1022,
images\tulip02.jpg,sport shorts,x,sounds\greatgatsby_chinese.wav,,,,,,,,,0,1,1,0,0,3,3,225,590.944594776,9.62184276432e-06,591.968933766,1.02434893278,,,,,x,1,1.00051380426,2018_Nov_14_1402,59.9851283793,chinese_cond2,001,1022,
images\bowtie.jpg,bowtie,z,sounds\greatgatsby_chinese.wav,,,,,,,,,0,1,1,0,0,4,4,89,593.077393928,9.94256697595e-06,594.219542265,1.14215860004,,,,,z,1,1.13388577453,2018_Nov_14_1402,59.9851283793,chinese_cond2,001,1022,
images\computermouse02a.jpg,world map,x,sounds\greatgatsby_chinese.wav,,,,,,,,,0,1,1,0,0,5,5,239,595.319613178,9.621726349e-06,596.970278894,1.65067565895,,,,,x,1,1.63402256439,2018_Nov_14_1402,59.9851283793,chinese_cond2,001,1022,
images\cheetah.jpg,cheetah,z,sounds\greatgatsby_chinese.wav,,,,,,,,,0,1,1,0,0,6,6,82,598.071126607,8.65967012942e-06,598.937487151,0.866370165488,,,,,x,0,0.850477834698,2018_Nov_14_1402,59.9851283793,chinese_cond2,001,1022,
images\bicycle.jpg,hand bag,x,sounds\greatgatsby_chinese.wav,,,,,,,,,0,1,1,0,0,7,7,186,600.046085867,9.62184276432e-06,601.288114605,1.24203835952,,,,,x,1,1.21724457876,2018_Nov_14_1402,59.9851283793,chinese_cond2,001,1022,
images\coffeepot03b.jpg,coffee pot,z,sounds\greatgatsby_chinese.wav,,,,,,,,,0,1,1,0,0,8,8,107,602.407495512,9.62184276432e-06,603.505363674,1.09787842468,,,,,z,1,1.08386747702,2018_Nov_14_1402,59.9851283793,chinese_cond2,001,1022,
images\atm.jpg,atm,z,sounds\greatgatsby_chinese.wav,,,,,,,,,0,1,1,0,0,9,9,96,604.642478846,7.82572897151e-05,605.405878087,0.763454727246,,,,,z,1,0.750450861524,2018_Nov_14_1402,59.9851283793,chinese_cond2,001,1022,
images\plate01b.jpg,plate,z,sounds\greatgatsby_chinese.wav,,,,,,,,,0,1,1,0,0,10,10,3,606.503811036,9.30111855268e-06,607.306331563,0.802530469839,,,,,z,1,0.783719525789,2018_Nov_14_1402,59.9851283793,chinese_cond2,001,1022,
images\microphone01.jpg,diaper,x,sounds\greatgatsby_chinese.wav,,,,,,,,,0,1,1,0,0,11,11,164,608.404002798,8.6595537141e-06,609.790394491,1.38640099368,,,,,x,1,1.36728696281,2018_Nov_14_1402,59.9851283793,chinese_cond2,001,1022,
images\djmixer01.jpg,light bulb,x,sounds\greatgatsby_chinese.wav,,,,,,,,,0,1,1,0,0,12,12,196,610.910196512,9.94245056063e-06,612.291068819,1.38088224863,,,,,x,1,1.36727862398,2018_Nov_14_1402,59.9851283793,chinese_cond2,001,1022,
images\gps.jpg,gps,z,sounds\greatgatsby_chinese.wav,,,,,,,,,0,1,1,0,0,13,13,21,613.408022466,9.30111855268e-06,614.1582315,0.750218334724,,,,,z,1,0.733770184568,2018_Nov_14_1402,59.9851283793,chinese_cond2,001,1022,
images\hairband.jpg,hairband,z,sounds\greatgatsby_chinese.wav,,,,,,,,,0,1,1,0,0,14,14,66,615.266069131,9.30111855268e-06,616.208831275,0.942772086128,,,,,z,1,0.933876088471,2018_Nov_14_1402,59.9851283793,chinese_cond2,001,1022,
images\spoon02b.jpg,spoon,z,sounds\greatgatsby_chinese.wav,,,,,,,,,0,1,1,0,0,15,15,38,617.299568398,9.30100213736e-06,618.092640636,0.793082180782,,,,,z,1,0.783809649874,2018_Nov_14_1402,59.9851283793,chinese_cond2,001,1022,
images\arrow02.jpg,hammer,x,sounds\greatgatsby_chinese.wav,,,,,,,,,0,1,1,0,0,16,16,184,619.189417685,8.98039434105e-06,620.543279668,1.35387160478,,,,,x,1,1.33393266471,2018_Nov_14_1402,59.9851283793,chinese_cond2,001,1022,
images\swan.jpg,swan,z,sounds\greatgatsby_chinese.wav,,,,,,,,,0,1,1,0,0,17,17,54,621.635345883,9.30100213736e-06,622.393612214,0.758276273264,,,,,z,1,0.750283121481,2018_Nov_14_1402,59.9851283793,chinese_cond2,001,1022,
images\rhinoceros01.jpg,envelope,x,sounds\greatgatsby_chinese.wav,,,,,,,,,0,1,1,0,0,18,18,173,623.504273203,8.6595537141e-06,625.644650166,2.14038594323,,,,,x,1,2.11748509179,2018_Nov_14_1402,59.9851283793,chinese_cond2,001,1022,
images\corn01.jpg,corn,z,sounds\greatgatsby_chinese.wav,,,,,,,,,0,1,1,0,0,19,19,22,626.742544306,9.30111855268e-06,628.22870158,1.48616721598,,,,,x,0,1.46723054699,2018_Nov_14_1402,59.9851283793,chinese_cond2,001,1022,
images\acousticguitar02.jpg,acoustic guitar,z,sounds\greatgatsby_chinese.wav,,,,,,,,,0,1,1,0,0,20,20,97,629.341764491,9.30111855268e-06,630.262560381,0.920805832371,,,,,z,1,0.900482661673,2018_Nov_14_1402,59.9851283793,chinese_cond2,001,1022,
images\table02.jpg,table,z,sounds\greatgatsby_chinese.wav,,,,,,,,,0,1,1,0,0,21,21,49,631.375109809,8.98039434105e-06,632.013017016,0.637916507781,,,,,z,1,0.617071193876,2018_Nov_14_1402,59.9851283793,chinese_cond2,001,1022,
images\teapot.jpg,light switch,x,sounds\greatgatsby_chinese.wav,,,,,,,,,0,1,1,0,0,22,22,197,633.127755404,9.621726349e-06,634.913803085,1.78605730296,,,,,x,1,1.76737849833,2018_Nov_14_1402,59.9851283793,chinese_cond2,001,1022,
images\sunglasses03a.jpg,sun glasses,z,sounds\greatgatsby_chinese.wav,,,,,,,,,0,1,1,0,0,23,23,17,636.022166708,9.30111855268e-06,636.997687881,0.975530794822,,,,,z,1,0.96714475262,2018_Nov_14_1402,59.9851283793,chinese_cond2,001,1022,
images\worldmap.jpg,scooter,x,sounds\greatgatsby_chinese.wav,,,,,,,,,0,1,1,0,0,24,24,220,638.126521889,8.65967012942e-06,639.064933374,0.938420786406,,,,,x,1,0.917165904539,2018_Nov_14_1402,59.9851283793,chinese_cond2,001,1022,
images\handfan01b.jpg,handfan,z,sounds\greatgatsby_chinese.wav,,,,,,,,,0,1,1,0,0,25,25,69,640.17798057,8.98039434105e-06,641.648968751,1.4709981241,,,,,z,1,1.45064640872,2018_Nov_14_1402,59.9851283793,chinese_cond2,001,1022,
images\grandpiano.jpg,tulip,x,sounds\greatgatsby_chinese.wav,,,,,,,,,0,1,1,0,0,26,26,236,642.762357842,8.98039434105e-06,643.882901384,1.12055348454,,,,,x,1,1.10055168206,2018_Nov_14_1402,59.9851283793,chinese_cond2,001,1022,
images\lion.jpg,lion,z,sounds\greatgatsby_chinese.wav,,,,,,,,,0,1,1,0,0,27,27,44,644.99356975,9.94256697595e-06,645.73338403,0.739824863966,,,,,z,1,0.71710458165,2018_Nov_14_1402,59.9851283793,chinese_cond2,001,1022,
images\sock03.jpg,sock,z,sounds\greatgatsby_chinese.wav,,,,,,,,,0,1,1,0,0,28,28,90,646.837464347,9.30111855268e-06,647.733921568,0.896467162878,,,,,z,1,0.883815455134,2018_Nov_14_1402,59.9851283793,chinese_cond2,001,1022,
images\broom02.jpg,broom,z,sounds\greatgatsby_chinese.wav,,,,,,,,,0,1,1,0,0,29,29,116,648.826116073,8.98027792573e-06,651.10148211,2.27537597995,,,,,x,0,2.25080574572,2018_Nov_14_1402,59.9851283793,chinese_cond2,001,1022,
images\beachumbrella01.jpg,beach umbrella,z,sounds\greatgatsby_chinese.wav,,,,,,,,,0,1,1,0,0,30,30,92,652.207097426,9.30111855268e-06,652.98534375,0.778255945654,,,,,z,1,0.767129614251,2018_Nov_14_1402,59.9851283793,chinese_cond2,001,1022,
images\swallow.jpg,mattress,x,sounds\greatgatsby_chinese.wav,,,,,,,,,0,1,1,0,0,31,31,202,654.086700136,9.30111855268e-06,655.45267276,1.36598192586,,,,,x,1,1.35061847349,2018_Nov_14_1402,59.9851283793,chinese_cond2,001,1022,
images\radio03a.jpg,radio,z,sounds\greatgatsby_chinese.wav,,,,,,,,,0,1,1,0,0,32,32,37,656.565983594,9.30111855268e-06,657.469966025,0.904007127858,,,,,z,1,0.88382732193,2018_Nov_14_1402,59.9851283793,chinese_cond2,001,1022,
images\redfox.jpg,red fox,z,sounds\greatgatsby_chinese.wav,,,,,,,,,0,1,1,0,0,33,33,1,658.582565487,9.30100213736e-06,659.420407971,0.837852105848,,,,,z,1,0.817138931365,2018_Nov_14_1402,59.9851283793,chinese_cond2,001,1022,
images\medal01.jpg,medal,z,sounds\greatgatsby_chinese.wav,,,,,,,,,0,1,1,0,0,34,34,115,660.521129959,9.621726349e-06,661.420931076,0.899811059819,,,,,z,1,0.883813209948,2018_Nov_14_1402,59.9851283793,chinese_cond2,001,1022,
images\fork01.jpg,cooking pot,x,sounds\greatgatsby_chinese.wav,,,,,,,,,0,1,1,0,0,35,35,160,662.514300404,8.98039434105e-06,663.588204504,1.07391372253,,,,,x,1,1.05055262812,2018_Nov_14_1402,59.9851283793,chinese_cond2,001,1022,
images\volleyball.jpg,volley ball,z,sounds\greatgatsby_chinese.wav,,,,,,,,,0,1,1,0,0,36,36,2,664.721018731,9.621726349e-06,665.738770635,1.01776216761,,,,,z,1,1.00052182248,2018_Nov_14_1402,59.9851283793,chinese_cond2,001,1022,
images\candy.jpg,candy,z,sounds\greatgatsby_chinese.wav,,,,,,,,,0,1,1,0,0,37,37,31,666.841195041,9.62184276432e-06,668.572856447,1.73167102807,,,,,z,1,1.71735891793,2018_Nov_14_1402,59.9851283793,chinese_cond2,001,1022,
images\lighter02b.jpg,stapler,x,sounds\greatgatsby_chinese.wav,,,,,,,,,0,1,1,0,0,38,38,227,669.67380583,9.30111855268e-06,671.006840781,1.33304489311,,,,,x,1,1.31725166691,2018_Nov_14_1402,59.9851283793,chinese_cond2,001,1022,
images\glasses01b.jpg,calculator,x,sounds\greatgatsby_chinese.wav,,,,,,,,,0,1,1,0,0,39,39,142,672.099015401,9.621726349e-06,673.457507074,1.35850161593,,,,,x,1,1.35062232218,2018_Nov_14_1402,59.9851283793,chinese_cond2,001,1022,
images\mattress.jpg,cat,x,sounds\greatgatsby_chinese.wav,,,,,,,,,0,1,1,0,0,40,40,147,674.561306756,9.30100213736e-06,675.42471052,0.863413706305,,,,,x,1,0.850486173644,2018_Nov_14_1402,59.9851283793,chinese_cond2,001,1022,
images\aquarium.jpg,computer mouse,x,sounds\greatgatsby_chinese.wav,,,,,,,,,0,1,1,0,0,41,41,159,676.560475753,9.62184276432e-06,678.625571736,2.06510592485,,,,,x,1,2.05080824741,2018_Nov_14_1402,59.9851283793,chinese_cond2,001,1022,
images\lip.jpg,boxing glove,x,sounds\greatgatsby_chinese.wav,,,,,,,,,0,1,1,0,0,42,42,136,679.728919193,9.94245056063e-06,681.326294557,1.59738530731,,,,,x,1,1.58401837898,2018_Nov_14_1402,59.9851283793,chinese_cond2,001,1022,
images\icecube02 (2).jpg,aloe,x,sounds\greatgatsby_chinese.wav,,,,,,,,,0,1,1,0,0,43,43,122,682.436962282,9.30100213736e-06,683.493527895,1.05657491414,,,,,x,1,1.03384372708,2018_Nov_14_1402,59.9851283793,chinese_cond2,001,1022,
images\baseball01a.jpg,baseball,z,sounds\greatgatsby_chinese.wav,,,,,,,,,0,1,1,0,0,44,44,74,684.626036469,9.30100213736e-06,685.877587263,1.25156041572,,,,,z,1,1.23398394894,2018_Nov_14_1402,59.9851283793,chinese_cond2,001,1022,
images\radish01.jpg,raisin,x,sounds\greatgatsby_chinese.wav,,,,,,,,,0,1,1,0,0,45,45,214,686.988550055,8.98039434105e-06,688.294820039,1.30627960514,,,,,x,1,1.28392398905,2018_Nov_14_1402,59.9851283793,chinese_cond2,001,1022,
images\diploma01.jpg,glasses,x,sounds\greatgatsby_chinese.wav,,,,,,,,,0,1,1,0,0,46,46,179,689.425590274,9.30111855268e-06,690.412060095,0.986479764222,,,,,x,1,0.967165279086,2018_Nov_14_1402,59.9851283793,chinese_cond2,001,1022,
images\candle08a.jpg,screw driver,x,sounds\greatgatsby_chinese.wav,,,,,,,,,0,1,1,0,0,47,47,221,691.525516218,8.98039434105e-06,692.762686908,1.23718031158,,,,,x,1,1.21724297525,2018_Nov_14_1402,59.9851283793,chinese_cond2,001,1022,
images\mirror02.jpg,8 ball,x,sounds\greatgatsby_chinese.wav,,,,,,,,,0,1,1,0,0,48,48,121,693.865004832,9.30111855268e-06,695.896867751,2.03187318216,,,,,x,1,2.01742925332,2018_Nov_14_1402,59.9851283793,chinese_cond2,001,1022,
images\leaf01a.jpg,leaf,z,sounds\greatgatsby_chinese.wav,,,,,,,,,0,1,1,0,0,49,49,68,696.999891915,9.30111855268e-06,697.914077947,0.91419597494,,,,,z,1,0.900488113984,2018_Nov_14_1402,59.9851283793,chinese_cond2,001,1022,
images\beermug01b.jpg,beer mug,z,sounds\greatgatsby_chinese.wav,,,,,,,,,0,1,1,0,0,50,50,111,699.031031595,8.98039434105e-06,700.448106253,1.41708427959,,,,,x,0,1.40062426252,2018_Nov_14_1402,59.9851283793,chinese_cond2,001,1022,
images\banana04a.jpg,banana,z,sounds\greatgatsby_chinese.wav,,,,,,,,,0,1,1,0,0,51,51,118,701.553977509,9.62184276432e-06,702.265257051,0.711289485102,,,,,z,1,0.700444431044,2018_Nov_14_1402,59.9851283793,chinese_cond2,001,1022,
images\wallet01.jpg,lamp,x,sounds\greatgatsby_chinese.wav,,,,,,,,,0,1,1,0,0,52,52,193,703.370316227,9.30100213736e-06,704.849267412,1.47896112758,,,,,x,1,1.46729565458,2018_Nov_14_1402,59.9851283793,chinese_cond2,001,1022,
images\cat.jpg,black olive,x,sounds\greatgatsby_chinese.wav,,,,,,,,,0,1,1,0,0,53,53,133,705.97983142,8.65967012942e-06,707.033197784,1.05337598571,,,,,x,1,1.0338543111,2018_Nov_14_1402,59.9851283793,chinese_cond2,001,1022,
images\cockroach02.jpg,belt,x,sounds\greatgatsby_chinese.wav,,,,,,,,,0,1,1,0,0,54,54,129,708.132041916,9.62184276432e-06,709.133784104,1.00175245095,,,,,x,1,0.983866162016,2018_Nov_14_1402,59.9851283793,chinese_cond2,001,1022,
images\handbag02a.jpg,candle,x,sounds\greatgatsby_chinese.wav,,,,,,,,,0,1,1,0,0,55,55,144,710.249993345,8.98039434105e-06,711.284333236,1.03434919252,,,,,x,1,1.01718069008,2018_Nov_14_1402,59.9851283793,chinese_cond2,001,1022,
images\safe.jpg,safe,z,sounds\greatgatsby_chinese.wav,,,,,,,,,0,1,1,0,0,56,56,78,712.395439073,8.98027792573e-06,713.101490129,0.7060613184,,,,,z,1,0.683752528508,2018_Nov_14_1402,59.9851283793,chinese_cond2,001,1022,
images\thumbtack02a.jpg,thumb tack,z,sounds\greatgatsby_chinese.wav,,,,,,,,,0,1,1,0,0,57,57,60,714.212026675,9.30111855268e-06,715.802223214,1.59020712215,,,,,x,0,1.5673322496,2018_Nov_14_1402,59.9851283793,chinese_cond2,001,1022,
images\pingpongpaddle01c (1).jpg,ping pong paddle,z,sounds\greatgatsby_chinese.wav,,,,,,,,,0,1,1,0,0,58,58,10,716.913566068,9.62184276432e-06,717.586037033,0.672480587265,,,,,z,1,0.650431906688,2018_Nov_14_1402,59.9851283793,chinese_cond2,001,1022,
images\raisin.jpg,ruler,x,sounds\greatgatsby_chinese.wav,,,,,,,,,0,1,1,0,0,59,59,218,718.691227707,9.30111855268e-06,719.619913795,0.928696672432,,,,,x,1,0.917168149725,2018_Nov_14_1402,59.9851283793,chinese_cond2,001,1022,
images\croissant02b.jpg,croissant,z,sounds\greatgatsby_chinese.wav,,,,,,,,,0,1,1,0,0,60,60,39,720.730773635,8.98039434105e-06,722.153926064,1.42316237208,,,,,z,1,1.4006226589,2018_Nov_14_1402,59.9851283793,chinese_cond2,001,1022,
images\watermelon01.jpg,orange,x,sounds\greatgatsby_chinese.wav,,,,,,,,,0,1,1,0,0,61,61,207,723.282885476,9.30111855268e-06,724.621251867,1.33837601298,,,,,x,1,1.3172657789,2018_Nov_14_1402,59.9851283793,chinese_cond2,001,1022,
images\axe01.jpg,axe,z,sounds\greatgatsby_chinese.wav,,,,,,,,,0,1,1,0,0,62,62,104,725.723707062,9.30100213736e-06,726.571773994,0.848076874274,,,,,z,1,0.833791384473,2018_Nov_14_1402,59.9851283793,chinese_cond2,001,1022,
images\lollipop03b.jpg,lollipop,z,sounds\greatgatsby_chinese.wav,,,,,,,,,0,1,1,0,0,63,63,42,727.664555109,9.94256697595e-06,728.488960425,0.824415259063,,,,,z,1,0.800462423824,2018_Nov_14_1402,59.9851283793,chinese_cond2,001,1022,
images\blackolive.jpg,tank,x,sounds\greatgatsby_chinese.wav,,,,,,,,,0,1,1,0,0,64,64,229,729.603435176,9.621726349e-06,730.822920672,1.21949575981,,,,,x,1,1.20056807122,2018_Nov_14_1402,59.9851283793,chinese_cond2,001,1022,
images\electrictoothbrush01a.jpg,banjo,x,sounds\greatgatsby_chinese.wav,,,,,,,,,0,1,1,0,0,65,65,127,731.917633845,9.30100213736e-06,733.890417936,1.97279403347,,,,,x,1,1.9507767841,2018_Nov_14_1402,59.9851283793,chinese_cond2,001,1022,
images\8ball.jpg,nail clipper,x,sounds\greatgatsby_chinese.wav,,,,,,,,,0,1,1,0,0,66,66,206,735.006897549,8.98039434105e-06,736.674487374,1.66759912623,,,,,x,1,1.65068303572,2018_Nov_14_1402,59.9851283793,chinese_cond2,001,1022,
images\nailpolish02b.jpg,nail polish,z,sounds\greatgatsby_chinese.wav,,,,,,,,,0,1,1,0,0,67,67,94,737.783166593,9.30111855268e-06,738.908422894,1.12526624324,,,,,z,1,1.11721471918,2018_Nov_14_1402,59.9851283793,chinese_cond2,001,1022,
images\binder03b.jpg,dj mixer,x,sounds\greatgatsby_chinese.wav,,,,,,,,,0,1,1,0,0,68,68,167,740.021089387,9.30111855268e-06,741.675828012,1.65474856796,,,,,x,1,1.6340030001,2018_Nov_14_1402,59.9851283793,chinese_cond2,001,1022,
images\fireextinguisher02.jpg,fire extinguisher,z,sounds\greatgatsby_chinese.wav,,,,,,,,,0,1,1,0,0,69,69,175,742.786267379,9.30111855268e-06,743.993132278,1.2068745211,,,,,z,1,1.18390150613,2018_Nov_14_1402,59.9851283793,chinese_cond2,001,1022,
images\comb02a.jpg,diploma,x,sounds\greatgatsby_chinese.wav,,,,,,,,,0,1,1,0,0,70,70,166,745.097552566,8.98027792573e-06,746.410431445,1.31288817956,,,,,x,1,1.30058381893,2018_Nov_14_1402,59.9851283793,chinese_cond2,001,1022,
images\chameleon.jpg,50 dollar bill,x,sounds\greatgatsby_chinese.wav,,,,,,,,,0,1,1,0,0,71,71,120,747.520572856,8.98039434105e-06,748.377660549,0.857097313972,,,,,x,1,0.833829871845,2018_Nov_14_1402,59.9851283793,chinese_cond2,001,1022,
images\candycane01a.jpg,lip,x,sounds\greatgatsby_chinese.wav,,,,,,,,,0,1,1,0,0,72,72,200,749.47175536,9.30100213736e-06,751.628511517,2.15676577867,,,,,z,0,2.13414107298,2018_Nov_14_1402,59.9851283793,chinese_cond2,001,1022,
images\masquerademask02b.jpg,mirror,x,sounds\greatgatsby_chinese.wav,,,,,,,,,0,1,1,0,0,73,73,204,752.733819576,9.30100213736e-06,753.795775002,1.06196536857,,,,,x,1,1.0505417235,2018_Nov_14_1402,59.9851283793,chinese_cond2,001,1022,
images\eraser.jpg,eraser,z,sounds\greatgatsby_chinese.wav,,,,,,,,,0,1,1,0,0,74,74,110,754.902178023,8.6595537141e-06,755.912998061,1.01082965906,,,,,z,1,1.00052310526,2018_Nov_14_1402,59.9851283793,chinese_cond2,001,1022,
images\egg01b (1).jpg,egg,z,sounds\greatgatsby_chinese.wav,,,,,,,,,0,1,1,0,0,75,75,19,757.025192765,9.30111855268e-06,757.780001661,0.754819480586,,,,,z,1,0.733617839287,2018_Nov_14_1402,59.9851283793,chinese_cond2,001,1022,
images\parkingmeter.jpg,ear,x,sounds\greatgatsby_chinese.wav,,,,,,,,,0,1,1,0,0,76,76,171,758.882179107,9.30100213736e-06,759.897418118,1.01524927362,,,,,x,1,1.00053080276,2018_Nov_14_1402,59.9851283793,chinese_cond2,001,1022,
images\backpack01b.jpg,swallow,x,sounds\greatgatsby_chinese.wav,,,,,,,,,0,1,1,0,0,77,77,228,761.028353527,9.30100213736e-06,763.198284176,2.16994027107,,,,,x,1,2.15082142921,2018_Nov_14_1402,59.9851283793,chinese_cond2,001,1022,
images\feather03b.jpg,feather,z,sounds\greatgatsby_chinese.wav,,,,,,,,,0,1,1,0,0,78,78,114,764.298628027,9.94256697595e-06,765.198827487,0.900209723157,,,,,z,1,0.883814813569,2018_Nov_14_1402,59.9851283793,chinese_cond2,001,1022,
images\cigar.jpg,crocodile,x,sounds\greatgatsby_chinese.wav,,,,,,,,,0,1,1,0,0,79,79,162,766.297308237,8.98027792573e-06,767.616141728,1.31884311291,,,,,x,1,1.30052352219,2018_Nov_14_1402,59.9851283793,chinese_cond2,001,1022,
images\magnifyingglass01b.jpg,magnifying glass,z,sounds\greatgatsby_chinese.wav,,,,,,,,,0,1,1,0,0,80,80,64,768.722927376,9.30111855268e-06,770.200166201,1.47724812606,,,,,z,1,1.46729886183,2018_Nov_14_1402,59.9851283793,chinese_cond2,001,1022,
images\floorlamp.jpg,floor lamp,z,sounds\greatgatsby_chinese.wav,,,,,,,,,0,1,1,0,0,81,81,26,771.293865235,8.98039434105e-06,772.134015989,0.840160376276,,,,,z,1,0.817120970809,2018_Nov_14_1402,59.9851283793,chinese_cond2,001,1022,
images\hat05.jpg,hat,z,sounds\greatgatsby_chinese.wav,,,,,,,,,0,1,1,0,0,82,82,15,773.237512905,9.94256697595e-06,773.934518183,0.697015541489,,,,,z,1,0.683765678317,2018_Nov_14_1402,59.9851283793,chinese_cond2,001,1022,
images\mushroom01.jpg,shower head,x,sounds\greatgatsby_chinese.wav,,,,,,,,,0,1,1,0,0,83,83,222,775.051097222,8.98039434105e-06,776.335433987,1.28434702766,,,,,x,1,1.26752875873,2018_Nov_14_1402,59.9851283793,chinese_cond2,001,1022,
images\panda.jpg,panda,z,sounds\greatgatsby_chinese.wav,,,,,,,,,0,1,1,0,0,84,84,83,777.44417735,9.62184276432e-06,778.102290021,0.658122613211,,,,,z,1,0.633744815015,2018_Nov_14_1402,59.9851283793,chinese_cond2,001,1022,
images\blueberry02.jpg,blueberry,z,sounds\greatgatsby_chinese.wav,,,,,,,,,0,1,1,0,0,85,85,46,779.21469865,9.62184276432e-06,780.152845215,0.938156186836,,,,,z,1,0.917155320523,2018_Nov_14_1402,59.9851283793,chinese_cond2,001,1022,
images\rubberglove02a.jpg,lady bug,x,sounds\greatgatsby_chinese.wav,,,,,,,,,0,1,1,0,0,86,86,192,781.258053529,9.62184276432e-06,782.736873216,1.47882995033,,,,,x,1,1.46730720066,2018_Nov_14_1402,59.9851283793,chinese_cond2,001,1022,
images\lantern03.jpg,lantern,z,sounds\greatgatsby_chinese.wav,,,,,,,,,0,1,1,0,0,87,87,5,783.843787154,8.98027792573e-06,784.920794607,1.07701675373,,,,,z,1,1.06719738385,2018_Nov_14_1402,59.9851283793,chinese_cond2,001,1022,
images\ruler02b.jpg,watermelon,x,sounds\greatgatsby_chinese.wav,,,,,,,,,0,1,1,0,0,88,88,238,786.023442559,9.62184276432e-06,787.154576498,1.13114420231,,,,,x,1,1.11705852521,2018_Nov_14_1402,59.9851283793,chinese_cond2,001,1022,
images\seagull.jpg,seagull,z,sounds\greatgatsby_chinese.wav,,,,,,,,,0,1,1,0,0,89,89,50,788.262247993,9.30111855268e-06,789.255302655,0.993064604932,,,,,z,1,0.983859747415,2018_Nov_14_1402,59.9851283793,chinese_cond2,001,1022,
images\licenseplate.jpg,license plate,z,sounds\greatgatsby_chinese.wav,,,,,,,,,0,1,1,0,0,90,90,40,790.372527317,8.98039434105e-06,792.672907154,2.30039009999,,,,,z,1,2.28421200172,2018_Nov_14_1402,59.9851283793,chinese_cond2,001,1022,
images\giraffe.jpg,lettuce,x,sounds\greatgatsby_chinese.wav,,,,,,,,,0,1,1,0,0,91,91,195,793.7745198,8.98039434105e-06,795.090013564,1.31550402695,,,,,x,1,1.30041062634,2018_Nov_14_1402,59.9851283793,chinese_cond2,001,1022,
images\marker01a.jpg,marker,z,sounds\greatgatsby_chinese.wav,,,,,,,,,0,1,1,0,0,92,92,95,796.188358325,8.98039434105e-06,797.024236358,0.835894389893,,,,,z,1,0.817277806113,2018_Nov_14_1402,59.9851283793,chinese_cond2,001,1022,
images\hanger02a.jpg,hanger,z,sounds\greatgatsby_chinese.wav,,,,,,,,,0,1,1,0,0,93,93,88,798.11955827,9.30111855268e-06,798.99123518,0.871686532046,,,,,z,1,0.850469495868,2018_Nov_14_1402,59.9851283793,chinese_cond2,001,1022,
images\aloe02.jpg,broad sword,x,sounds\greatgatsby_chinese.wav,,,,,,,,,0,1,1,0,0,94,94,137,800.111691163,9.62184276432e-06,801.325211784,1.21353024256,,,,,z,0,1.20055331767,2018_Nov_14_1402,59.9851283793,chinese_cond2,001,1022,
images\bull.jpg,button,x,sounds\greatgatsby_chinese.wav,,,,,,,,,0,1,1,0,0,95,95,141,802.431002217,9.62184276432e-06,803.692504841,1.26151192514,,,,,x,1,1.25058284064,2018_Nov_14_1402,59.9851283793,chinese_cond2,001,1022,
images\plant01.jpg,plant,z,sounds\greatgatsby_chinese.wav,,,,,,,,,0,1,1,0,0,96,96,47,804.804863757,9.30100213736e-06,805.476325075,0.671471580863,,,,,z,1,0.650424209191,2018_Nov_14_1402,59.9851283793,chinese_cond2,001,1022,
images\toucan.jpg,toucan,z,sounds\greatgatsby_chinese.wav,,,,,,,,,0,1,1,0,0,97,97,81,806.577115698,8.98027792573e-06,807.693673569,1.11656781333,,,,,x,0,1.10064148565,2018_Nov_14_1402,59.9851283793,chinese_cond2,001,1022,
images\cloud.jpg,ceiling fan,x,sounds\greatgatsby_chinese.wav,,,,,,,,,0,1,1,0,0,98,98,149,808.798717991,9.621726349e-06,810.060897028,1.26218833774,,,,,x,1,1.25059470756,2018_Nov_14_1402,59.9851283793,chinese_cond2,001,1022,
images\puzzle.jpg,puzzle,z,sounds\greatgatsby_chinese.wav,,,,,,,,,0,1,1,0,0,99,99,57,811.181443136,9.30111855268e-06,812.344820055,1.16338654084,,,,,z,1,1.1505417556,2018_Nov_14_1402,59.9851283793,chinese_cond2,001,1022,
images\printer03a.jpg,printer,z,sounds\greatgatsby_chinese.wav,,,,,,,,,0,1,1,0,0,100,100,72,813.454472358,8.98039434105e-06,814.195326755,0.740863377112,,,,,z,1,0.717105223099,2018_Nov_14_1402,59.9851283793,chinese_cond2,001,1022,
images\basketball01.jpg,basket ball,z,sounds\greatgatsby_chinese.wav,,,,,,,,,0,1,1,0,0,101,101,33,815.334150117,9.30111855268e-06,816.179210878,0.845070381882,,,,,z,1,0.833808703814,2018_Nov_14_1402,59.9851283793,chinese_cond2,001,1022,
images\treadmill.jpg,lily,x,sounds\greatgatsby_chinese.wav,,,,,,,,,0,1,1,0,0,102,102,199,817.285174182,9.62184276432e-06,818.329786951,1.04462367378,,,,,x,1,1.03386457439,2018_Nov_14_1402,59.9851283793,chinese_cond2,001,1022,
images\ceilingfan02.jpg,paper clip,x,sounds\greatgatsby_chinese.wav,,,,,,,,,0,1,1,0,0,103,103,208,819.427710598,9.30100213736e-06,820.647065559,1.21936522401,,,,,x,1,1.20056710904,2018_Nov_14_1402,59.9851283793,chinese_cond2,001,1022,
images\bus.jpg,microphone,x,sounds\greatgatsby_chinese.wav,,,,,,,,,0,1,1,0,0,104,104,203,821.765543941,9.30111855268e-06,822.614256175,0.84872217651,,,,,x,1,0.833799723419,2018_Nov_14_1402,59.9851283793,chinese_cond2,001,1022,
images\tissuebox03.jpg,tissue box,z,sounds\greatgatsby_chinese.wav,,,,,,,,,0,1,1,0,0,105,105,58,823.73915679,9.62184276432e-06,824.614795959,0.87564911088,,,,,z,1,0.867146003526,2018_Nov_14_1402,59.9851283793,chinese_cond2,001,1022,
images\notebook02b.jpg,notebook,z,sounds\greatgatsby_chinese.wav,,,,,,,,,0,1,1,0,0,106,106,7,825.721530611,9.30111855268e-06,826.648673683,0.927152693854,,,,,z,1,0.917153075454,2018_Nov_14_1402,59.9851283793,chinese_cond2,001,1022,
images\lock02a.jpg,lock,z,sounds\greatgatsby_chinese.wav,,,,,,,,,0,1,1,0,0,107,107,65,827.759539295,9.30111855268e-06,829.299385584,1.53985591035,,,,,z,1,1.5173194044,2018_Nov_14_1402,59.9851283793,chinese_cond2,001,1022,
images\umbrella01.jpg,umbrella,z,sounds\greatgatsby_chinese.wav,,,,,,,,,0,1,1,0,0,108,108,53,830.41204021,9.62184276432e-06,831.249912201,0.837881612708,,,,,z,1,0.817100123502,2018_Nov_14_1402,59.9851283793,chinese_cond2,001,1022,
images\bullet (2).jpg,rubber glove,x,sounds\greatgatsby_chinese.wav,,,,,,,,,0,1,1,0,0,109,109,217,832.354781827,9.30111855268e-06,833.783939544,1.42916733888,,,,,x,1,1.41730269452,2018_Nov_14_1402,59.9851283793,chinese_cond2,001,1022,
images\cocktailshrimp01.jpg,cocktail shrimp,z,sounds\greatgatsby_chinese.wav,,,,,,,,,0,1,1,0,0,110,110,30,834.898567282,8.98039434105e-06,836.934774123,2.03621678439,,,,,z,1,2.01744721399,2018_Nov_14_1402,59.9851283793,chinese_cond2,001,1022,
images\antelope.jpg,antelope,z,sounds\greatgatsby_chinese.wav,,,,,,,,,0,1,1,0,0,111,111,12,838.038987222,9.30111855268e-06,839.002066442,0.963089162949,,,,,z,1,0.950570236077,2018_Nov_14_1402,59.9851283793,chinese_cond2,001,1022,
images\flipflop01b.jpg,flip flop,z,sounds\greatgatsby_chinese.wav,,,,,,,,,0,1,1,0,0,112,112,27,840.119428375,9.621726349e-06,842.269573392,2.15015592123,,,,,z,1,2.13418469182,2018_Nov_14_1402,59.9851283793,chinese_cond2,001,1022,
images\barrel01.jpg,barrel,z,sounds\greatgatsby_chinese.wav,,,,,,,,,0,1,1,0,0,113,113,9,843.400084479,9.30111855268e-06,844.420121883,1.02004734566,,,,,z,1,1.00051572861,2018_Nov_14_1402,59.9851283793,chinese_cond2,001,1022,
images\pipe.jpg,icecube,x,sounds\greatgatsby_chinese.wav,,,,,,,,,0,1,1,0,0,114,114,188,845.528901809,9.30111855268e-06,846.437377943,0.908488321933,,,,,x,1,0.883869337151,2018_Nov_14_1402,59.9851283793,chinese_cond2,001,1022,
images\pouch01b.jpg,pouch,z,sounds\greatgatsby_chinese.wav,,,,,,,,,0,1,1,0,0,115,115,25,847.549469374,9.621726349e-06,848.904660127,1.35520165844,,,,,z,1,1.3339390792,2018_Nov_14_1402,59.9851283793,chinese_cond2,001,1022,
images\nametag01a.jpg,name tag,z,sounds\greatgatsby_chinese.wav,,,,,,,,,0,1,1,0,0,116,116,108,850.025461213,9.30100213736e-06,851.188583475,1.16313188372,,,,,z,1,1.15053598245,2018_Nov_14_1402,59.9851283793,chinese_cond2,001,1022,
images\cola.jpg,comb,x,sounds\greatgatsby_chinese.wav,,,,,,,,,0,1,1,0,0,117,117,157,852.30913728,9.94245056063e-06,853.689280254,1.38015387824,,,,,x,1,1.36726387055,2018_Nov_14_1402,59.9851283793,chinese_cond2,001,1022,
images\sportshorts02.jpg,tape,x,sounds\greatgatsby_chinese.wav,,,,,,,,,0,1,1,0,0,118,118,230,854.796774387,9.621726349e-06,855.573119443,0.776355319074,,,,,z,0,0.767128331354,2018_Nov_14_1402,59.9851283793,chinese_cond2,001,1022,
images\desktopcomputer.jpg,desktop computer,z,sounds\greatgatsby_chinese.wav,,,,,,,,,0,1,1,0,0,119,119,16,856.708803532,9.62184276432e-06,857.640352107,0.931558837765,,,,,z,1,0.917166225263,2018_Nov_14_1402,59.9851283793,chinese_cond2,001,1022,
images\50dollarbill.jpg,cherry,x,sounds\greatgatsby_chinese.wav,,,,,,,,,0,1,1,0,0,120,120,151,858.761490597,3.84871382266e-05,859.791194383,1.02972335066,,,,,x,1,1.0174603638,2018_Nov_14_1402,59.9851283793,chinese_cond2,001,1022,
images\drink.jpg,drink,z,sounds\greatgatsby_chinese.wav,,,,,,,,,0,1,1,0,0,121,121,117,860.891118724,9.62184276432e-06,861.758103722,0.866995582706,,,,,z,1,0.850466930075,2018_Nov_14_1402,59.9851283793,chinese_cond2,001,1022,
images\dragonfly02.jpg,dragon fly,z,sounds\greatgatsby_chinese.wav,,,,,,,,,0,1,1,0,0,122,122,29,862.855701832,9.30111855268e-06,864.42549598,1.5698037697,,,,,z,1,1.55066792946,2018_Nov_14_1402,59.9851283793,chinese_cond2,001,1022,
images\lightbulb03b.jpg,treadmill,x,sounds\greatgatsby_chinese.wav,,,,,,,,,0,1,1,0,0,123,123,234,865.5278123,9.62184276432e-06,867.059556711,1.53175467358,,,,,z,0,1.51733736508,2018_Nov_14_1402,59.9851283793,chinese_cond2,001,1022,
images\ladybug03.jpg,giraffe,x,sounds\greatgatsby_chinese.wav,,,,,,,,,0,1,1,0,0,124,124,178,868.16330668,8.98039434105e-06,869.47685716,1.31356010213,,,,,x,1,1.30059151631,2018_Nov_14_1402,59.9851283793,chinese_cond2,001,1022,
images\lychee02a.jpg,lychee,z,sounds\greatgatsby_chinese.wav,,,,,,,,,0,1,1,0,0,125,125,62,870.60109804,9.30111855268e-06,871.627429706,1.0263412873,,,,,z,1,1.01707805751,2018_Nov_14_1402,59.9851283793,chinese_cond2,001,1022,
images\parkfountain.jpg,park fountain,z,sounds\greatgatsby_chinese.wav,,,,,,,,,0,1,1,0,0,126,126,93,872.747468103,8.98039434105e-06,874.294811379,1.54735289793,,,,,z,1,1.53396736737,2018_Nov_14_1402,59.9851283793,chinese_cond2,001,1022,
images\doorhandle.jpg,doll,x,sounds\greatgatsby_chinese.wav,,,,,,,,,0,1,1,0,0,127,127,168,875.397739005,8.98039434105e-06,876.712131393,1.3144016891,,,,,x,1,1.30060691119,2018_Nov_14_1402,59.9851283793,chinese_cond2,001,1022,
images\ant.jpg,ant,z,sounds\greatgatsby_chinese.wav,,,,,,,,,0,1,1,0,0,128,128,98,877.806593115,9.30111855268e-06,878.429256822,0.622673007194,,,,,z,1,0.600409439765,2018_Nov_14_1402,59.9851283793,chinese_cond2,001,1022,
images\dryingmachine01.jpg,drying machine,z,sounds\greatgatsby_chinese.wav,,,,,,,,,0,1,1,0,0,129,129,18,879.550115638,9.30111855268e-06,880.363104045,0.812998990761,,,,,z,1,0.800452802097,2018_Nov_14_1402,59.9851283793,chinese_cond2,001,1022,
images\skateboard.jpg,key,x,sounds\greatgatsby_chinese.wav,,,,,,,,,0,1,1,0,0,130,130,189,881.454220908,8.98027792573e-06,882.19693969,0.742728723795,,,,,x,1,0.733786862227,2018_Nov_14_1402,59.9851283793,chinese_cond2,001,1022,
images\tent.jpg,tent,z,sounds\greatgatsby_chinese.wav,,,,,,,,,0,1,1,0,0,131,131,11,883.323220392,9.30111855268e-06,883.964072832,0.640862382832,,,,,z,1,0.617071193876,2018_Nov_14_1402,59.9851283793,chinese_cond2,001,1022,
images\orange.jpg,bat,x,sounds\greatgatsby_chinese.wav,,,,,,,,,0,1,1,0,0,132,132,128,885.088787425,9.30100213736e-06,885.747889859,0.659112375928,,,,,x,1,0.650424850755,2018_Nov_14_1402,59.9851283793,chinese_cond2,001,1022,
images\fryingpan01.jpg,frying pan,z,sounds\greatgatsby_chinese.wav,,,,,,,,,0,1,1,0,0,133,133,45,886.848905312,9.30100213736e-06,887.798444411,0.949549042154,,,,,z,1,0.933828621055,2018_Nov_14_1402,59.9851283793,chinese_cond2,001,1022,
images\weight01.jpg,weight,z,sounds\greatgatsby_chinese.wav,,,,,,,,,0,1,1,0,0,134,134,67,888.903352204,8.98039434105e-06,889.865669057,0.962326474837,,,,,z,1,0.950471773045,2018_Nov_14_1402,59.9851283793,chinese_cond2,001,1022,
images\broadsword.jpg,teapot,x,sounds\greatgatsby_chinese.wav,,,,,,,,,0,1,1,0,0,135,135,231,890.958589367,9.62184276432e-06,892.232967566,1.27438782086,,,,,x,1,1.25057546399,2018_Nov_14_1402,59.9851283793,chinese_cond2,001,1022,
images\banjo.jpg,knife,x,sounds\greatgatsby_chinese.wav,,,,,,,,,0,1,1,0,0,136,136,191,893.3303293,9.30100213736e-06,894.200181916,0.869862558902,,,,,x,1,0.850484890747,2018_Nov_14_1402,59.9851283793,chinese_cond2,001,1022,
images\hairdryer03a.jpg,hairdryer,z,sounds\greatgatsby_chinese.wav,,,,,,,,,0,1,1,0,0,137,137,119,895.299416694,9.30111855268e-06,896.033991262,0.73458418902,,,,,z,1,0.717111637583,2018_Nov_14_1402,59.9851283793,chinese_cond2,001,1022,
images\stapler03a.jpg,candy cane,x,sounds\greatgatsby_chinese.wav,,,,,,,,,0,1,1,0,0,138,138,145,897.144900493,9.94256697595e-06,898.484666536,1.33977630595,,,,,x,1,1.31727860798,2018_Nov_14_1402,59.9851283793,chinese_cond2,001,1022,
images\puma.jpg,puma,z,sounds\greatgatsby_chinese.wav,,,,,,,,,0,1,1,0,0,139,139,4,899.583567437,1.02631747723e-05,900.21844121,0.634884036379,,,,,z,1,0.617071835441,2018_Nov_14_1402,59.9851283793,chinese_cond2,001,1022,
images\charcoalbarbecue.jpg,charcoal barbecue,z,sounds\greatgatsby_chinese.wav,,,,,,,,,0,1,1,0,0,140,140,77,901.335431742,9.94256697595e-06,902.585749983,1.25032850436,,,,,z,1,1.23390857805,2018_Nov_14_1402,59.9851283793,chinese_cond2,001,1022,
images\flower01.jpg,bus,x,sounds\greatgatsby_chinese.wav,,,,,,,,,0,1,1,0,0,141,141,140,903.700599984,8.98039434105e-06,904.486293262,0.785702899913,,,,,x,1,0.767126727733,2018_Nov_14_1402,59.9851283793,chinese_cond2,001,1022,
images\pineapple01a.jpg,pineapple,z,sounds\greatgatsby_chinese.wav,,,,,,,,,0,1,1,0,0,142,142,51,905.59968139,8.98039434105e-06,906.253408764,0.653736995766,,,,,z,1,0.633739362704,2018_Nov_14_1402,59.9851283793,chinese_cond2,001,1022,
images\bowlingball.jpg,bowling ball,z,sounds\greatgatsby_chinese.wav,,,,,,,,,0,1,1,0,0,143,143,20,907.385420211,9.94245056063e-06,908.504004754,1.11859416484,,,,,z,1,1.10053211777,2018_Nov_14_1402,59.9851283793,chinese_cond2,001,1022,
images\bowl02b (1).jpg,bowl,z,sounds\greatgatsby_chinese.wav,,,,,,,,,0,1,1,0,0,144,144,24,909.621554633,9.30111855268e-06,910.187801223,0.566256852704,,,,,z,1,0.550393066602,2018_Nov_14_1402,59.9851283793,chinese_cond2,001,1022,
images\bracelet02a.jpg,chess knight,x,sounds\greatgatsby_chinese.wav,,,,,,,,,0,1,1,0,0,145,145,152,911.296955437,9.30100213736e-06,912.67179327,1.3748480957,,,,,x,1,1.35060885153,2018_Nov_14_1402,59.9851283793,chinese_cond2,001,1022,
images\pictureframe04.jpg,picture frame,z,sounds\greatgatsby_chinese.wav,,,,,,,,,0,1,1,0,0,146,146,41,913.793864754,8.98027792573e-06,914.689083007,0.895227874746,,,,,z,1,0.883895636885,2018_Nov_14_1402,59.9851283793,chinese_cond2,001,1022,
images\bat.jpg,hand,x,sounds\greatgatsby_chinese.wav,,,,,,,,,0,1,1,0,0,147,147,185,915.787531363,8.98027792573e-06,916.722897869,0.935375806759,,,,,x,1,0.917167187552,2018_Nov_14_1402,59.9851283793,chinese_cond2,001,1022,
images\graduationcap.jpg,graduation cap,z,sounds\greatgatsby_chinese.wav,,,,,,,,,0,1,1,0,0,148,148,35,917.825127914,9.30100213736e-06,918.673430259,0.848311966984,,,,,z,1,0.833825702313,2018_Nov_14_1402,59.9851283793,chinese_cond2,001,1022,
images\snowman.jpg,globe,x,sounds\greatgatsby_chinese.wav,,,,,,,,,0,1,1,0,0,149,149,180,919.784991528,9.621726349e-06,920.707290664,0.922309719957,,,,,x,1,0.900490359054,2018_Nov_14_1402,59.9851283793,chinese_cond2,001,1022,
images\elbow.jpg,elbow,z,sounds\greatgatsby_chinese.wav,,,,,,,,,0,1,1,0,0,150,150,105,921.819055595,9.62184276432e-06,922.724506634,0.905461302958,,,,,x,0,0.883824114688,2018_Nov_14_1402,59.9851283793,chinese_cond2,001,1022,
images\screw03c.jpg,screw,z,sounds\greatgatsby_chinese.wav,,,,,,,,,0,1,1,0,0,151,151,84,923.820551464,8.98027792573e-06,924.775051244,0.954509722651,,,,,x,0,0.9338305454,2018_Nov_14_1402,59.9851283793,chinese_cond2,001,1022,
images\bottleofredwine02.jpg,pipe,x,sounds\greatgatsby_chinese.wav,,,,,,,,,0,1,1,0,0,152,152,213,925.873431606,9.30111855268e-06,926.725576579,0.852154914872,,,,,x,1,0.833802610054,2018_Nov_14_1402,59.9851283793,chinese_cond2,001,1022,
images\bench02.jpg,electric toothbrush,x,sounds\greatgatsby_chinese.wav,,,,,,,,,0,1,1,0,0,153,153,172,927.833966501,9.62184276432e-06,929.192905589,1.35894935054,,,,,x,1,1.3506175112,2018_Nov_14_1402,59.9851283793,chinese_cond2,001,1022,
images\cherry01.jpg,highlighter,x,sounds\greatgatsby_chinese.wav,,,,,,,,,0,1,1,0,0,154,154,187,930.301776922,8.98039434105e-06,931.243452444,0.941685143276,,,,,x,1,0.917161093559,2018_Nov_14_1402,59.9851283793,chinese_cond2,001,1022,
images\ostrich.jpg,ostrich,z,sounds\greatgatsby_chinese.wav,,,,,,,,,0,1,1,0,0,155,155,76,932.343752676,9.30111855268e-06,933.544076033,1.20033329923,,,,,z,1,1.18390022323,2018_Nov_14_1402,59.9851283793,chinese_cond2,001,1022,
images\lily.jpg,kiwi,x,sounds\greatgatsby_chinese.wav,,,,,,,,,0,1,1,0,0,156,156,190,934.64373417,8.6595537141e-06,935.728169013,1.08444446442,,,,,z,0,1.06736319966,2018_Nov_14_1402,59.9851283793,chinese_cond2,001,1022,
images\globe.jpg,cloud,x,sounds\greatgatsby_chinese.wav,,,,,,,,,0,1,1,0,0,157,157,154,936.855857064,8.98027792573e-06,937.845244857,0.989397736033,,,,,x,1,0.967163034016,2018_Nov_14_1402,59.9851283793,chinese_cond2,001,1022,
images\mailbox01.jpg,mail box,z,sounds\greatgatsby_chinese.wav,,,,,,,,,0,1,1,0,0,158,158,73,938.964470212,9.30100213736e-06,939.929118107,0.964657837409,,,,,z,1,0.950500317616,2018_Nov_14_1402,59.9851283793,chinese_cond2,001,1022,
images\lettuce.jpg,mushroom,x,sounds\greatgatsby_chinese.wav,,,,,,,,,0,1,1,0,0,159,159,205,941.052378205,8.98039434105e-06,942.013015733,0.960647470318,,,,,x,1,0.950500317616,2018_Nov_14_1402,59.9851283793,chinese_cond2,001,1022,
images\key03b.jpg,cigar,x,sounds\greatgatsby_chinese.wav,,,,,,,,,0,1,1,0,0,160,160,153,943.114823381,9.30100213736e-06,943.980213726,0.865400608513,,,,,x,1,0.85048360785,2018_Nov_14_1402,59.9851283793,chinese_cond2,001,1022,
images\cauliflower01.jpg,glue stick,x,sounds\greatgatsby_chinese.wav,,,,,,,,,0,1,1,0,0,161,161,181,945.096399554,9.62184276432e-06,945.980745812,0.884355879738,,,,,x,1,0.867149852216,2018_Nov_14_1402,59.9851283793,chinese_cond2,001,1022,
images\dice05a.jpg,band aid,x,sounds\greatgatsby_chinese.wav,,,,,,,,,0,1,1,0,0,162,162,126,947.093657019,8.98027792573e-06,948.431407294,1.3377602176,,,,,x,1,1.31726930686,2018_Nov_14_1402,59.9851283793,chinese_cond2,001,1022,
images\carrot02.jpg,corkscrew,x,sounds\greatgatsby_chinese.wav,,,,,,,,,0,1,1,0,0,163,163,161,949.533914768,9.30100213736e-06,950.698681075,1.16477624979,,,,,x,1,1.15055843338,2018_Nov_14_1402,59.9851283793,chinese_cond2,001,1022,
images\clothespin02a.jpg,clothes pin,z,sounds\greatgatsby_chinese.wav,,,,,,,,,0,1,1,0,0,164,164,79,951.803840639,9.62184276432e-06,952.899278654,1.09544891969,,,,,z,1,1.08387453295,2018_Nov_14_1402,59.9851283793,chinese_cond2,001,1022,
images\electricguitar02.jpg,electric guitar,z,sounds\greatgatsby_chinese.wav,,,,,,,,,0,1,1,0,0,165,165,100,954.001696324,8.98027792573e-06,954.699775074,0.698088372359,,,,,z,1,0.68378363899,2018_Nov_14_1402,59.9851283793,chinese_cond2,001,1022,
images\pepper05a.jpg,lighter,x,sounds\greatgatsby_chinese.wav,,,,,,,,,0,1,1,0,0,166,166,198,955.82122499,8.65967012942e-06,956.46695825,0.64574256097,,,,,x,1,0.633807035978,2018_Nov_14_1402,59.9851283793,chinese_cond2,001,1022,
images\ashtray02b.jpg,ashtray,z,sounds\greatgatsby_chinese.wav,,,,,,,,,0,1,1,0,0,167,167,43,957.580013785,9.30111855268e-06,958.867553968,1.28755044634,,,,,z,1,1.26725774468,2018_Nov_14_1402,59.9851283793,chinese_cond2,001,1022,
images\computerkeyboard01a.jpg,computer keyboard,z,sounds\greatgatsby_chinese.wav,,,,,,,,,0,1,1,0,0,168,168,61,959.984807174,8.98039434105e-06,960.984786006,0.999988453928,,,,,z,1,0.983850125689,2018_Nov_14_1402,59.9851283793,chinese_cond2,001,1022,
images\lamp04b.jpg,parking meter,x,sounds\greatgatsby_chinese.wav,,,,,,,,,0,1,1,0,0,169,169,209,962.105269252,9.62184276432e-06,963.602150665,1.49689135607,,,,,x,1,1.48397761455,2018_Nov_14_1402,59.9851283793,chinese_cond2,001,1022,
images\battery03b.jpg,battery,z,sounds\greatgatsby_chinese.wav,,,,,,,,,0,1,1,0,0,170,170,34,964.711177551,9.62184276432e-06,965.352626223,0.64145829319,,,,,z,1,0.617080174387,2018_Nov_14_1402,59.9851283793,chinese_cond2,001,1022,
images\honeycomb.jpg,honey comb,z,sounds\greatgatsby_chinese.wav,,,,,,,,,0,1,1,0,0,171,171,59,966.46567855,9.30111855268e-06,967.186496185,0.720827577636,,,,,z,1,0.700470089214,2018_Nov_14_1402,59.9851283793,chinese_cond2,001,1022,
images\flashlight05.jpg,flash light,z,sounds\greatgatsby_chinese.wav,,,,,,,,,0,1,1,0,0,172,172,8,968.288791017,9.30111855268e-06,969.020289174,0.731508098892,,,,,z,1,0.717123504495,2018_Nov_14_1402,59.9851283793,chinese_cond2,001,1022,
images\gluestick.jpg,squirrel,x,sounds\greatgatsby_chinese.wav,,,,,,,,,0,1,1,0,0,173,173,226,970.128379538,9.30111855268e-06,971.054161445,0.925791850314,,,,,x,1,0.917152754846,2018_Nov_14_1402,59.9851283793,chinese_cond2,001,1022,
images\diaper01a.jpg,camera,x,sounds\greatgatsby_chinese.wav,,,,,,,,,0,1,1,0,0,174,174,143,972.174249876,8.98027792573e-06,973.338096019,1.16385576397,,,,,x,1,1.15054977371,2018_Nov_14_1402,59.9851283793,chinese_cond2,001,1022,
images\saltshaker03c.jpg,salt shaker,z,sounds\greatgatsby_chinese.wav,,,,,,,,,0,1,1,0,0,175,175,63,974.450139981,9.62184276432e-06,975.572025444,1.1218963674,,,,,z,1,1.10054013587,2018_Nov_14_1402,59.9851283793,chinese_cond2,001,1022,
images\paintbrush03a.jpg,paint brush,z,sounds\greatgatsby_chinese.wav,,,,,,,,,0,1,1,0,0,176,176,0,976.672418366,9.62184276432e-06,977.589237565,0.91682946228,,,,,z,1,0.900485227467,2018_Nov_14_1402,59.9851283793,chinese_cond2,001,1022,
images\apple06.jpg,apple,z,sounds\greatgatsby_chinese.wav,,,,,,,,,0,1,1,0,0,177,177,13,978.716814645,9.30100213736e-06,979.373062931,0.65625790786,,,,,z,1,0.633744494291,2018_Nov_14_1402,59.9851283793,chinese_cond2,001,1022,
images\toothbrush03a.jpg,parrot,x,sounds\greatgatsby_chinese.wav,,,,,,,,,0,1,1,0,0,178,178,210,980.46613719,9.30111855268e-06,981.423609786,0.95748221816,,,,,x,1,0.93383888423,2018_Nov_14_1402,59.9851283793,chinese_cond2,001,1022,
images\envelope02a.jpg,grand piano,x,sounds\greatgatsby_chinese.wav,,,,,,,,,0,1,1,0,0,179,179,182,982.547169121,9.621726349e-06,984.224362147,1.67720296769,,,,,x,1,1.66735056299,2018_Nov_14_1402,59.9851283793,chinese_cond2,001,1022,
images\eyedrops.jpg,bicycle,x,sounds\greatgatsby_chinese.wav,,,,,,,,,0,1,1,0,0,180,180,131,985.324836213,9.30111855268e-06,986.208222215,0.883395623881,,,,,x,1,0.867139588925,2018_Nov_14_1402,59.9851283793,chinese_cond2,001,1022,
images\lipstick04.jpg,lipstick,z,sounds\greatgatsby_chinese.wav,,,,,,,,,0,1,1,0,0,181,181,56,987.308143669,8.98027792573e-06,988.175427264,0.867293537711,,,,,z,1,0.850474627456,2018_Nov_14_1402,59.9851283793,chinese_cond2,001,1022,
images\razor04a.jpg,razor,z,sounds\greatgatsby_chinese.wav,,,,,,,,,0,1,1,0,0,182,182,36,989.276195437,9.30111855268e-06,990.826134996,1.54994950164,,,,,x,0,1.53398629022,2018_Nov_14_1402,59.9851283793,chinese_cond2,001,1022,
images\flamingo.jpg,flamingo,z,sounds\greatgatsby_chinese.wav,,,,,,,,,0,1,1,0,0,183,183,52,991.924081735,8.98027792573e-06,992.726647485,0.802576013026,,,,,z,1,0.783786557615,2018_Nov_14_1402,59.9851283793,chinese_cond2,001,1022,
images\button07.jpg,radish,x,sounds\greatgatsby_chinese.wav,,,,,,,,,0,1,1,0,0,184,184,215,993.839023079,9.30111855268e-06,995.143983535,1.30497039855,,,,,x,1,1.2839454778,2018_Nov_14_1402,59.9851283793,chinese_cond2,001,1022,
images\camera01a.jpg,bull,x,sounds\greatgatsby_chinese.wav,,,,,,,,,0,1,1,0,0,185,185,138,996.255027793,9.62184276432e-06,997.061139818,0.806122288574,,,,,x,1,0.783791689202,2018_Nov_14_1402,59.9851283793,chinese_cond2,001,1022,
images\cupcake.jpg,scissors,x,sounds\greatgatsby_chinese.wav,,,,,,,,,0,1,1,0,0,186,186,219,998.180768647,8.98039434105e-06,999.161719724,0.980961019173,,,,,x,1,0.967193503049,2018_Nov_14_1402,59.9851283793,chinese_cond2,001,1022,
images\shotglass.jpg,shot glass,z,sounds\greatgatsby_chinese.wav,,,,,,,,,0,1,1,0,0,187,187,86,1000.27034698,9.30111855268e-06,1001.4623199,1.19198285777,,,,,z,1,1.1838960537,2018_Nov_14_1402,59.9851283793,chinese_cond2,001,1022,
images\tie01.jpg,bench,x,sounds\greatgatsby_chinese.wav,,,,,,,,,0,1,1,0,0,188,188,130,1002.56101201,9.30100213736e-06,1003.5462233,0.985221553128,,,,,x,1,0.967175542377,2018_Nov_14_1402,59.9851283793,chinese_cond2,001,1022,
images\tank.jpg,wallet,x,sounds\greatgatsby_chinese.wav,,,,,,,,,0,1,1,0,0,189,189,237,1004.65082993,8.98027792573e-06,1005.48007565,0.829255666933,,,,,x,1,0.817138931481,2018_Nov_14_1402,59.9851283793,chinese_cond2,001,1022,
images\apricot.jpg,apricot,z,sounds\greatgatsby_chinese.wav,,,,,,,,,0,1,1,0,0,190,190,32,1006.59737665,8.98039434105e-06,1007.71400219,1.11663548672,,,,,x,0,1.10054109804,2018_Nov_14_1402,59.9851283793,chinese_cond2,001,1022,
images\parrot01.jpg,chameleon,x,sounds\greatgatsby_chinese.wav,,,,,,,,,0,1,1,0,0,191,191,150,1008.82833101,8.6595537141e-06,1009.83125027,1.00292887655,,,,,z,0,0.983856540173,2018_Nov_14_1402,59.9851283793,chinese_cond2,001,1022,
images\belt02a.jpg,snowman,x,sounds\greatgatsby_chinese.wav,,,,,,,,,0,1,1,0,0,192,192,224,1010.93466155,8.98039434105e-06,1012.7320219,1.79736965592,,,,,x,1,1.78405949613,2018_Nov_14_1402,59.9851283793,chinese_cond2,001,1022,
images\cake.jpg,cake,z,sounds\greatgatsby_chinese.wav,,,,,,,,,0,1,1,0,0,193,193,23,1013.84624232,9.30111855268e-06,1014.76589995,0.919666931732,,,,,z,1,0.9004816995,2018_Nov_14_1402,59.9851283793,chinese_cond2,001,1022,
images\hairpin.jpg,hair pin,z,sounds\greatgatsby_chinese.wav,,,,,,,,,0,1,1,0,0,194,194,28,1015.8568882,8.98039434105e-06,1016.58306197,0.72618307278,,,,,z,1,0.717116127722,2018_Nov_14_1402,59.9851283793,chinese_cond2,001,1022,
images\boxingglove02a.jpg,bracelet,x,sounds\greatgatsby_chinese.wav,,,,,,,,,0,1,1,0,0,195,195,135,1017.69452221,5.00334426761e-05,1018.73363227,1.03913603921,,,,,x,1,1.01718999119,2018_Nov_14_1402,59.9851283793,chinese_cond2,001,1022,
images\mitten01.jpg,mitten,z,sounds\greatgatsby_chinese.wav,,,,,,,,,0,1,1,0,0,196,196,102,1019.85486666,9.30111855268e-06,1020.86754595,1.0126889121,,,,,x,0,1.00052374683,2018_Nov_14_1402,59.9851283793,chinese_cond2,001,1022,
images\daisy.jpg,daisy,z,sounds\greatgatsby_chinese.wav,,,,,,,,,0,1,1,0,0,197,197,6,1021.97055793,9.62184276432e-06,1022.70136844,0.730820460711,,,,,z,1,0.717082451447,2018_Nov_14_1402,59.9851283793,chinese_cond2,001,1022,
images\screwdriver02b.jpg,cola,x,sounds\greatgatsby_chinese.wav,,,,,,,,,0,1,1,0,0,198,198,158,1023.79512617,9.62184276432e-06,1024.6518925,0.856776266475,,,,,x,1,0.833803251502,2018_Nov_14_1402,59.9851283793,chinese_cond2,001,1022,
images\paperclip04.jpg,eye drops,x,sounds\greatgatsby_chinese.wav,,,,,,,,,0,1,1,0,0,199,199,174,1025.75709343,9.30100213736e-06,1026.80246248,1.04537866439,,,,,x,1,1.03384789662,2018_Nov_14_1402,59.9851283793,chinese_cond2,001,1022,
images\birthdaycandle.jpg,birthday candle,z,sounds\greatgatsby_chinese.wav,,,,,,,,,0,1,1,0,0,200,200,55,1027.89972607,9.30111855268e-06,1028.86969418,0.969978052774,,,,,z,1,0.950503204251,2018_Nov_14_1402,59.9851283793,chinese_cond2,001,1022,
images\lightswitch02a.jpg,fork,x,sounds\greatgatsby_chinese.wav,,,,,,,,,0,1,1,0,0,201,201,177,1029.98193442,8.98027792573e-06,1030.77020731,0.78828250512,,,,,x,1,0.767116464558,2018_Nov_14_1402,59.9851283793,chinese_cond2,001,1022,
images\squirrel.jpg,binder,x,sounds\greatgatsby_chinese.wav,,,,,,,,,0,1,1,0,0,202,202,132,1031.87397331,8.98027792573e-06,1033.17084921,1.29688551882,,,,,x,1,1.28392366832,2018_Nov_14_1402,59.9851283793,chinese_cond2,001,1022,
images\corkscrew02a.jpg,masquerade mask,x,sounds\greatgatsby_chinese.wav,,,,,,,,,0,1,1,0,0,203,203,201,1034.27486763,8.98039434105e-06,1035.42144648,1.14658847777,,,,,x,1,1.13387294533,2018_Nov_14_1402,59.9851283793,chinese_cond2,001,1022,
images\parkbench03.jpg,park bench,z,sounds\greatgatsby_chinese.wav,,,,,,,,,0,1,1,0,0,204,204,71,1036.52759741,8.98027792573e-06,1037.52201388,0.994426410645,,,,,z,1,0.983845635434,2018_Nov_14_1402,59.9851283793,chinese_cond2,001,1022,
images\scissors04a.jpg,leek,x,sounds\greatgatsby_chinese.wav,,,,,,,,,0,1,1,0,0,205,205,194,1038.61591145,9.30111855268e-06,1039.45586816,0.839966336498,,,,,x,1,0.817127385293,2018_Nov_14_1402,59.9851283793,chinese_cond2,001,1022,
images\crocodile.jpg,triangle ruler,x,sounds\greatgatsby_chinese.wav,,,,,,,,,0,1,1,0,0,206,206,235,1040.55315901,9.30100213736e-06,1041.60644776,1.05329869047,,,,,x,1,1.0338543111,2018_Nov_14_1402,59.9851283793,chinese_cond2,001,1022,
images\nailclipper03a.jpg,aquarium,x,sounds\greatgatsby_chinese.wav,,,,,,,,,0,1,1,0,0,207,207,123,1042.70584547,9.94245056063e-06,1043.90706397,1.20122908894,,,,,x,1,1.18387103709,2018_Nov_14_1402,59.9851283793,chinese_cond2,001,1022,
images\butterfly.jpg,butterfly,z,sounds\greatgatsby_chinese.wav,,,,,,,,,0,1,1,0,0,208,208,91,1045.0146941,9.30111855268e-06,1045.94095036,0.926266205148,,,,,z,1,0.91714056721,2018_Nov_14_1402,59.9851283793,chinese_cond2,001,1022,
images\bandaid01.jpg,door handle,x,sounds\greatgatsby_chinese.wav,,,,,,,,,0,1,1,0,0,209,209,170,1047.04962701,9.30100213736e-06,1048.3916128,1.34199541423,,,,,x,1,1.33394324873,2018_Nov_14_1402,59.9851283793,chinese_cond2,001,1022,
images\doll.jpg,carrot,x,sounds\greatgatsby_chinese.wav,,,,,,,,,0,1,1,0,0,210,210,146,1049.50288317,9.30100213736e-06,1050.59222738,1.0893541493,,,,,x,1,1.06723619183,2018_Nov_14_1402,59.9851283793,chinese_cond2,001,1022,
images\dresser02.jpg,dresser,z,sounds\greatgatsby_chinese.wav,,,,,,,,,0,1,1,0,0,211,211,87,1051.71451054,9.30100213736e-06,1052.60944784,0.894947559573,,,,,z,1,0.883854904445,2018_Nov_14_1402,59.9851283793,chinese_cond2,001,1022,
,,,sounds\greatgatsby_chinese.wav,,,,,,,,,0,1,1,0,,,,,,,,,,,,,,,,2018_Nov_14_1402,59.9851283793,chinese_cond2,001,1022,
