images,name,corrAns,sounds,trials_3.thisRepN,trials_3.thisTrialN,trials_3.thisN,trials_3.thisIndex,trials_4.thisRepN,trials_4.thisTrialN,trials_4.thisN,trials_4.thisIndex,trials_2.thisRepN,trials_2.thisTrialN,trials_2.thisN,trials_2.thisIndex,trials.thisRepN,trials.thisTrialN,trials.thisN,trials.thisIndex,begin_global,begin_routine,end_global,end_routine,key_resp_2.keys,key_resp_2.corr,begin_book,key_resp_1.keys,key_resp_1.corr,key_resp_1.rt,date,frameRate,expName,session,participant,
images/volleyball.jpg,volley ball,z,,0,0,0,0,,,,,,,,,,,,,,,,,,,,,,,2018_Nov_14_1402,59.9906296298,spanish_cond2,001,1024,
images/puma.jpg,puma,z,,,,,,0,0,0,0,,,,,,,,,48.1504574786,1.02635240182e-05,51.0101316579,2.85968572588,None,0,,,,,2018_Nov_14_1402,59.9906296298,spanish_cond2,001,1024,
images/treadmill.jpg,lily,x,sounds/greatgatsby_spanish.wav,,,,,,,,,0,0,0,0,0,0,0,199,93.1733482453,9.62207559496e-06,94.6063496941,1.43301171227,,,83.0081662016,x,1,1.41731564468,2018_Nov_14_1402,59.9906296298,spanish_cond2,001,1024,
images/pineapple01a.jpg,pineapple,z,sounds/greatgatsby_spanish.wav,,,,,,,,,0,0,0,0,0,1,1,51,95.7236962253,9.30123496801e-06,96.8069866071,1.08330064523,,,,z,1,1.06719949096,2018_Nov_14_1402,59.9906296298,spanish_cond2,001,1024,
images/hat05.jpg,hat,z,sounds/greatgatsby_spanish.wav,,,,,,,,,0,0,0,0,0,2,2,15,97.9094042659,9.62195917964e-06,98.6408837369,0.731489092926,,,,z,1,0.717135616811,2018_Nov_14_1402,59.9906296298,spanish_cond2,001,1024,
images/banana04a.jpg,banana,z,sounds/greatgatsby_spanish.wav,,,,,,,,,0,0,0,0,0,3,3,118,99.7468682756,9.62195917964e-06,100.758143029,1.01128533727,,,,z,1,1.0005221545,2018_Nov_14_1402,59.9906296298,spanish_cond2,001,1024,
images/camera01a.jpg,bull,x,sounds/greatgatsby_spanish.wav,,,,,,,,,0,0,0,0,0,4,4,138,101.86876666,9.62195917964e-06,102.758718425,0.889961707522,,,,x,1,0.867148558376,2018_Nov_14_1402,59.9906296298,spanish_cond2,001,1024,
images/doorhandle.jpg,doll,x,sounds/greatgatsby_spanish.wav,,,,,,,,,0,0,0,0,0,5,5,168,103.861383049,8.98051075637e-06,105.209444582,1.34807179694,,,,x,1,1.33397041738,2018_Nov_14_1402,59.9906296298,spanish_cond2,001,1024,
images/eraser.jpg,eraser,z,sounds/greatgatsby_spanish.wav,,,,,,,,,0,0,0,0,0,6,6,110,106.31485597,9.62207559496e-06,107.076660174,0.76181478845,,,,z,1,0.750465945923,2018_Nov_14_1402,59.9906296298,spanish_cond2,001,1024,
images/candle08a.jpg,screw driver,x,sounds/greatgatsby_spanish.wav,,,,,,,,,0,0,0,0,0,7,7,221,108.188302776,9.30135138333e-06,109.494011099,1.30571762414,,,,x,1,1.28393916192,2018_Nov_14_1402,59.9906296298,spanish_cond2,001,1024,
images/microphone01.jpg,diaper,x,sounds/greatgatsby_spanish.wav,,,,,,,,,0,0,0,0,0,8,8,164,110.592571614,9.30123496801e-06,111.544468289,0.951907259179,,,,x,1,0.93369728059,2018_Nov_14_1402,59.9906296298,spanish_cond2,001,1024,
images/8ball.jpg,nail clipper,x,sounds/greatgatsby_spanish.wav,,,,,,,,,0,0,0,0,0,9,9,206,112.659807669,9.30123496801e-06,113.778584031,1.11878598435,,,,x,1,1.10055323364,2018_Nov_14_1402,59.9906296298,spanish_cond2,001,1024,
images/bicycle.jpg,hand bag,x,sounds/greatgatsby_spanish.wav,,,,,,,,,0,0,0,0,0,10,10,186,114.887915426,9.62207559496e-06,115.89587251,1.00796670525,,,,x,1,0.983861961286,2018_Nov_14_1402,59.9906296298,spanish_cond2,001,1024,
images/showerhead01.jpg,skateboard,x,sounds/greatgatsby_spanish.wav,,,,,,,,,0,0,0,0,0,11,11,223,117.0032609,9.30135138333e-06,118.046511203,1.04326024558,,,,x,1,1.03387301054,2018_Nov_14_1402,59.9906296298,spanish_cond2,001,1024,
images/cupcake.jpg,scissors,x,sounds/greatgatsby_spanish.wav,,,,,,,,,0,0,0,0,0,12,12,219,119.165334713,9.30135138333e-06,120.047078901,0.881754131289,,,,x,1,0.867124824086,2018_Nov_14_1402,59.9906296298,spanish_cond2,001,1024,
images/saltshaker03c.jpg,salt shaker,z,sounds/greatgatsby_spanish.wav,,,,,,,,,0,0,0,0,0,13,13,63,121.157835317,9.62207559496e-06,122.197701558,1.03987586324,,,,z,1,1.01719517703,2018_Nov_14_1402,59.9906296298,spanish_cond2,001,1024,
images/magnifyingglass01b.jpg,magnifying glass,z,sounds/greatgatsby_spanish.wav,,,,,,,,,0,0,0,0,0,14,14,64,123.302862132,9.30123496801e-06,124.214970183,0.912118314765,,,,z,1,0.900503584067,2018_Nov_14_1402,59.9906296298,spanish_cond2,001,1024,
images/wallet01.jpg,lamp,x,sounds/greatgatsby_spanish.wav,,,,,,,,,0,0,0,0,0,15,15,193,125.319195176,9.30135138333e-06,126.365575199,1.04638932389,,,,x,1,1.03386916185,2018_Nov_14_1402,59.9906296298,spanish_cond2,001,1024,
images/plate01b.jpg,plate,z,sounds/greatgatsby_spanish.wav,,,,,,,,,0,0,0,0,0,16,16,3,127.462321323,9.30123496801e-06,128.549558013,1.0872463116,,,,z,1,1.06722803623,2018_Nov_14_1402,59.9906296298,spanish_cond2,001,1024,
images/beermug01b.jpg,beer mug,z,sounds/greatgatsby_spanish.wav,,,,,,,,,0,0,0,0,0,17,17,111,129.664255284,9.94279980659e-06,130.800217201,1.13597250159,,,,x,0,1.11722336954,2018_Nov_14_1402,59.9906296298,spanish_cond2,001,1024,
images/carrot02.jpg,corkscrew,x,sounds/greatgatsby_spanish.wav,,,,,,,,,0,0,0,0,0,18,18,161,131.902217264,9.62207559496e-06,133.184433765,1.28222708532,,,,x,1,1.26747237111,2018_Nov_14_1402,59.9906296298,spanish_cond2,001,1024,
images/leaf01a.jpg,leaf,z,sounds/greatgatsby_spanish.wav,,,,,,,,,0,0,0,0,0,19,19,68,134.286904345,8.98051075637e-06,135.084791736,0.797897013021,,,,z,1,0.783812632435,2018_Nov_14_1402,59.9906296298,spanish_cond2,001,1024,
images/cheetah.jpg,cheetah,z,sounds/greatgatsby_spanish.wav,,,,,,,,,0,0,0,0,0,20,20,82,136.186816817,9.62207559496e-06,137.185390835,0.998583639855,,,,z,1,0.983864206471,2018_Nov_14_1402,59.9906296298,spanish_cond2,001,1024,
images/safe.jpg,safe,z,sounds/greatgatsby_spanish.wav,,,,,,,,,0,0,0,0,0,21,21,78,138.294642047,9.62195917964e-06,139.352677213,1.05804542929,,,,z,1,1.03386050195,2018_Nov_14_1402,59.9906296298,spanish_cond2,001,1024,
images/lantern03.jpg,lantern,z,sounds/greatgatsby_spanish.wav,,,,,,,,,0,0,0,0,0,22,22,5,140.459386289,9.30123496801e-06,141.586683905,1.12730787974,,,,z,1,1.11722593545,2018_Nov_14_1402,59.9906296298,spanish_cond2,001,1024,
images/remotecontrol01c.jpg,remote control,z,sounds/greatgatsby_spanish.wav,,,,,,,,,0,0,0,0,0,23,23,85,142.696100295,8.98051075637e-06,143.787300933,1.09121025982,,,,z,1,1.06720430194,2018_Nov_14_1402,59.9906296298,spanish_cond2,001,1024,
images/gorilla.jpg,gorilla,z,sounds/greatgatsby_spanish.wav,,,,,,,,,0,0,0,0,0,24,24,80,144.897766763,9.30123496801e-06,145.937938343,1.04018184321,,,,z,1,1.01720062958,2018_Nov_14_1402,59.9906296298,spanish_cond2,001,1024,
images/eyedrops.jpg,bicycle,x,sounds/greatgatsby_spanish.wav,,,,,,,,,0,0,0,0,0,25,25,131,147.036658262,9.30123496801e-06,148.08855715,1.05190915149,,,,x,1,1.03386948246,2018_Nov_14_1402,59.9906296298,spanish_cond2,001,1024,
images/ostrich.jpg,ostrich,z,sounds/greatgatsby_spanish.wav,,,,,,,,,0,0,0,0,0,26,26,76,149.188652376,8.9806271717e-06,150.455935515,1.26729308104,,,,z,1,1.25062775612,2018_Nov_14_1402,59.9906296298,spanish_cond2,001,1024,
images/banjo.jpg,knife,x,sounds/greatgatsby_spanish.wav,,,,,,,,,0,0,0,0,0,27,27,191,151.550738634,1.02634076029e-05,152.923292678,1.37256398716,,,,x,1,1.35063253506,2018_Nov_14_1402,59.9906296298,spanish_cond2,001,1024,
images/desktopcomputer.jpg,desktop computer,z,sounds/greatgatsby_spanish.wav,,,,,,,,,0,0,0,0,0,28,28,16,154.057273744,9.62207559496e-06,155.007225169,0.94996168837,,,,z,1,0.933835196076,2018_Nov_14_1402,59.9906296298,spanish_cond2,001,1024,
images/seagull.jpg,seagull,z,sounds/greatgatsby_spanish.wav,,,,,,,,,0,0,0,0,0,29,29,50,156.11460971,9.94268339127e-06,157.107848002,0.993248554878,,,,z,1,0.983864206355,2018_Nov_14_1402,59.9906296298,spanish_cond2,001,1024,
images/ear.jpg,bullet,x,sounds/greatgatsby_spanish.wav,,,,,,,,,0,0,0,0,0,30,30,139,158.210068088,9.94279980659e-06,159.241796353,1.03173852758,,,,x,1,1.01720640273,2018_Nov_14_1402,59.9906296298,spanish_cond2,001,1024,
images/cookingpot.jpg,grasshopper,x,sounds/greatgatsby_spanish.wav,,,,,,,,,0,0,0,0,0,31,31,183,160.355684412,9.30123496801e-06,161.27571587,0.920041079633,,,,x,1,0.900488830288,2018_Nov_14_1402,59.9906296298,spanish_cond2,001,1024,
images/tank.jpg,wallet,x,sounds/greatgatsby_spanish.wav,,,,,,,,,0,0,0,0,0,32,32,237,162.38042485,9.94268339127e-06,163.476372027,1.09595776058,,,,x,1,1.08388566354,2018_Nov_14_1402,59.9906296298,spanish_cond2,001,1024,
images/rubberglove02a.jpg,lady bug,x,sounds/greatgatsby_spanish.wav,,,,,,,,,0,0,0,0,0,33,33,192,164.579924121,9.30123496801e-06,165.71033991,1.13042541151,,,,x,1,1.11721759639,2018_Nov_14_1402,59.9906296298,spanish_cond2,001,1024,
images/glasses01b.jpg,calculator,x,sounds/greatgatsby_spanish.wav,,,,,,,,,0,0,0,0,0,34,34,142,166.803129463,9.30135138333e-06,167.844303336,1.04118413618,,,,x,1,1.01720287465,2018_Nov_14_1402,59.9906296298,spanish_cond2,001,1024,
images/mirror02.jpg,8 ball,x,sounds/greatgatsby_spanish.wav,,,,,,,,,0,0,0,0,0,35,35,121,168.945465964,9.30123496801e-06,169.89490229,0.94944594847,,,,x,1,0.93383808271,2018_Nov_14_1402,59.9906296298,spanish_cond2,001,1024,
images/hanger02a.jpg,hanger,z,sounds/greatgatsby_spanish.wav,,,,,,,,,0,0,0,0,0,36,36,88,170.987063846,9.30123496801e-06,171.845478183,0.858424600796,,,,z,1,0.833827851224,2018_Nov_14_1402,59.9906296298,spanish_cond2,001,1024,
images/fireextinguisher02.jpg,fire extinguisher,z,sounds/greatgatsby_spanish.wav,,,,,,,,,0,0,0,0,0,37,37,175,172.954348684,9.30135138333e-06,173.929402656,0.975063593592,,,,z,1,0.950475183083,2018_Nov_14_1402,59.9906296298,spanish_cond2,001,1024,
images/comb02a.jpg,diploma,x,sounds/greatgatsby_spanish.wav,,,,,,,,,0,0,0,0,0,38,38,166,175.033884236,9.30123496801e-06,175.796608626,0.762734011281,,,,x,1,0.75045119226,2018_Nov_14_1402,59.9906296298,spanish_cond2,001,1024,
images/dice05a.jpg,band aid,x,sounds/greatgatsby_spanish.wav,,,,,,,,,0,0,0,0,0,39,39,126,176.909307404,8.98051075637e-06,177.780518056,0.871220273199,,,,x,1,0.8504800261,2018_Nov_14_1402,59.9906296298,spanish_cond2,001,1024,
images/cola.jpg,comb,x,sounds/greatgatsby_spanish.wav,,,,,,,,,0,0,0,0,0,40,40,157,178.901185143,9.30135138333e-06,180.398247062,1.49707186141,,,,x,1,1.48429415002,2018_Nov_14_1402,59.9906296298,spanish_cond2,001,1024,
images/highheelshoe02a.jpg,high heel shoe,z,sounds/greatgatsby_spanish.wav,,,,,,,,,0,0,0,0,0,41,41,75,181.504512563,9.30123496801e-06,182.298696121,0.794193500653,,,,z,1,0.783975565224,2018_Nov_14_1402,59.9906296298,spanish_cond2,001,1024,
images/headphones02b.jpg,headphones,z,sounds/greatgatsby_spanish.wav,,,,,,,,,0,0,0,0,0,42,42,101,183.406493768,9.30123496801e-06,184.09905252,0.692568695522,,,,z,1,0.683791496092,2018_Nov_14_1402,59.9906296298,spanish_cond2,001,1024,
images/backpack01b.jpg,swallow,x,sounds/greatgatsby_spanish.wav,,,,,,,,,0,0,0,0,0,43,43,228,185.230027349,9.94279980659e-06,186.466378605,1.23636151955,,,,x,1,1.21724899614,2018_Nov_14_1402,59.9906296298,spanish_cond2,001,1024,
images/ladybug03.jpg,giraffe,x,sounds/greatgatsby_spanish.wav,,,,,,,,,0,0,0,0,0,44,44,178,187.568959517,9.62195917964e-06,188.450288035,0.881338460371,,,,x,1,0.867154652369,2018_Nov_14_1402,59.9906296298,spanish_cond2,001,1024,
images/bench02.jpg,electric toothbrush,x,sounds/greatgatsby_spanish.wav,,,,,,,,,0,0,0,0,0,45,45,172,189.557804077,9.30123496801e-06,190.500879612,0.943085798528,,,,x,1,0.933828460751,2018_Nov_14_1402,59.9906296298,spanish_cond2,001,1024,
images/binder03b.jpg,dj mixer,x,sounds/greatgatsby_spanish.wav,,,,,,,,,0,0,0,0,0,46,46,167,191.612641528,9.62207559496e-06,192.618162959,1.00553105329,,,,x,1,0.983847207506,2018_Nov_14_1402,59.9906296298,spanish_cond2,001,1024,
images/lock02a.jpg,lock,z,sounds/greatgatsby_spanish.wav,,,,,,,,,0,0,0,0,0,47,47,65,193.729102513,9.30123496801e-06,194.385366074,0.656275748857,,,,z,1,0.633770824759,2018_Nov_14_1402,59.9906296298,spanish_cond2,001,1024,
images/cockroach02.jpg,belt,x,sounds/greatgatsby_spanish.wav,,,,,,,,,0,0,0,0,0,48,48,129,195.484029224,9.30123496801e-06,197.169493667,1.68547438609,,,,x,1,1.66738788993,2018_Nov_14_1402,59.9906296298,spanish_cond2,001,1024,
images/mattress.jpg,cat,x,sounds/greatgatsby_spanish.wav,,,,,,,,,0,0,0,0,0,49,49,147,198.273496071,9.94268339127e-06,199.020020521,0.746534071048,,,,x,1,0.733787470963,2018_Nov_14_1402,59.9906296298,spanish_cond2,001,1024,
images/cactus.jpg,cactus,z,sounds/greatgatsby_spanish.wav,,,,,,,,,0,0,0,0,0,50,50,70,200.130442731,8.98051075637e-06,200.903900475,0.773467045045,,,,z,1,0.750439004274,2018_Nov_14_1402,59.9906296298,spanish_cond2,001,1024,
images/nailpolish02b.jpg,nail polish,z,sounds/greatgatsby_spanish.wav,,,,,,,,,0,0,0,0,0,51,51,94,202.011042542,8.9806271717e-06,203.004511761,0.993478521006,,,,z,1,0.983853942947,2018_Nov_14_1402,59.9906296298,spanish_cond2,001,1024,
images/parkbench03.jpg,park bench,z,sounds/greatgatsby_spanish.wav,,,,,,,,,0,0,0,0,0,52,52,71,204.10961332,8.9806271717e-06,205.121792542,1.01218884427,,,,z,1,1.00053338031,2018_Nov_14_1402,59.9906296298,spanish_cond2,001,1024,
images/lemon02.jpg,lemon,z,sounds/greatgatsby_spanish.wav,,,,,,,,,0,0,0,0,0,53,53,14,206.232167926,9.62207559496e-06,207.322433304,1.0902759626,,,,z,1,1.06722033862,2018_Nov_14_1402,59.9906296298,spanish_cond2,001,1024,
images/blueberry02.jpg,blueberry,z,sounds/greatgatsby_spanish.wav,,,,,,,,,0,0,0,0,0,54,54,46,208.435619278,8.9806271717e-06,209.156312152,0.720702817431,,,,z,1,0.700446557603,2018_Nov_14_1402,59.9906296298,spanish_cond2,001,1024,
images/envelope02a.jpg,grand piano,x,sounds/greatgatsby_spanish.wav,,,,,,,,,0,0,0,0,0,55,55,182,210.277859333,9.94268339127e-06,211.356951952,1.07910224062,,,,x,1,1.06723028142,2018_Nov_14_1402,59.9906296298,spanish_cond2,001,1024,
images/electrictoothbrush01a.jpg,banjo,x,sounds/greatgatsby_spanish.wav,,,,,,,,,0,0,0,0,0,56,56,127,212.45043461,9.30123496801e-06,213.507561779,1.05713743216,,,,x,1,1.03386884101,2018_Nov_14_1402,59.9906296298,spanish_cond2,001,1024,
images/thumbtack02a.jpg,thumb tack,z,sounds/greatgatsby_spanish.wav,,,,,,,,,0,0,0,0,0,57,57,60,214.616360115,9.62195917964e-06,215.97497026,1.35862072941,,,,z,1,1.33398388827,2018_Nov_14_1402,59.9906296298,spanish_cond2,001,1024,
images/honeycomb.jpg,honey comb,z,sounds/greatgatsby_spanish.wav,,,,,,,,,0,0,0,0,0,58,58,59,217.086076596,8.98051075637e-06,217.842162117,0.756095464458,,,,z,1,0.733794847853,2018_Nov_14_1402,59.9906296298,spanish_cond2,001,1024,
images/sock03.jpg,sock,z,sounds/greatgatsby_spanish.wav,,,,,,,,,0,0,0,0,0,59,59,90,218.946323926,9.30135138333e-06,219.726037902,0.779724239605,,,,z,1,0.767125818413,2018_Nov_14_1402,59.9906296298,spanish_cond2,001,1024,
images/triangleruler02.jpg,bottle of red wine,x,sounds/greatgatsby_spanish.wav,,,,,,,,,0,0,0,0,0,60,60,134,220.835326319,9.30135138333e-06,221.626582861,0.791266484535,,,,x,1,0.767128063482,2018_Nov_14_1402,59.9906296298,spanish_cond2,001,1024,
images/beachumbrella01.jpg,beach umbrella,z,sounds/greatgatsby_spanish.wav,,,,,,,,,0,0,0,0,0,61,61,92,222.731091383,9.94279980659e-06,223.760546607,1.02946516697,,,,z,1,1.01719678065,2018_Nov_14_1402,59.9906296298,spanish_cond2,001,1024,
images/pen03c.jpg,pepper,x,sounds/greatgatsby_spanish.wav,,,,,,,,,0,0,0,0,0,62,62,211,224.85364214,9.30123496801e-06,225.794471256,0.940838737879,,,,x,1,0.917165380903,2018_Nov_14_1402,59.9906296298,spanish_cond2,001,1024,
images/bowl02b (1).jpg,bowl,z,sounds/greatgatsby_spanish.wav,,,,,,,,,0,0,0,0,0,63,63,24,226.91053806,9.30123496801e-06,227.494966244,0.584437806625,,,,z,1,0.567065263866,2018_Nov_14_1402,59.9906296298,spanish_cond2,001,1024,
images/toothbrush03a.jpg,parrot,x,sounds/greatgatsby_spanish.wav,,,,,,,,,0,0,0,0,0,64,64,210,228.586164637,9.94279980659e-06,229.478884976,0.892730601947,,,,x,1,0.883841145667,2018_Nov_14_1402,59.9906296298,spanish_cond2,001,1024,
images/handbag02a.jpg,candle,x,sounds/greatgatsby_spanish.wav,,,,,,,,,0,0,0,0,0,65,65,144,230.594601859,9.30123496801e-06,231.479451391,0.884859475307,,,,x,1,0.867160104914,2018_Nov_14_1402,59.9906296298,spanish_cond2,001,1024,
images/lollipop03b.jpg,lollipop,z,sounds/greatgatsby_spanish.wav,,,,,,,,,0,0,0,0,0,66,66,42,232.571066417,8.65978654474e-06,233.463383593,0.892327118898,,,,z,1,0.88384980557,2018_Nov_14_1402,59.9906296298,spanish_cond2,001,1024,
images/belt02a.jpg,snowman,x,sounds/greatgatsby_spanish.wav,,,,,,,,,0,0,0,0,0,67,67,224,234.566957177,3.04697314277e-05,235.33058828,0.763656762312,,,,x,1,0.750466908095,2018_Nov_14_1402,59.9906296298,spanish_cond2,001,1024,
images/graduationcap.jpg,graduation cap,z,sounds/greatgatsby_spanish.wav,,,,,,,,,0,0,0,0,0,68,68,35,236.431589258,8.9806271717e-06,237.964683688,1.53310469294,,,,z,1,1.51733229076,2018_Nov_14_1402,59.9906296298,spanish_cond2,001,1024,
images/elbow.jpg,elbow,z,sounds/greatgatsby_spanish.wav,,,,,,,,,0,0,0,0,0,69,69,105,239.076013254,8.98051075637e-06,240.065521091,0.989517780021,,,,z,1,0.967373681371,2018_Nov_14_1402,59.9906296298,spanish_cond2,001,1024,
images/ashtray02b.jpg,ashtray,z,sounds/greatgatsby_spanish.wav,,,,,,,,,0,0,0,0,0,70,70,43,241.177920946,8.98051075637e-06,242.14921656,0.971305235522,,,,z,1,0.95051655767,2018_Nov_14_1402,59.9906296298,spanish_cond2,001,1024,
images/hairband.jpg,hairband,z,sounds/greatgatsby_spanish.wav,,,,,,,,,0,0,0,0,0,71,71,66,243.257633543,8.98051075637e-06,244.11647157,0.858847969328,,,,z,1,0.850500553148,2018_Nov_14_1402,59.9906296298,spanish_cond2,001,1024,
images/cauliflower01.jpg,glue stick,x,sounds/greatgatsby_spanish.wav,,,,,,,,,0,0,0,0,0,72,72,181,245.230786526,9.30135138333e-06,247.517461546,2.2866849635,,,,x,1,2.26758174144,2018_Nov_14_1402,59.9906296298,spanish_cond2,001,1024,
images/egg01b (1).jpg,egg,z,sounds/greatgatsby_spanish.wav,,,,,,,,,0,0,0,0,0,73,73,19,248.628528111,8.98051075637e-06,249.518040471,0.889521981589,,,,z,1,0.867172934115,2018_Nov_14_1402,59.9906296298,spanish_cond2,001,1024,
images/computermouse02a.jpg,world map,x,sounds/greatgatsby_spanish.wav,,,,,,,,,0,0,0,0,0,74,74,239,250.620376663,9.30123496801e-06,251.51860817,0.898241448915,,,,x,1,0.883827995625,2018_Nov_14_1402,59.9906296298,spanish_cond2,001,1024,
images/orange.jpg,bat,x,sounds/greatgatsby_spanish.wav,,,,,,,,,0,0,0,0,0,75,75,128,252.641673383,8.65978654474e-06,253.602550924,0.960887162364,,,,x,1,0.950513029704,2018_Nov_14_1402,59.9906296298,spanish_cond2,001,1024,
images/bull.jpg,button,x,sounds/greatgatsby_spanish.wav,,,,,,,,,0,0,0,0,0,76,76,141,254.708753561,9.30135138333e-06,255.65315084,0.944407221512,,,,x,1,0.933845138876,2018_Nov_14_1402,59.9906296298,spanish_cond2,001,1024,
images/lip.jpg,boxing glove,x,sounds/greatgatsby_spanish.wav,,,,,,,,,0,0,0,0,0,77,77,136,256.754556263,9.30123496801e-06,258.170543429,1.41599678749,,,,x,1,1.40061375604,2018_Nov_14_1402,59.9906296298,spanish_cond2,001,1024,
images/drink.jpg,drink,z,sounds/greatgatsby_spanish.wav,,,,,,,,,0,0,0,0,0,78,78,117,259.269038835,8.98051075637e-06,260.104439244,0.835410030792,,,,z,1,0.817129170056,2018_Nov_14_1402,59.9906296298,spanish_cond2,001,1024,
images/medal01.jpg,medal,z,sounds/greatgatsby_spanish.wav,,,,,,,,,0,0,0,0,0,79,79,115,261.203611718,9.62207559496e-06,262.171702561,0.968101105536,,,,z,1,0.950500520994,2018_Nov_14_1402,59.9906296298,spanish_cond2,001,1024,
images/pictureframe04.jpg,picture frame,z,sounds/greatgatsby_spanish.wav,,,,,,,,,0,0,0,0,0,80,80,41,263.292213772,9.30135138333e-06,264.255645635,0.963441485888,,,,z,1,0.950509180897,2018_Nov_14_1402,59.9906296298,spanish_cond2,001,1024,
images/radish01.jpg,raisin,x,sounds/greatgatsby_spanish.wav,,,,,,,,,0,0,0,0,0,81,81,214,265.366679165,9.30123496801e-06,266.122860586,0.756191363791,,,,x,1,0.733787470846,2018_Nov_14_1402,59.9906296298,spanish_cond2,001,1024,
images/radio03a.jpg,radio,z,sounds/greatgatsby_spanish.wav,,,,,,,,,0,0,0,0,0,82,82,37,267.235734485,8.9806271717e-06,268.273508259,1.03778339631,,,,z,1,1.01721634541,2018_Nov_14_1402,59.9906296298,spanish_cond2,001,1024,
images/fork01.jpg,cooking pot,x,sounds/greatgatsby_spanish.wav,,,,,,,,,0,0,0,0,0,83,83,160,269.366646129,9.30135138333e-06,271.624454793,2.25781828573,,,,x,1,2.23421516933,2018_Nov_14_1402,59.9906296298,spanish_cond2,001,1024,
images/volleyball.jpg,volley ball,z,sounds/greatgatsby_spanish.wav,,,,,,,,,0,0,0,0,0,84,84,2,272.756021054,9.30123496801e-06,273.558350608,0.802339495975,,,,z,1,0.783801406738,2018_Nov_14_1402,59.9906296298,spanish_cond2,001,1024,
images/bat.jpg,hand,x,sounds/greatgatsby_spanish.wav,,,,,,,,,0,0,0,0,0,85,85,185,274.654620763,9.30123496801e-06,275.47556923,0.820958089433,,,,x,1,0.800466411049,2018_Nov_14_1402,59.9906296298,spanish_cond2,001,1024,
images/aquarium.jpg,computer mouse,x,sounds/greatgatsby_spanish.wav,,,,,,,,,0,0,0,0,0,86,86,159,276.611125099,9.30123496801e-06,277.959624434,1.34850895696,,,,x,1,1.33395277709,2018_Nov_14_1402,59.9906296298,spanish_cond2,001,1024,
images/bed.jpg,bed,z,sounds/greatgatsby_spanish.wav,,,,,,,,,0,0,0,0,0,87,87,103,279.080608085,9.94268339127e-06,279.860179977,0.779581833747,,,,z,1,0.767122931778,2018_Nov_14_1402,59.9906296298,spanish_cond2,001,1024,
images/squirrel.jpg,binder,x,sounds/greatgatsby_spanish.wav,,,,,,,,,0,0,0,0,0,88,88,132,280.961528309,9.62195917964e-06,281.710730564,0.749212197727,,,,x,1,0.73376758548,2018_Nov_14_1402,59.9906296298,spanish_cond2,001,1024,
images/hairdryer03a.jpg,hairdryer,z,sounds/greatgatsby_spanish.wav,,,,,,,,,0,0,0,0,0,89,89,119,282.809097356,9.30123496801e-06,283.9113601,1.10227236641,,,,z,1,1.08388630499,2018_Nov_14_1402,59.9906296298,spanish_cond2,001,1024,
images/djmixer01.jpg,light bulb,x,sounds/greatgatsby_spanish.wav,,,,,,,,,0,0,0,0,0,90,90,196,285.031599329,9.62195917964e-06,286.078669571,1.04708050517,,,,x,1,1.0338775008,2018_Nov_14_1402,59.9906296298,spanish_cond2,001,1024,
images/boxingglove02a.jpg,bracelet,x,sounds/greatgatsby_spanish.wav,,,,,,,,,0,0,0,0,0,91,91,135,287.190181635,8.9806271717e-06,287.946164201,0.756008224911,,,,x,1,0.734001721023,2018_Nov_14_1402,59.9906296298,spanish_cond2,001,1024,
images/cat.jpg,black olive,x,sounds/greatgatsby_spanish.wav,,,,,,,,,0,0,0,0,0,92,92,133,289.077123955,9.62195917964e-06,289.94676269,0.869648998603,,,,x,1,0.850784081733,2018_Nov_14_1402,59.9906296298,spanish_cond2,001,1024,
images/globe.jpg,cloud,x,sounds/greatgatsby_spanish.wav,,,,,,,,,0,0,0,0,0,93,93,154,291.074326515,9.62207559496e-06,292.380531975,1.30621572363,,,,x,1,1.28396385838,2018_Nov_14_1402,59.9906296298,spanish_cond2,001,1024,
images/arrow02.jpg,hammer,x,sounds/greatgatsby_spanish.wav,,,,,,,,,0,0,0,0,0,94,94,184,293.47777652,9.30123496801e-06,294.364403559,0.886637302465,,,,x,1,0.867157538887,2018_Nov_14_1402,59.9906296298,spanish_cond2,001,1024,
images/floorlamp.jpg,floor lamp,z,sounds/greatgatsby_spanish.wav,,,,,,,,,0,0,0,0,0,95,95,26,295.457041404,9.30123496801e-06,296.314955397,0.8579239354,,,,z,1,0.833799947402,2018_Nov_14_1402,59.9906296298,spanish_cond2,001,1024,
images/battery03b.jpg,battery,z,sounds/greatgatsby_spanish.wav,,,,,,,,,0,0,0,0,0,96,96,34,297.422703009,9.30123496801e-06,298.098826082,0.67613365734,,,,z,1,0.667102436884,2018_Nov_14_1402,59.9906296298,spanish_cond2,001,1024,
images/chameleon.jpg,50 dollar bill,x,sounds/greatgatsby_spanish.wav,,,,,,,,,0,0,0,0,0,97,97,120,299.211133887,9.62195917964e-06,299.982699622,0.771575678256,,,,x,1,0.750456644688,2018_Nov_14_1402,59.9906296298,spanish_cond2,001,1024,
images/calculator02b.jpg,dice,x,sounds/greatgatsby_spanish.wav,,,,,,,,,0,0,0,0,0,98,98,165,301.083959112,9.30135138333e-06,301.883247468,0.799297978054,,,,x,1,0.78378953971,2018_Nov_14_1402,59.9906296298,spanish_cond2,001,1024,
images/ceilingfan02.jpg,paper clip,x,sounds/greatgatsby_spanish.wav,,,,,,,,,0,0,0,0,0,99,99,208,302.981649219,9.30135138333e-06,303.750456003,0.768816406024,,,,x,1,0.750449909247,2018_Nov_14_1402,59.9906296298,spanish_cond2,001,1024,
images/electricguitar02.jpg,electric guitar,z,sounds/greatgatsby_spanish.wav,,,,,,,,,0,0,0,0,0,100,100,100,304.852215837,9.30123496801e-06,305.684348611,0.832142716157,,,,x,0,0.817126283422,2018_Nov_14_1402,59.9906296298,spanish_cond2,001,1024,
images/dresser02.jpg,dresser,z,sounds/greatgatsby_spanish.wav,,,,,,,,,0,0,0,0,0,101,101,87,306.804974003,8.98051075637e-06,307.651594319,0.846630259068,,,,z,1,0.833812776837,2018_Nov_14_1402,59.9906296298,spanish_cond2,001,1024,
images/razor04a.jpg,razor,z,sounds/greatgatsby_spanish.wav,,,,,,,,,0,0,0,0,0,102,102,36,308.750927161,9.62207559496e-06,309.552154673,0.801237454987,,,,z,1,0.783808462904,2018_Nov_14_1402,59.9906296298,spanish_cond2,001,1024,
images/doll.jpg,carrot,x,sounds/greatgatsby_spanish.wav,,,,,,,,,0,0,0,0,0,103,103,146,310.662117914,8.98051075637e-06,311.519374402,0.857266752049,,,,x,1,0.833721047034,2018_Nov_14_1402,59.9906296298,spanish_cond2,001,1024,
images/diploma01.jpg,glasses,x,sounds/greatgatsby_spanish.wav,,,,,,,,,0,0,0,0,0,104,104,179,312.649086502,9.94279980659e-06,313.436615156,0.787538917037,,,,x,1,0.767130950117,2018_Nov_14_1402,59.9906296298,spanish_cond2,001,1024,
images/aloe02.jpg,broad sword,x,sounds/greatgatsby_spanish.wav,,,,,,,,,0,0,0,0,0,105,105,137,314.557178646,8.98051075637e-06,315.553891446,0.996722742682,,,,x,1,0.983857791871,2018_Nov_14_1402,59.9906296298,spanish_cond2,001,1024,
images/weight01.jpg,weight,z,sounds/greatgatsby_spanish.wav,,,,,,,,,0,0,0,0,0,106,106,67,316.656802394,9.62207559496e-06,317.737850205,1.08105807495,,,,z,1,1.06720045314,2018_Nov_14_1402,59.9906296298,spanish_cond2,001,1024,
images/shotglass.jpg,shot glass,z,sounds/greatgatsby_spanish.wav,,,,,,,,,0,0,0,0,0,107,107,86,318.845246934,9.62195917964e-06,319.721776955,0.876540604397,,,,z,1,0.86715625599,2018_Nov_14_1402,59.9906296298,spanish_cond2,001,1024,
images/crocodile.jpg,triangle ruler,x,sounds/greatgatsby_spanish.wav,,,,,,,,,0,0,0,0,0,108,108,235,320.817827407,9.62195917964e-06,321.839056132,1.02123866719,,,,x,1,1.0005320973,2018_Nov_14_1402,59.9906296298,spanish_cond2,001,1024,
images/tent.jpg,tent,z,sounds/greatgatsby_spanish.wav,,,,,,,,,0,0,0,0,0,109,109,11,322.964599335,9.94279980659e-06,323.839640829,0.87505368283,,,,z,1,0.8504899689,2018_Nov_14_1402,59.9906296298,spanish_cond2,001,1024,
images/mushroom01.jpg,shower head,x,sounds/greatgatsby_spanish.wav,,,,,,,,,0,0,0,0,0,110,110,222,324.954437207,9.30123496801e-06,326.056950765,1.10252414248,,,,x,1,1.08388951235,2018_Nov_14_1402,59.9906296298,spanish_cond2,001,1024,
images/licenseplate.jpg,license plate,z,sounds/greatgatsby_spanish.wav,,,,,,,,,0,0,0,0,0,111,111,40,327.174599748,9.62195917964e-06,328.124201894,0.949612088501,,,,z,1,0.933833592338,2018_Nov_14_1402,59.9906296298,spanish_cond2,001,1024,
images/hand01a.jpg,cupcake,x,sounds/greatgatsby_spanish.wav,,,,,,,,,0,0,0,0,0,112,112,163,329.234306578,9.30135138333e-06,330.174818489,0.940522494493,,,,x,1,0.91718558711,2018_Nov_14_1402,59.9906296298,spanish_cond2,001,1024,
images/screwdriver02b.jpg,cola,x,sounds/greatgatsby_spanish.wav,,,,,,,,,0,0,0,0,0,113,113,158,331.267667057,9.62195917964e-06,332.508807188,1.24114975345,,,,x,1,1.21724514733,2018_Nov_14_1402,59.9906296298,spanish_cond2,001,1024,
images/tissuebox03.jpg,tissue box,z,sounds/greatgatsby_spanish.wav,,,,,,,,,0,0,0,0,0,114,114,58,333.632759872,9.30135138333e-06,334.492719505,0.859969575191,,,,z,1,0.850477139582,2018_Nov_14_1402,59.9906296298,spanish_cond2,001,1024,
images/masquerademask02b.jpg,mirror,x,sounds/greatgatsby_spanish.wav,,,,,,,,,0,0,0,0,0,115,115,204,335.596173133,9.94279980659e-06,336.409971804,0.813809896703,,,,x,1,0.800489824498,2018_Nov_14_1402,59.9906296298,spanish_cond2,001,1024,
images/ant.jpg,ant,z,sounds/greatgatsby_spanish.wav,,,,,,,,,0,0,0,0,0,116,116,98,337.503052904,9.62195917964e-06,338.510566413,1.00752345123,,,,z,1,0.983859395492,2018_Nov_14_1402,59.9906296298,spanish_cond2,001,1024,
images/acousticguitar02.jpg,acoustic guitar,z,sounds/greatgatsby_spanish.wav,,,,,,,,,0,0,0,0,0,117,117,97,339.622991926,9.30123496801e-06,340.594509808,0.971528145485,,,,z,1,0.950523613836,2018_Nov_14_1402,59.9906296298,spanish_cond2,001,1024,
images/worldmap.jpg,scooter,x,sounds/greatgatsby_spanish.wav,,,,,,,,,0,0,0,0,0,118,118,220,341.725491372,9.30123496801e-06,342.428358828,0.702877077856,,,,x,1,0.68375717767,2018_Nov_14_1402,59.9906296298,spanish_cond2,001,1024,
images/antelope.jpg,antelope,z,sounds/greatgatsby_spanish.wav,,,,,,,,,0,0,0,0,0,119,119,12,343.53272751,9.62207559496e-06,344.612346774,1.07962984766,,,,z,1,1.06720462267,2018_Nov_14_1402,59.9906296298,spanish_cond2,001,1024,
images/flashlight05.jpg,flash light,z,sounds/greatgatsby_spanish.wav,,,,,,,,,0,0,0,0,0,120,120,8,345.71315467,9.30123496801e-06,346.912994239,1.19984951173,,,,z,1,1.18390776217,2018_Nov_14_1402,59.9906296298,spanish_cond2,001,1024,
images/swan.jpg,swan,z,sounds/greatgatsby_spanish.wav,,,,,,,,,0,0,0,0,0,121,121,54,348.003453661,9.62207559496e-06,348.913578295,0.910134576727,,,,x,0,0.900491716922,2018_Nov_14_1402,59.9906296298,spanish_cond2,001,1024,
images/bowlingball.jpg,bowling ball,z,sounds/greatgatsby_spanish.wav,,,,,,,,,0,0,0,0,0,122,122,20,350.044223088,9.30135138333e-06,350.830799163,0.786586017115,,,,z,1,0.76711747935,2018_Nov_14_1402,59.9906296298,spanish_cond2,001,1024,
images/table02.jpg,table,z,sounds/greatgatsby_spanish.wav,,,,,,,,,0,0,0,0,0,123,123,49,351.944146465,9.62195917964e-06,353.414887369,1.47075116797,,,,z,1,1.45064693596,2018_Nov_14_1402,59.9906296298,spanish_cond2,001,1024,
images/diaper01a.jpg,camera,x,sounds/greatgatsby_spanish.wav,,,,,,,,,0,0,0,0,0,124,124,143,354.535235006,9.62195917964e-06,355.532163981,0.996938917204,,,,z,0,0.983840151457,2018_Nov_14_1402,59.9906296298,spanish_cond2,001,1024,
images/pepper05a.jpg,lighter,x,sounds/greatgatsby_spanish.wav,,,,,,,,,0,0,0,0,0,125,125,198,356.653209855,8.98051075637e-06,357.816160233,1.16296000034,,,,x,1,1.15056364145,2018_Nov_14_1402,59.9906296298,spanish_cond2,001,1024,
images/swallow.jpg,mattress,x,sounds/greatgatsby_spanish.wav,,,,,,,,,0,0,0,0,0,126,126,202,358.916394978,9.30123496801e-06,360.066811082,1.15042636741,,,,x,1,1.13388869446,2018_Nov_14_1402,59.9906296298,spanish_cond2,001,1024,
images/umbrella01.jpg,umbrella,z,sounds/greatgatsby_spanish.wav,,,,,,,,,0,0,0,0,0,127,127,53,361.179886082,9.30135138333e-06,362.067397063,0.887520603137,,,,z,1,0.867146634031,2018_Nov_14_1402,59.9906296298,spanish_cond2,001,1024,
images/pouch01b.jpg,pouch,z,sounds/greatgatsby_spanish.wav,,,,,,,,,0,0,0,0,0,128,128,25,363.179520766,9.30123496801e-06,364.084931897,0.905422035838,,,,z,1,0.884030699381,2018_Nov_14_1402,59.9906296298,spanish_cond2,001,1024,
images/50dollarbill.jpg,cherry,x,sounds/greatgatsby_spanish.wav,,,,,,,,,0,0,0,0,0,129,129,151,365.204903313,9.62195917964e-06,366.185274409,0.98038103804,,,,x,1,0.967186052236,2018_Nov_14_1402,59.9906296298,spanish_cond2,001,1024,
images/kiwi03.jpg,backpack,x,sounds/greatgatsby_spanish.wav,,,,,,,,,0,0,0,0,0,130,130,125,367.312097018,9.30135138333e-06,368.302542039,0.990454964107,,,,x,1,0.967168411822,2018_Nov_14_1402,59.9906296298,spanish_cond2,001,1024,
images/lipstick04.jpg,lipstick,z,sounds/greatgatsby_spanish.wav,,,,,,,,,0,0,0,0,0,131,131,56,369.400651603,9.30123496801e-06,370.653220119,1.25257845863,,,,z,1,1.23391913215,2018_Nov_14_1402,59.9906296298,spanish_cond2,001,1024,
images/paintbrush03a.jpg,paint brush,z,sounds/greatgatsby_spanish.wav,,,,,,,,,0,0,0,0,0,132,132,0,371.753231633,8.98051075637e-06,372.870534544,1.11731221282,,,,z,1,1.10055066773,2018_Nov_14_1402,59.9906296298,spanish_cond2,001,1024,
images/straw.jpg,straw,z,sounds/greatgatsby_spanish.wav,,,,,,,,,0,0,0,0,0,133,133,109,373.960419212,9.30123496801e-06,375.27123105,1.31082210154,,,,x,0,1.30059871369,2018_Nov_14_1402,59.9906296298,spanish_cond2,001,1024,
images/baseball01a.jpg,baseball,z,sounds/greatgatsby_spanish.wav,,,,,,,,,0,0,0,0,0,134,134,74,376.403567393,9.30135138333e-06,377.188475973,0.784918201738,,,,z,1,0.767138968455,2018_Nov_14_1402,59.9906296298,spanish_cond2,001,1024,
images/icecube02 (2).jpg,aloe,x,sounds/greatgatsby_spanish.wav,,,,,,,,,0,0,0,0,0,135,135,122,378.297775295,9.62207559496e-06,379.189039502,0.891274470836,,,,x,1,0.867155293818,2018_Nov_14_1402,59.9906296298,spanish_cond2,001,1024,
images/apricot.jpg,apricot,z,sounds/greatgatsby_spanish.wav,,,,,,,,,0,0,0,0,0,136,136,32,380.305973249,9.30135138333e-06,381.056246755,0.750283769215,,,,z,1,0.73378137697,2018_Nov_14_1402,59.9906296298,spanish_cond2,001,1024,
images/pingpongpaddle01c (1).jpg,ping pong paddle,z,sounds/greatgatsby_spanish.wav,,,,,,,,,0,0,0,0,0,137,137,10,382.165768345,9.30123496801e-06,383.073516663,0.907758581103,,,,z,1,0.883835372515,2018_Nov_14_1402,59.9906296298,spanish_cond2,001,1024,
images/handfan01b.jpg,handfan,z,sounds/greatgatsby_spanish.wav,,,,,,,,,0,0,0,0,0,138,138,69,384.186699749,9.30135138333e-06,385.140770678,0.954080871772,,,,z,1,0.933837120538,2018_Nov_14_1402,59.9906296298,spanish_cond2,001,1024,
images/candycane01a.jpg,lip,x,sounds/greatgatsby_spanish.wav,,,,,,,,,0,0,0,0,0,139,139,200,386.233633679,9.30135138333e-06,387.324750285,1.09112654848,,,,x,1,1.06722450815,2018_Nov_14_1402,59.9906296298,spanish_cond2,001,1024,
images/dragonfly02.jpg,dragon fly,z,sounds/greatgatsby_spanish.wav,,,,,,,,,0,0,0,0,0,140,140,29,388.422708462,9.30123496801e-06,389.34201025,0.919312051847,,,,z,1,0.900498131523,2018_Nov_14_1402,59.9906296298,spanish_cond2,001,1024,
images/atm.jpg,atm,z,sounds/greatgatsby_spanish.wav,,,,,,,,,0,0,0,0,0,141,141,96,390.478838148,9.30123496801e-06,391.375915655,0.897087448975,,,,z,1,0.883818052942,2018_Nov_14_1402,59.9906296298,spanish_cond2,001,1024,
images/gps.jpg,gps,z,sounds/greatgatsby_spanish.wav,,,,,,,,,0,0,0,0,0,142,142,21,392.494598363,9.62207559496e-06,393.409840303,0.91525220417,,,,z,1,0.900494282716,2018_Nov_14_1402,59.9906296298,spanish_cond2,001,1024,
images/blackolive.jpg,tank,x,sounds/greatgatsby_spanish.wav,,,,,,,,,0,0,0,0,0,143,143,229,394.523339634,9.30123496801e-06,395.443778744,0.920448732097,,,,x,1,0.90050454624,2018_Nov_14_1402,59.9906296298,spanish_cond2,001,1024,
images/gluestick.jpg,squirrel,x,sounds/greatgatsby_spanish.wav,,,,,,,,,0,0,0,0,0,144,144,226,396.54944736,9.62207559496e-06,397.411042093,0.861604996608,,,,x,1,0.850512420293,2018_Nov_14_1402,59.9906296298,spanish_cond2,001,1024,
images/ladder.jpg,ladder,z,sounds/greatgatsby_spanish.wav,,,,,,,,,0,0,0,0,0,145,145,113,398.50177895,9.30123496801e-06,399.311569411,0.809800724848,,,,z,1,0.800480843987,2018_Nov_14_1402,59.9906296298,spanish_cond2,001,1024,
images/watermelon01.jpg,orange,x,sounds/greatgatsby_spanish.wav,,,,,,,,,0,0,0,0,0,146,146,207,400.439221117,9.30123496801e-06,401.195444555,0.756233059219,,,,x,1,0.73378394288,2018_Nov_14_1402,59.9906296298,spanish_cond2,001,1024,
images/grandpiano.jpg,tulip,x,sounds/greatgatsby_spanish.wav,,,,,,,,,0,0,0,0,0,147,147,236,402.310009362,9.62195917964e-06,403.112674082,0.802674983512,,,,x,1,0.783804934938,2018_Nov_14_1402,59.9906296298,spanish_cond2,001,1024,
images/printer03a.jpg,printer,z,sounds/greatgatsby_spanish.wav,,,,,,,,,0,0,0,0,0,148,148,72,404.222429808,9.30135138333e-06,405.229956467,1.00753660139,,,,z,1,0.983861640561,2018_Nov_14_1402,59.9906296298,spanish_cond2,001,1024,
images/flower01.jpg,bus,x,sounds/greatgatsby_spanish.wav,,,,,,,,,0,0,0,0,0,149,149,140,406.344714356,8.98051075637e-06,407.130518745,0.785814331728,,,,x,1,0.767085405882,2018_Nov_14_1402,59.9906296298,spanish_cond2,001,1024,
images/notebook02b.jpg,notebook,z,sounds/greatgatsby_spanish.wav,,,,,,,,,0,0,0,0,0,150,150,7,408.235949377,9.62207559496e-06,409.18110038,0.945160625037,,,,z,1,0.933848346118,2018_Nov_14_1402,59.9906296298,spanish_cond2,001,1024,
images/broom02.jpg,broom,z,sounds/greatgatsby_spanish.wav,,,,,,,,,0,0,0,0,0,151,151,116,410.274349865,8.98051075637e-06,411.181686681,0.907346758991,,,,z,1,0.883838900598,2018_Nov_14_1402,59.9906296298,spanish_cond2,001,1024,
images/dryingmachine01.jpg,drying machine,z,sounds/greatgatsby_spanish.wav,,,,,,,,,0,0,0,0,0,152,152,18,412.302778741,9.62207559496e-06,413.499028016,1.19625921838,,,,z,1,1.18392860983,2018_Nov_14_1402,59.9906296298,spanish_cond2,001,1024,
images/cake.jpg,cake,z,sounds/greatgatsby_spanish.wav,,,,,,,,,0,0,0,0,0,153,153,23,414.66490926,9.30135138333e-06,415.533023547,0.868132248754,,,,x,0,0.850493176142,2018_Nov_14_1402,59.9906296298,spanish_cond2,001,1024,
images/candy.jpg,candy,z,sounds/greatgatsby_spanish.wav,,,,,,,,,0,0,0,0,0,154,154,31,416.633843952,9.62195917964e-06,417.300115368,0.666281679296,,,,z,1,0.650424603373,2018_Nov_14_1402,59.9906296298,spanish_cond2,001,1024,
images/peach01.jpg,peach,z,sounds/greatgatsby_spanish.wav,,,,,,,,,0,0,0,0,0,155,155,106,418.427508884,9.30135138333e-06,419.234016635,0.806517694495,,,,z,1,0.783794992138,2018_Nov_14_1402,59.9906296298,spanish_cond2,001,1024,
images/cloud.jpg,ceiling fan,x,sounds/greatgatsby_spanish.wav,,,,,,,,,0,0,0,0,0,156,156,149,420.339393704,9.30135138333e-06,421.367965948,1.02858186618,,,,x,1,1.01719164895,2018_Nov_14_1402,59.9906296298,spanish_cond2,001,1024,
images/corkscrew02a.jpg,masquerade mask,x,sounds/greatgatsby_spanish.wav,,,,,,,,,0,0,0,0,0,157,157,201,422.470316895,9.62207559496e-06,423.701981589,1.23167431669,,,,x,1,1.21725059988,2018_Nov_14_1402,59.9906296298,spanish_cond2,001,1024,
images/lettuce.jpg,mushroom,x,sounds/greatgatsby_spanish.wav,,,,,,,,,0,0,0,0,0,158,158,205,424.824458257,9.62195917964e-06,425.719242837,0.894794844324,,,,x,1,0.883837617585,2018_Nov_14_1402,59.9906296298,spanish_cond2,001,1024,
images/axe01.jpg,axe,z,sounds/greatgatsby_spanish.wav,,,,,,,,,0,0,0,0,0,159,159,104,426.822109523,9.62195917964e-06,427.719808291,0.897708710283,,,,z,1,0.88381869439,2018_Nov_14_1402,59.9906296298,spanish_cond2,001,1024,
images/croissant02b.jpg,croissant,z,sounds/greatgatsby_spanish.wav,,,,,,,,,0,0,0,0,0,160,160,39,428.829335013,9.30123496801e-06,429.87044538,1.04112063081,,,,z,1,1.01720030874,2018_Nov_14_1402,59.9906296298,spanish_cond2,001,1024,
images/knife04.jpg,tooth brush,x,sounds/greatgatsby_spanish.wav,,,,,,,,,0,0,0,0,0,161,161,233,430.966560301,9.30135138333e-06,432.204446268,1.23789623054,,,,x,1,1.21724418516,2018_Nov_14_1402,59.9906296298,spanish_cond2,001,1024,
images/tape01a.jpg,tie,x,sounds/greatgatsby_spanish.wav,,,,,,,,,0,0,0,0,0,162,162,232,433.32866933,8.65978654474e-06,434.121678361,0.793018652941,,,,x,1,0.783800765406,2018_Nov_14_1402,59.9906296298,spanish_cond2,001,1024,
images/scooter.jpg,pen,x,sounds/greatgatsby_spanish.wav,,,,,,,,,0,0,0,0,0,163,163,212,435.214355336,9.30123496801e-06,436.238964595,1.02461888012,,,,x,1,1.00052856922,2018_Nov_14_1402,59.9906296298,spanish_cond2,001,1024,
images/apple06.jpg,apple,z,sounds/greatgatsby_spanish.wav,,,,,,,,,0,0,0,0,0,164,164,13,437.36617465,9.30123496801e-06,438.022803527,0.656638498767,,,,z,1,0.63374003442,2018_Nov_14_1402,59.9906296298,spanish_cond2,001,1024,
images/hammer02a.jpg,flower,x,sounds/greatgatsby_spanish.wav,,,,,,,,,0,0,0,0,0,165,165,176,439.11795368,8.98051075637e-06,440.356807622,1.23886388412,,,,x,1,1.21723520465,2018_Nov_14_1402,59.9906296298,spanish_cond2,001,1024,
images/bus.jpg,microphone,x,sounds/greatgatsby_spanish.wav,,,,,,,,,0,0,0,0,0,166,166,203,441.473968127,8.98051075637e-06,442.57413199,1.10017348488,,,,x,1,1.08388405992,2018_Nov_14_1402,59.9906296298,spanish_cond2,001,1024,
images/bracelet02a.jpg,chess knight,x,sounds/greatgatsby_spanish.wav,,,,,,,,,0,0,0,0,0,167,167,152,443.681776647,9.62195917964e-06,444.774773394,1.09300668957,,,,x,1,1.08388951235,2018_Nov_14_1402,59.9906296298,spanish_cond2,001,1024,
images/leek.jpg,donut,x,sounds/greatgatsby_spanish.wav,,,,,,,,,0,0,0,0,0,168,168,169,445.87394651,8.98051075637e-06,446.875379548,1.00144298107,,,,x,1,0.983852660051,2018_Nov_14_1402,59.9906296298,spanish_cond2,001,1024,
images/coin01b.jpg,arrow,x,sounds/greatgatsby_spanish.wav,,,,,,,,,0,0,0,0,0,169,169,124,447.978817461,8.9806271717e-06,448.925970484,0.947162003606,,,,x,1,0.933813386247,2018_Nov_14_1402,59.9906296298,spanish_cond2,001,1024,
images/dolphin01.jpg,dolphin,z,sounds/greatgatsby_spanish.wav,,,,,,,,,0,0,0,0,0,170,170,99,450.025778333,8.65978654474e-06,450.793033086,0.767264696071,,,,z,1,0.750247847056,2018_Nov_14_1402,59.9906296298,spanish_cond2,001,1024,
images/sportshorts02.jpg,tape,x,sounds/greatgatsby_spanish.wav,,,,,,,,,0,0,0,0,0,171,171,230,451.900520904,9.62195917964e-06,452.610389015,0.709878695197,,,,x,1,0.700440784334,2018_Nov_14_1402,59.9906296298,spanish_cond2,001,1024,
images/bullet (2).jpg,rubber glove,x,sounds/greatgatsby_spanish.wav,,,,,,,,,0,0,0,0,0,172,172,217,453.714987022,9.30135138333e-06,454.727672682,1.01269560354,,,,x,1,1.00053754984,2018_Nov_14_1402,59.9906296298,spanish_cond2,001,1024,
images/donut.jpg,rhinoceros,x,sounds/greatgatsby_spanish.wav,,,,,,,,,0,0,0,0,0,173,173,216,455.851895424,9.62195917964e-06,456.594875124,0.74298996327,,,,x,1,0.733789716032,2018_Nov_14_1402,59.9906296298,spanish_cond2,001,1024,
images/bottleofredwine02.jpg,pipe,x,sounds/greatgatsby_spanish.wav,,,,,,,,,0,0,0,0,0,174,174,213,457.693654059,9.62195917964e-06,458.562101589,0.868457472767,,,,x,1,0.850475215237,2018_Nov_14_1402,59.9906296298,spanish_cond2,001,1024,
images/birthdaycandle.jpg,birthday candle,z,sounds/greatgatsby_spanish.wav,,,,,,,,,0,0,0,0,0,175,175,55,459.658414081,9.62207559496e-06,460.77942275,1.12101893267,,,,z,1,1.10055612028,2018_Nov_14_1402,59.9906296298,spanish_cond2,001,1024,
images/ruler02b.jpg,watermelon,x,sounds/greatgatsby_spanish.wav,,,,,,,,,0,0,0,0,0,176,176,238,461.881697361,9.30123496801e-06,462.563283492,0.681596394395,,,,x,1,0.667100833263,2018_Nov_14_1402,59.9906296298,spanish_cond2,001,1024,
images/lightswitch02a.jpg,fork,x,sounds/greatgatsby_spanish.wav,,,,,,,,,0,0,0,0,0,177,177,177,463.673545015,9.30123496801e-06,464.530497769,0.856963017141,,,,x,1,0.833795777988,2018_Nov_14_1402,59.9906296298,spanish_cond2,001,1024,
images/rhinoceros01.jpg,envelope,x,sounds/greatgatsby_spanish.wav,,,,,,,,,0,0,0,0,0,178,178,173,465.642015927,8.9806271717e-06,466.64778721,1.00578122563,,,,x,1,0.983856508858,2018_Nov_14_1402,59.9906296298,spanish_cond2,001,1024,
images/basketball01.jpg,basket ball,z,sounds/greatgatsby_spanish.wav,,,,,,,,,0,0,0,0,0,179,179,33,467.785837104,9.30135138333e-06,469.015145688,1.2293185275,,,,z,1,1.21725637303,2018_Nov_14_1402,59.9906296298,spanish_cond2,001,1024,
images/tulip02.jpg,sport shorts,x,sounds/greatgatsby_spanish.wav,,,,,,,,,0,0,0,0,0,180,180,225,470.109466745,9.30123496801e-06,471.232450813,1.12299369019,,,,x,1,1.10054553603,2018_Nov_14_1402,59.9906296298,spanish_cond2,001,1024,
images/cherry01.jpg,highlighter,x,sounds/greatgatsby_spanish.wav,,,,,,,,,0,0,0,0,0,181,181,187,472.339762548,8.98051075637e-06,473.43309799,1.0933447429,,,,x,1,1.08388598438,2018_Nov_14_1402,59.9906296298,spanish_cond2,001,1024,
images/corn01.jpg,corn,z,sounds/greatgatsby_spanish.wav,,,,,,,,,0,0,0,0,0,182,182,22,474.531090164,9.94268339127e-06,475.683746593,1.15266637178,,,,z,1,1.13389607135,2018_Nov_14_1402,59.9906296298,spanish_cond2,001,1024,
images/panda.jpg,panda,z,sounds/greatgatsby_spanish.wav,,,,,,,,,0,0,0,0,0,183,183,83,476.793549467,8.98051075637e-06,477.91774206,1.12420221488,,,,z,1,1.10056638368,2018_Nov_14_1402,59.9906296298,spanish_cond2,001,1024,
images/parkingmeter.jpg,ear,x,sounds/greatgatsby_spanish.wav,,,,,,,,,0,0,0,0,0,184,184,171,479.019629225,8.98051075637e-06,479.8849666,0.865346997045,,,,x,1,0.850469121127,2018_Nov_14_1402,59.9906296298,spanish_cond2,001,1024,
images/puma.jpg,puma,z,sounds/greatgatsby_spanish.wav,,,,,,,,,0,0,0,0,0,185,185,4,480.982957813,8.9806271717e-06,481.718836147,0.735887956223,,,,z,1,0.717057678499,2018_Nov_14_1402,59.9906296298,spanish_cond2,001,1024,
images/toucan.jpg,toucan,z,sounds/greatgatsby_spanish.wav,,,,,,,,,0,0,0,0,0,186,186,81,482.819338384,9.30123496801e-06,483.936178156,1.11684971477,,,,z,1,1.10058274108,2018_Nov_14_1402,59.9906296298,spanish_cond2,001,1024,
images/bowtie.jpg,bowtie,z,sounds/greatgatsby_spanish.wav,,,,,,,,,0,0,0,0,0,187,187,89,485.04655803,9.62195917964e-06,486.103439517,1.05689110863,,,,z,1,1.03386916174,2018_Nov_14_1402,59.9906296298,spanish_cond2,001,1024,
images/lychee02a.jpg,lychee,z,sounds/greatgatsby_spanish.wav,,,,,,,,,0,0,0,0,0,188,188,62,487.227548077,9.94279980659e-06,488.404111999,1.17657418526,,,,z,1,1.16723634326,2018_Nov_14_1402,59.9906296298,spanish_cond2,001,1024,
images/button07.jpg,radish,x,sounds/greatgatsby_spanish.wav,,,,,,,,,0,0,0,0,0,189,189,215,489.51627836,8.9806271717e-06,490.588096737,1.07182896172,,,,x,1,1.05055790022,2018_Nov_14_1402,59.9906296298,spanish_cond2,001,1024,
images/mailbox01.jpg,mail box,z,sounds/greatgatsby_spanish.wav,,,,,,,,,0,0,0,0,0,190,190,73,491.707303845,9.30123496801e-06,492.688688779,0.9813945567,,,,z,1,0.967092718696,2018_Nov_14_1402,59.9906296298,spanish_cond2,001,1024,
images/paperclip04.jpg,eye drops,x,sounds/greatgatsby_spanish.wav,,,,,,,,,0,0,0,0,0,191,191,174,493.79397925,9.62207559496e-06,494.722612145,0.928642516956,,,,x,1,0.917165060178,2018_Nov_14_1402,59.9906296298,spanish_cond2,001,1024,
images/plant01.jpg,plant,z,sounds/greatgatsby_spanish.wav,,,,,,,,,0,0,0,0,0,192,192,47,495.833050072,8.98051075637e-06,496.989957506,1.1569176974,,,,z,1,1.13391403237,2018_Nov_14_1402,59.9906296298,spanish_cond2,001,1024,
images/skateboard.jpg,key,x,sounds/greatgatsby_spanish.wav,,,,,,,,,0,0,0,0,0,193,193,189,498.081634433,9.30135138333e-06,499.624029821,1.54240532988,,,,x,1,1.53399986075,2018_Nov_14_1402,59.9906296298,spanish_cond2,001,1024,
images/teapot.jpg,light switch,x,sounds/greatgatsby_spanish.wav,,,,,,,,,0,0,0,0,0,194,194,197,500.741003338,9.30123496801e-06,502.741625883,2.00063248689,,,,x,1,1.98416248884,2018_Nov_14_1402,59.9906296298,spanish_cond2,001,1024,
images/clothespin02a.jpg,clothes pin,z,sounds/greatgatsby_spanish.wav,,,,,,,,,0,0,0,0,0,195,195,79,503.845418848,8.98051075637e-06,505.092311659,1.24690275453,,,,z,1,1.23394767742,2018_Nov_14_1402,59.9906296298,spanish_cond2,001,1024,
images/lamp04b.jpg,parking meter,x,sounds/greatgatsby_spanish.wav,,,,,,,,,0,0,0,0,0,196,196,209,506.212520098,9.30123496801e-06,507.376286102,1.16377562622,,,,x,1,1.15056524519,2018_Nov_14_1402,59.9906296298,spanish_cond2,001,1024,
images/feather03b.jpg,feather,z,sounds/greatgatsby_spanish.wav,,,,,,,,,0,0,0,0,0,197,197,114,508.475345679,9.30123496801e-06,509.293515309,0.818179573049,,,,z,1,0.800459034159,2018_Nov_14_1402,59.9906296298,spanish_cond2,001,1024,
images/grasshopper.jpg,cauliflower,x,sounds/greatgatsby_spanish.wav,,,,,,,,,0,0,0,0,0,198,198,148,510.386075537,8.9806271717e-06,511.794239045,1.40817280882,,,,x,1,1.38396735443,2018_Nov_14_1402,59.9906296298,spanish_cond2,001,1024,
images/broadsword.jpg,teapot,x,sounds/greatgatsby_spanish.wav,,,,,,,,,0,0,0,0,0,199,199,231,512.885692742,9.62207559496e-06,513.694792663,0.809110185248,,,,x,1,0.800462562242,2018_Nov_14_1402,59.9906296298,spanish_cond2,001,1024,
images/redfox.jpg,red fox,z,sounds/greatgatsby_spanish.wav,,,,,,,,,0,0,0,0,0,200,200,1,514.80613987,9.62207559496e-06,515.561996388,0.755866460619,,,,z,1,0.733772396459,2018_Nov_14_1402,59.9906296298,spanish_cond2,001,1024,
images/cocktailshrimp01.jpg,cocktail shrimp,z,sounds/greatgatsby_spanish.wav,,,,,,,,,0,0,0,0,0,201,201,30,516.675959178,9.62195917964e-06,517.512564904,0.836615989683,,,,z,1,0.817130773794,2018_Nov_14_1402,59.9906296298,spanish_cond2,001,1024,
images/key03b.jpg,cigar,x,sounds/greatgatsby_spanish.wav,,,,,,,,,0,0,0,0,0,202,202,153,518.612782971,9.30135138333e-06,519.463131176,0.850358147407,,,,x,1,0.833805079223,2018_Nov_14_1402,59.9906296298,spanish_cond2,001,1024,
images/bandaid01.jpg,door handle,x,sounds/greatgatsby_spanish.wav,,,,,,,,,0,0,0,0,0,203,203,170,520.569025268,9.62207559496e-06,521.6304291,1.06141473725,,,,x,1,1.05053705256,2018_Nov_14_1402,59.9906296298,spanish_cond2,001,1024,
images/giraffe.jpg,lettuce,x,sounds/greatgatsby_spanish.wav,,,,,,,,,0,0,0,0,0,204,204,195,522.730280568,9.62195917964e-06,523.58113906,0.850875811535,,,,x,1,0.833832341479,2018_Nov_14_1402,59.9906296298,spanish_cond2,001,1024,
images/lightbulb03b.jpg,treadmill,x,sounds/greatgatsby_spanish.wav,,,,,,,,,0,0,0,0,0,205,205,234,524.682949891,8.65978654474e-06,525.581595464,0.898655195488,,,,x,1,0.883838579757,2018_Nov_14_1402,59.9906296298,spanish_cond2,001,1024,
images/lighter02b.jpg,stapler,x,sounds/greatgatsby_spanish.wav,,,,,,,,,0,0,0,0,0,206,206,227,526.682692021,9.62207559496e-06,527.648839216,0.966157138464,,,,x,1,0.950493785553,2018_Nov_14_1402,59.9906296298,spanish_cond2,001,1024,
images/nametag01a.jpg,name tag,z,sounds/greatgatsby_spanish.wav,,,,,,,,,0,0,0,0,0,207,207,108,528.768836291,8.98051075637e-06,529.782797831,1.01397116156,,,,z,1,1.00051990931,2018_Nov_14_1402,59.9906296298,spanish_cond2,001,1024,
images/coffeepot03b.jpg,coffee pot,z,sounds/greatgatsby_spanish.wav,,,,,,,,,0,0,0,0,0,208,208,107,530.902730759,9.30135138333e-06,531.883417777,0.980696640094,,,,x,0,0.967187976581,2018_Nov_14_1402,59.9906296298,spanish_cond2,001,1024,
images/flipflop01b.jpg,flip flop,z,sounds/greatgatsby_spanish.wav,,,,,,,,,0,0,0,0,0,209,209,27,532.999034271,1.28293177113e-05,534.101021826,1.10199749761,,,,z,1,1.08418041782,2018_Nov_14_1402,59.9906296298,spanish_cond2,001,1024,
images/lily.jpg,kiwi,x,sounds/greatgatsby_spanish.wav,,,,,,,,,0,0,0,0,0,210,210,190,535.19888699,8.98051075637e-06,535.951384143,0.752506774734,,,,x,1,0.733898765524,2018_Nov_14_1402,59.9906296298,spanish_cond2,001,1024,
images/snowman.jpg,globe,x,sounds/greatgatsby_spanish.wav,,,,,,,,,0,0,0,0,0,211,211,180,537.061072514,8.9806271717e-06,537.951835415,0.890772843268,,,,x,1,0.867146954755,2018_Nov_14_1402,59.9906296298,spanish_cond2,001,1024,
images/daisy.jpg,daisy,z,sounds/greatgatsby_spanish.wav,,,,,,,,,0,0,0,0,0,212,212,6,539.052370687,9.30123496801e-06,539.769025204,0.716664779582,,,,z,1,0.70043180394,2018_Nov_14_1402,59.9906296298,spanish_cond2,001,1024,
images/mitten01.jpg,mitten,z,sounds/greatgatsby_spanish.wav,,,,,,,,,0,0,0,0,0,213,213,102,540.887889447,9.62195917964e-06,542.619870866,1.73199168267,,,,z,1,1.71740567463,2018_Nov_14_1402,59.9906296298,spanish_cond2,001,1024,
images/barrel01.jpg,barrel,z,sounds/greatgatsby_spanish.wav,,,,,,,,,0,0,0,0,0,214,214,9,543.750028465,3.84879531339e-05,544.720470927,0.970473893685,,,,z,1,0.950500841718,2018_Nov_14_1402,59.9906296298,spanish_cond2,001,1024,
images/spoon02b.jpg,spoon,z,sounds/greatgatsby_spanish.wav,,,,,,,,,0,0,0,0,0,215,215,38,545.81107083,8.9806271717e-06,546.787747715,0.976686185459,,,,z,1,0.967073795386,2018_Nov_14_1402,59.9906296298,spanish_cond2,001,1024,
images/dreamcatcher.jpg,dream catcher,z,sounds/greatgatsby_spanish.wav,,,,,,,,,0,0,0,0,0,216,216,48,547.885269052,9.30123496801e-06,548.721634228,0.836375118583,,,,z,1,0.817127566319,2018_Nov_14_1402,59.9906296298,spanish_cond2,001,1024,
images/butterfly.jpg,butterfly,z,sounds/greatgatsby_spanish.wav,,,,,,,,,0,0,0,0,0,217,217,91,549.827318239,9.62195917964e-06,550.655557626,0.828249329352,,,,z,1,0.817157715326,2018_Nov_14_1402,59.9906296298,spanish_cond2,001,1024,
images/marker01a.jpg,marker,z,sounds/greatgatsby_spanish.wav,,,,,,,,,0,0,0,0,0,218,218,95,551.752293807,9.30123496801e-06,552.506078385,0.753794199903,,,,z,1,0.733782980707,2018_Nov_14_1402,59.9906296298,spanish_cond2,001,1024,
images/gamecontroller01.jpg,game controller,z,sounds/greatgatsby_spanish.wav,,,,,,,,,0,0,0,0,0,219,219,112,553.625164576,9.62195917964e-06,554.323274589,0.698119955021,,,,z,1,0.683775138692,2018_Nov_14_1402,59.9906296298,spanish_cond2,001,1024,
images/parkfountain.jpg,park fountain,z,sounds/greatgatsby_spanish.wav,,,,,,,,,0,0,0,0,0,220,220,93,555.44372037,9.94268339127e-06,556.390778777,0.947068670066,,,,z,1,0.93408600986,2018_Nov_14_1402,59.9906296298,spanish_cond2,001,1024,
images/hairpin.jpg,hair pin,z,sounds/greatgatsby_spanish.wav,,,,,,,,,0,0,0,0,0,221,221,28,557.480388255,9.94279980659e-06,558.224393661,0.744015669799,,,,z,1,0.733739360934,2018_Nov_14_1402,59.9906296298,spanish_cond2,001,1024,
images/charcoalbarbecue.jpg,charcoal barbecue,z,sounds/greatgatsby_spanish.wav,,,,,,,,,0,0,0,0,0,222,222,77,559.341384499,9.62207559496e-06,560.17498527,0.833611356094,,,,z,1,0.817157394602,2018_Nov_14_1402,59.9906296298,spanish_cond2,001,1024,
images/cigar.jpg,crocodile,x,sounds/greatgatsby_spanish.wav,,,,,,,,,0,0,0,0,0,223,223,162,561.2719001,9.30123496801e-06,562.292258995,1.02036915813,,,,x,1,1.00053883262,2018_Nov_14_1402,59.9906296298,spanish_cond2,001,1024,
,,,sounds/greatgatsby_spanish.wav,,,,,,,,,0,0,0,0,,,,,,,,,,,,,,,2018_Nov_14_1402,59.9906296298,spanish_cond2,001,1024,
images/printer03a.jpg,printer,z,sounds/animalfarm_english.wav,,,,,,,,,0,1,1,1,0,0,0,72,583.426225307,1.2187869288e-05,585.699058101,2.27284369909,,,573.2955834,z,1,2.25090422865,2018_Nov_14_1402,59.9906296298,spanish_cond2,001,1024,
images/elbow.jpg,elbow,z,sounds/animalfarm_english.wav,,,,,,,,,0,1,1,1,0,1,1,105,586.808769566,9.30135138333e-06,589.450151402,2.6413920999,,,,z,1,2.61768666946,2018_Nov_14_1402,59.9906296298,spanish_cond2,001,1024,
images/blueberry02.jpg,blueberry,z,sounds/animalfarm_english.wav,,,,,,,,,0,1,1,1,0,2,2,46,590.560714736,8.98051075637e-06,591.250659829,0.689954715548,,,,z,1,0.667105002794,2018_Nov_14_1402,59.9906296298,spanish_cond2,001,1024,
images/grandpiano.jpg,tulip,x,sounds/animalfarm_english.wav,,,,,,,,,0,1,1,1,0,3,3,236,592.362641448,9.62195917964e-06,593.818085919,1.4554544139,,,,x,1,1.43399957218,2018_Nov_14_1402,59.9906296298,spanish_cond2,001,1024,
images/honeycomb.jpg,honey comb,z,sounds/animalfarm_english.wav,,,,,,,,,0,1,1,1,0,4,4,59,594.928972873,9.30135138333e-06,595.668612451,0.73964952142,,,,z,1,0.717117014341,2018_Nov_14_1402,59.9906296298,spanish_cond2,001,1024,
images/knife04.jpg,tooth brush,x,sounds/animalfarm_english.wav,,,,,,,,,0,1,1,1,0,5,5,233,596.764086866,9.30135138333e-06,598.319380561,1.55530331633,,,,z,0,1.53401365236,2018_Nov_14_1402,59.9906296298,spanish_cond2,001,1024,
images/beermug01b.jpg,beer mug,z,sounds/animalfarm_english.wav,,,,,,,,,0,1,1,1,0,6,6,111,599.434123696,8.98051075637e-06,600.52002036,1.08590564458,,,,x,0,1.06721488608,2018_Nov_14_1402,59.9906296298,spanish_cond2,001,1024,
images/apricot.jpg,apricot,z,sounds/animalfarm_english.wav,,,,,,,,,0,1,1,1,0,7,7,32,601.634564962,9.62195917964e-06,602.620641269,0.986086249817,,,,z,1,0.967198240105,2018_Nov_14_1402,59.9906296298,spanish_cond2,001,1024,
images/ruler02b.jpg,watermelon,x,sounds/animalfarm_english.wav,,,,,,,,,0,1,1,1,0,8,8,238,603.720549186,9.30135138333e-06,604.53785476,0.817315516411,,,,x,1,0.800476353732,2018_Nov_14_1402,59.9906296298,spanish_cond2,001,1024,
images/camera01a.jpg,bull,x,sounds/animalfarm_english.wav,,,,,,,,,0,1,1,1,0,9,9,138,605.64646707,8.98051075637e-06,606.455086212,0.808629084611,,,,x,1,0.783804293373,2018_Nov_14_1402,59.9906296298,spanish_cond2,001,1024,
images/eyedrops.jpg,bicycle,x,sounds/animalfarm_english.wav,,,,,,,,,0,1,1,1,0,10,10,131,607.553513622,8.98051075637e-06,608.355643037,0.802139358129,,,,x,1,0.783806217718,2018_Nov_14_1402,59.9906296298,spanish_cond2,001,1024,
images/doorhandle.jpg,doll,x,sounds/animalfarm_english.wav,,,,,,,,,0,1,1,1,0,11,11,168,609.456339639,9.62195917964e-06,610.25619409,0.799865035224,,,,x,1,0.783814556897,2018_Nov_14_1402,59.9906296298,spanish_cond2,001,1024,
images/stapler03a.jpg,candy cane,x,sounds/animalfarm_english.wav,,,,,,,,,0,1,1,1,0,12,12,145,611.365199299,9.30123496801e-06,612.173416241,0.808226563735,,,,x,1,0.783811349538,2018_Nov_14_1402,59.9906296298,spanish_cond2,001,1024,
images/cloud.jpg,ceiling fan,x,sounds/animalfarm_english.wav,,,,,,,,,0,1,1,1,0,13,13,149,613.277816996,8.98051075637e-06,614.390713668,1.11290597275,,,,x,1,1.1005352725,2018_Nov_14_1402,59.9906296298,spanish_cond2,001,1024,
images/blackolive.jpg,tank,x,sounds/animalfarm_english.wav,,,,,,,,,0,1,1,1,0,14,14,229,615.503520213,9.30123496801e-06,616.591356033,1.08784544223,,,,x,1,1.06718954816,2018_Nov_14_1402,59.9906296298,spanish_cond2,001,1024,
images/leaf01a.jpg,leaf,z,sounds/animalfarm_english.wav,,,,,,,,,0,1,1,1,0,15,15,68,617.692240906,8.98051075637e-06,618.441894754,0.749664111645,,,,z,1,0.7337890747,2018_Nov_14_1402,59.9906296298,spanish_cond2,001,1024,
images/bowl02b (1).jpg,bowl,z,sounds/animalfarm_english.wav,,,,,,,,,0,1,1,1,0,16,16,24,619.559324676,9.30123496801e-06,620.825920802,1.26660574868,,,,z,1,1.25059856928,2018_Nov_14_1402,59.9906296298,spanish_cond2,001,1024,
images/toothbrush03a.jpg,parrot,x,sounds/animalfarm_english.wav,,,,,,,,,0,1,1,1,0,17,17,210,621.91623846,8.98051075637e-06,622.943203187,1.0269743487,,,,x,1,1.01717304648,2018_Nov_14_1402,59.9906296298,spanish_cond2,001,1024,
images/8ball.jpg,nail clipper,x,sounds/animalfarm_english.wav,,,,,,,,,0,1,1,1,0,18,18,206,624.058796908,9.30123496801e-06,625.043826982,0.985040657804,,,,x,1,0.967200805899,2018_Nov_14_1402,59.9906296298,spanish_cond2,001,1024,
images/daisy.jpg,daisy,z,sounds/animalfarm_english.wav,,,,,,,,,0,1,1,1,0,19,19,6,626.144135817,8.98051075637e-06,627.011045428,0.866918913089,,,,z,1,0.850485799368,2018_Nov_14_1402,59.9906296298,spanish_cond2,001,1024,
images/bull.jpg,button,x,sounds/animalfarm_english.wav,,,,,,,,,0,1,1,1,0,20,20,141,628.114842884,8.9806271717e-06,629.095003578,0.980170957511,,,,x,1,0.967196636368,2018_Nov_14_1402,59.9906296298,spanish_cond2,001,1024,
images/mattress.jpg,cat,x,sounds/animalfarm_english.wav,,,,,,,,,0,1,1,1,0,21,21,147,630.197784628,9.62195917964e-06,631.445695128,1.24792076333,,,,x,1,1.23395762022,2018_Nov_14_1402,59.9906296298,spanish_cond2,001,1024,
images/lighter02b.jpg,stapler,x,sounds/animalfarm_english.wav,,,,,,,,,0,1,1,1,0,22,22,227,632.545717868,9.62207559496e-06,633.979742136,1.43403421144,,,,x,1,1.41731628613,2018_Nov_14_1402,59.9906296298,spanish_cond2,001,1024,
images/croissant02b.jpg,croissant,z,sounds/animalfarm_english.wav,,,,,,,,,0,1,1,1,0,23,23,39,635.088801229,9.62207559496e-06,635.946996826,0.858205860481,,,,z,1,0.83383266232,2018_Nov_14_1402,59.9906296298,spanish_cond2,001,1024,
images/bottleofredwine02.jpg,pipe,x,sounds/animalfarm_english.wav,,,,,,,,,0,1,1,1,0,24,24,213,637.043585149,8.98051075637e-06,637.880876283,0.83730139758,,,,x,1,0.817150017712,2018_Nov_14_1402,59.9906296298,spanish_cond2,001,1024,
images/dolphin01.jpg,dolphin,z,sounds/animalfarm_english.wav,,,,,,,,,0,1,1,1,0,25,25,99,638.980690225,9.62195917964e-06,639.864782506,0.884101902251,,,,z,1,0.867153369472,2018_Nov_14_1402,59.9906296298,spanish_cond2,001,1024,
images/rhinoceros01.jpg,envelope,x,sounds/animalfarm_english.wav,,,,,,,,,0,1,1,1,0,26,26,173,640.976363848,8.9806271717e-06,641.782008184,0.805653958465,,,,x,1,0.783782483544,2018_Nov_14_1402,59.9906296298,spanish_cond2,001,1024,
images/electricguitar02.jpg,electric guitar,z,sounds/animalfarm_english.wav,,,,,,,,,0,1,1,1,0,27,27,100,642.884152899,8.9806271717e-06,644.132699093,1.24855645769,,,,z,1,1.23392233939,2018_Nov_14_1402,59.9906296298,spanish_cond2,001,1024,
images/aquarium.jpg,computer mouse,x,sounds/animalfarm_english.wav,,,,,,,,,0,1,1,1,0,28,28,159,645.267225085,9.30135138333e-06,646.816812606,1.54959778383,,,,x,1,1.53402519878,2018_Nov_14_1402,59.9906296298,spanish_cond2,001,1024,
images/fork01.jpg,cooking pot,x,sounds/animalfarm_english.wav,,,,,,,,,0,1,1,1,0,29,29,160,647.910189743,9.30123496801e-06,648.767375349,0.857195549179,,,,x,1,0.833820795058,2018_Nov_14_1402,59.9906296298,spanish_cond2,001,1024,
images/corn01.jpg,corn,z,sounds/animalfarm_english.wav,,,,,,,,,0,1,1,1,0,30,30,22,649.866418568,9.62195917964e-06,650.934679367,1.06827106234,,,,z,1,1.0505511649,2018_Nov_14_1402,59.9906296298,spanish_cond2,001,1024,
images/microphone01.jpg,diaper,x,sounds/animalfarm_english.wav,,,,,,,,,0,1,1,1,0,31,31,164,652.033563823,9.62207559496e-06,652.835237797,0.801684236969,,,,x,1,0.783816160518,2018_Nov_14_1402,59.9906296298,spanish_cond2,001,1024,
images/mitten01.jpg,mitten,z,sounds/animalfarm_english.wav,,,,,,,,,0,1,1,1,0,32,32,102,653.95616949,9.62195917964e-06,654.702426768,0.746266899863,,,,z,1,0.73375539761,2018_Nov_14_1402,59.9906296298,spanish_cond2,001,1024,
images/parkingmeter.jpg,ear,x,sounds/animalfarm_english.wav,,,,,,,,,0,1,1,1,0,33,33,171,655.805902206,9.30123496801e-06,657.953366277,2.14747369254,,,,x,1,2.13418184512,2018_Nov_14_1402,59.9906296298,spanish_cond2,001,1024,
images/flower01.jpg,bus,x,sounds/animalfarm_english.wav,,,,,,,,,0,1,1,1,0,34,34,140,659.068192803,1.02635240182e-05,659.90395532,0.835773101426,,,,x,1,0.817158998223,2018_Nov_14_1402,59.9906296298,spanish_cond2,001,1024,
images/lipstick04.jpg,lipstick,z,sounds/animalfarm_english.wav,,,,,,,,,0,1,1,1,0,35,35,56,661.003837579,8.9806271717e-06,661.838103873,0.834275916335,,,,z,1,0.817403397406,2018_Nov_14_1402,59.9906296298,spanish_cond2,001,1024,
images/paperclip04.jpg,eye drops,x,sounds/animalfarm_english.wav,,,,,,,,,0,1,1,1,0,36,36,174,662.943263164,9.30123496801e-06,663.788407785,0.845154883922,,,,x,1,0.833809569478,2018_Nov_14_1402,59.9906296298,spanish_cond2,001,1024,
images/masquerademask02b.jpg,mirror,x,sounds/animalfarm_english.wav,,,,,,,,,0,1,1,1,0,37,37,204,664.893275529,8.98051075637e-06,666.222444241,1.3291786554,,,,x,1,1.31728392409,2018_Nov_14_1402,59.9906296298,spanish_cond2,001,1024,
images/screw03c.jpg,screw,z,sounds/animalfarm_english.wav,,,,,,,,,0,1,1,1,0,38,38,84,667.316769788,9.30135138333e-06,668.28970852,0.972948675277,,,,z,1,0.950504049077,2018_Nov_14_1402,59.9906296298,spanish_cond2,001,1024,
images/lettuce.jpg,mushroom,x,sounds/animalfarm_english.wav,,,,,,,,,0,1,1,1,0,39,39,205,669.414104459,9.30123496801e-06,670.323649847,0.909555652295,,,,x,1,0.900517375674,2018_Nov_14_1402,59.9906296298,spanish_cond2,001,1024,
images/notebook02b.jpg,notebook,z,sounds/animalfarm_english.wav,,,,,,,,,0,1,1,1,0,40,40,7,671.43104786,9.30135138333e-06,672.424256002,0.993218085147,,,,z,1,0.983868055278,2018_Nov_14_1402,59.9906296298,spanish_cond2,001,1024,
images/computerkeyboard01a.jpg,computer keyboard,z,sounds/animalfarm_english.wav,,,,,,,,,0,1,1,1,0,41,41,61,673.541631399,9.62195917964e-06,674.858291817,1.31667068112,,,,z,1,1.3005538109,2018_Nov_14_1402,59.9906296298,spanish_cond2,001,1024,
images/donut.jpg,rhinoceros,x,sounds/animalfarm_english.wav,,,,,,,,,0,1,1,1,0,42,42,216,675.984572707,9.30135138333e-06,676.87553767,0.890974584734,,,,x,1,0.867155614542,2018_Nov_14_1402,59.9906296298,spanish_cond2,001,1024,
images/orange.jpg,bat,x,sounds/animalfarm_english.wav,,,,,,,,,0,1,1,1,0,43,43,128,678.00121526,9.30123496801e-06,678.776099628,0.774893989437,,,,x,1,0.750440928736,2018_Nov_14_1402,59.9906296298,spanish_cond2,001,1024,
images/nailpolish02b.jpg,nail polish,z,sounds/animalfarm_english.wav,,,,,,,,,0,1,1,1,0,44,44,94,679.885747266,8.9806271717e-06,680.543275801,0.657538156956,,,,z,1,0.63376376871,2018_Nov_14_1402,59.9906296298,spanish_cond2,001,1024,
images/plant01.jpg,plant,z,sounds/animalfarm_english.wav,,,,,,,,,0,1,1,1,0,45,45,47,681.655809402,8.98051075637e-06,682.443825892,0.788026432274,,,,z,1,0.767129987944,2018_Nov_14_1402,59.9906296298,spanish_cond2,001,1024,
images/ant.jpg,ant,z,sounds/animalfarm_english.wav,,,,,,,,,0,1,1,1,0,46,46,98,683.538563902,9.30123496801e-06,684.427740453,0.889187135617,,,,z,1,0.867168764584,2018_Nov_14_1402,59.9906296298,spanish_cond2,001,1024,
images/corkscrew02a.jpg,masquerade mask,x,sounds/animalfarm_english.wav,,,,,,,,,0,1,1,1,0,47,47,201,685.532517109,9.94268339127e-06,686.528357192,0.995850026142,,,,x,1,0.983872866258,2018_Nov_14_1402,59.9906296298,spanish_cond2,001,1024,
images/tent.jpg,tent,z,sounds/animalfarm_english.wav,,,,,,,,,0,1,1,1,0,48,48,11,687.655618245,8.9806271717e-06,688.495606108,0.839997485513,,,,z,1,0.817157394718,2018_Nov_14_1402,59.9906296298,spanish_cond2,001,1024,
images/icecube02 (2).jpg,aloe,x,sounds/animalfarm_english.wav,,,,,,,,,0,1,1,1,0,49,49,122,689.607240051,8.98051075637e-06,690.612865079,1.00563465024,,,,x,1,0.983860678389,2018_Nov_14_1402,59.9906296298,spanish_cond2,001,1024,
images/battery03b.jpg,battery,z,sounds/animalfarm_english.wav,,,,,,,,,0,1,1,1,0,50,50,34,691.722608938,9.30123496801e-06,692.430053906,0.707454910385,,,,z,1,0.683763592271,2018_Nov_14_1402,59.9906296298,spanish_cond2,001,1024,
images/cake.jpg,cake,z,sounds/animalfarm_english.wav,,,,,,,,,0,1,1,1,0,51,51,23,693.544330053,8.98051075637e-06,694.397295124,0.852974693174,,,,z,1,0.833816625644,2018_Nov_14_1402,59.9906296298,spanish_cond2,001,1024,
images/scissors04a.jpg,leek,x,sounds/animalfarm_english.wav,,,,,,,,,0,1,1,1,0,52,52,194,695.49164665,9.30123496801e-06,696.681300678,1.18966461194,,,,z,0,1.16724917269,2018_Nov_14_1402,59.9906296298,spanish_cond2,001,1024,
images/raisin.jpg,ruler,x,sounds/animalfarm_english.wav,,,,,,,,,0,1,1,1,0,53,53,218,697.786969294,8.98051075637e-06,698.831912429,1.04495307826,,,,x,1,1.03384286165,2018_Nov_14_1402,59.9906296298,spanish_cond2,001,1024,
images/50dollarbill.jpg,cherry,x,sounds/animalfarm_english.wav,,,,,,,,,0,1,1,1,0,54,54,151,699.951639447,9.30135138333e-06,700.949197701,0.99756819685,,,,x,1,0.983808078105,2018_Nov_14_1402,59.9906296298,spanish_cond2,001,1024,
images/belt02a.jpg,snowman,x,sounds/animalfarm_english.wav,,,,,,,,,0,1,1,1,0,55,55,224,702.053131468,9.30123496801e-06,702.766406413,0.713284566766,,,,x,1,0.700450085569,2018_Nov_14_1402,59.9906296298,spanish_cond2,001,1024,
images/graduationcap.jpg,graduation cap,z,sounds/animalfarm_english.wav,,,,,,,,,0,1,1,1,0,56,56,35,703.868861277,9.30123496801e-06,704.633612703,0.764761048486,,,,z,1,0.750455682399,2018_Nov_14_1402,59.9906296298,spanish_cond2,001,1024,
images/puma.jpg,puma,z,sounds/animalfarm_english.wav,,,,,,,,,0,1,1,1,0,57,57,4,705.73228355,9.30123496801e-06,706.634196759,0.901923793019,,,,z,1,0.883845635923,2018_Nov_14_1402,59.9906296298,spanish_cond2,001,1024,
images/tulip02.jpg,sport shorts,x,sounds/animalfarm_english.wav,,,,,,,,,0,1,1,1,0,58,58,225,707.728753555,9.62195917964e-06,709.051582324,1.32283935312,,,,x,1,1.30064457865,2018_Nov_14_1402,59.9906296298,spanish_cond2,001,1024,
images/showerhead01.jpg,skateboard,x,sounds/animalfarm_english.wav,,,,,,,,,0,1,1,1,0,59,59,223,710.16000925,8.98051075637e-06,711.13550391,0.975506206043,,,,x,1,0.950529066264,2018_Nov_14_1402,59.9906296298,spanish_cond2,001,1024,
images/chameleon.jpg,50 dollar bill,x,sounds/animalfarm_english.wav,,,,,,,,,0,1,1,1,0,60,60,120,712.246462387,8.98051075637e-06,713.852950317,1.60649755236,,,,x,1,1.58403528575,2018_Nov_14_1402,59.9906296298,spanish_cond2,001,1024,
images/triangleruler02.jpg,bottle of red wine,x,sounds/animalfarm_english.wav,,,,,,,,,0,1,1,1,0,61,61,134,714.964044144,9.62195917964e-06,715.937013988,0.972979465616,,,,x,1,0.950638436596,2018_Nov_14_1402,59.9906296298,spanish_cond2,001,1024,
images/nametag01a.jpg,name tag,z,sounds/animalfarm_english.wav,,,,,,,,,0,1,1,1,0,62,62,108,717.056622975,8.9806271717e-06,717.687400071,0.630786397494,,,,z,1,0.617085614474,2018_Nov_14_1402,59.9906296298,spanish_cond2,001,1024,
images/saltshaker03c.jpg,salt shaker,z,sounds/animalfarm_english.wav,,,,,,,,,0,1,1,1,0,63,63,63,718.799884279,9.62195917964e-06,719.471262418,0.671388401766,,,,z,1,0.65043839498,2018_Nov_14_1402,59.9906296298,spanish_cond2,001,1024,
images/cigar.jpg,crocodile,x,sounds/animalfarm_english.wav,,,,,,,,,0,1,1,1,0,64,64,162,720.570064124,9.30135138333e-06,721.271792975,0.701740076765,,,,x,1,0.683789571747,2018_Nov_14_1402,59.9906296298,spanish_cond2,001,1024,
images/diploma01.jpg,glasses,x,sounds/animalfarm_english.wav,,,,,,,,,0,1,1,1,0,65,65,179,722.404010326,8.9806271717e-06,723.155651761,0.751651377883,,,,x,1,0.733784905053,2018_Nov_14_1402,59.9906296298,spanish_cond2,001,1024,
images/ceilingfan02.jpg,paper clip,x,sounds/animalfarm_english.wav,,,,,,,,,0,1,1,1,0,66,66,208,724.254651682,9.30123496801e-06,725.356313371,1.10167259432,,,,z,0,1.08389945515,2018_Nov_14_1402,59.9906296298,spanish_cond2,001,1024,
images/calculator02b.jpg,dice,x,sounds/animalfarm_english.wav,,,,,,,,,0,1,1,1,0,67,67,165,726.458652129,9.30123496801e-06,727.406886346,0.948243838386,,,,x,1,0.933843214414,2018_Nov_14_1402,59.9906296298,spanish_cond2,001,1024,
images/globe.jpg,cloud,x,sounds/animalfarm_english.wav,,,,,,,,,0,1,1,1,0,68,68,154,728.535801101,9.62207559496e-06,729.274110597,0.738320080098,,,,x,1,0.717120863032,2018_Nov_14_1402,59.9906296298,spanish_cond2,001,1024,
images/lychee02a.jpg,lychee,z,sounds/animalfarm_english.wav,,,,,,,,,0,1,1,1,0,69,69,62,730.398951714,9.30123496801e-06,732.124923545,1.72598177393,,,,x,0,1.71738386468,2018_Nov_14_1402,59.9906296298,spanish_cond2,001,1024,
images/charcoalbarbecue.jpg,charcoal barbecue,z,sounds/animalfarm_english.wav,,,,,,,,,0,1,1,1,0,70,70,77,733.245827976,1.18671450764e-05,733.958862691,0.713046582416,,,,z,1,0.700457783299,2018_Nov_14_1402,59.9906296298,spanish_cond2,001,1024,
images/lamp04b.jpg,parking meter,x,sounds/animalfarm_english.wav,,,,,,,,,0,1,1,1,0,71,71,209,735.079186594,9.30123496801e-06,735.976056585,0.89687993424,,,,x,1,0.883833127329,2018_Nov_14_1402,59.9906296298,spanish_cond2,001,1024,
images/paintbrush03a.jpg,paint brush,z,sounds/animalfarm_english.wav,,,,,,,,,0,1,1,1,0,72,72,0,737.076866727,8.9806271717e-06,738.04331028,0.966453496367,,,,z,1,0.95051014307,2018_Nov_14_1402,59.9906296298,spanish_cond2,001,1024,
images/medal01.jpg,medal,z,sounds/animalfarm_english.wav,,,,,,,,,0,1,1,1,0,73,73,115,739.144348142,9.30123496801e-06,739.86051803,0.716180471703,,,,z,1,0.700457462575,2018_Nov_14_1402,59.9906296298,spanish_cond2,001,1024,
images/egg01b (1).jpg,egg,z,sounds/animalfarm_english.wav,,,,,,,,,0,1,1,1,0,74,74,19,740.973974061,8.65978654474e-06,741.727718547,0.753754108213,,,,z,1,0.733784584329,2018_Nov_14_1402,59.9906296298,spanish_cond2,001,1024,
images/watermelon01.jpg,orange,x,sounds/animalfarm_english.wav,,,,,,,,,0,1,1,1,0,75,75,207,742.857980064,9.62207559496e-06,743.895013264,1.03704282211,,,,x,1,1.01720415754,2018_Nov_14_1402,59.9906296298,spanish_cond2,001,1024,
images/beachumbrella01.jpg,beach umbrella,z,sounds/animalfarm_english.wav,,,,,,,,,0,1,1,1,0,76,76,92,745.001148868,9.30123496801e-06,745.678868554,0.67772930779,,,,z,1,0.667101795436,2018_Nov_14_1402,59.9906296298,spanish_cond2,001,1024,
images/clothespin02a.jpg,clothes pin,z,sounds/animalfarm_english.wav,,,,,,,,,0,1,1,1,0,77,77,79,746.784715819,9.30135138333e-06,747.796143882,1.01143768581,,,,z,1,1.00052472041,2018_Nov_14_1402,59.9906296298,spanish_cond2,001,1024,
images/volleyball.jpg,volley ball,z,sounds/animalfarm_english.wav,,,,,,,,,0,1,1,1,0,78,78,2,748.929904604,9.62195917964e-06,749.546499175,0.616604834562,,,,z,1,0.600232981029,2018_Nov_14_1402,59.9906296298,spanish_cond2,001,1024,
images/wallet01.jpg,lamp,x,sounds/animalfarm_english.wav,,,,,,,,,0,1,1,1,0,79,79,193,750.652264653,8.98051075637e-06,751.297170711,0.644916001358,,,,x,1,0.633740355144,2018_Nov_14_1402,59.9906296298,spanish_cond2,001,1024,
images/thumbtack02a.jpg,thumb tack,z,sounds/animalfarm_english.wav,,,,,,,,,0,1,1,1,0,80,80,60,752.408877461,9.62195917964e-06,752.914321435,0.505454879021,,,,z,1,0.483736714814,2018_Nov_14_1402,59.9906296298,spanish_cond2,001,1024,
images/backpack01b.jpg,swallow,x,sounds/animalfarm_english.wav,,,,,,,,,0,1,1,1,0,81,81,228,754.044516239,9.30123496801e-06,754.781521311,0.737015335239,,,,x,1,0.717113165534,2018_Nov_14_1402,59.9906296298,spanish_cond2,001,1024,
images/butterfly.jpg,butterfly,z,sounds/animalfarm_english.wav,,,,,,,,,0,1,1,1,0,82,82,91,755.889423516,8.98051075637e-06,756.598711099,0.709297204972,,,,z,1,0.700452010031,2018_Nov_14_1402,59.9906296298,spanish_cond2,001,1024,
images/lock02a.jpg,lock,z,sounds/animalfarm_english.wav,,,,,,,,,0,1,1,1,0,83,83,65,757.71000314,8.98051075637e-06,758.482600676,0.772607157938,,,,z,1,0.750476850895,2018_Nov_14_1402,59.9906296298,spanish_cond2,001,1024,
images/cauliflower01.jpg,glue stick,x,sounds/animalfarm_english.wav,,,,,,,,,0,1,1,1,0,84,84,181,759.599275591,8.98051075637e-06,760.46634589,0.867080883589,,,,x,1,0.850326394662,2018_Nov_14_1402,59.9906296298,spanish_cond2,001,1024,
images/broadsword.jpg,teapot,x,sounds/animalfarm_english.wav,,,,,,,,,0,1,1,1,0,85,85,231,761.559586074,9.62195917964e-06,762.533773744,0.974197933101,,,,x,1,0.95052393456,2018_Nov_14_1402,59.9906296298,spanish_cond2,001,1024,
images/hairband.jpg,hairband,z,sounds/animalfarm_english.wav,,,,,,,,,0,1,1,1,0,86,86,66,763.643652952,9.30123496801e-06,765.634881526,1.99123851652,,,,z,1,1.96769922611,2018_Nov_14_1402,59.9906296298,spanish_cond2,001,1024,
images/doll.jpg,carrot,x,sounds/animalfarm_english.wav,,,,,,,,,0,1,1,1,0,87,87,146,766.746763716,8.9806271717e-06,767.485750923,0.739002601476,,,,x,1,0.717645583441,2018_Nov_14_1402,59.9906296298,spanish_cond2,001,1024,
images/atm.jpg,atm,z,sounds/animalfarm_english.wav,,,,,,,,,0,1,1,1,0,88,88,96,768.622522693,9.30123496801e-06,769.369082422,0.746569993207,,,,z,1,0.733772717183,2018_Nov_14_1402,59.9906296298,spanish_cond2,001,1024,
images/gluestick.jpg,squirrel,x,sounds/animalfarm_english.wav,,,,,,,,,0,1,1,1,0,89,89,226,770.47778518,9.30135138333e-06,771.453020366,0.975245128851,,,,x,1,0.950511746691,2018_Nov_14_1402,59.9906296298,spanish_cond2,001,1024,
images/cupcake.jpg,scissors,x,sounds/animalfarm_english.wav,,,,,,,,,0,1,1,1,0,90,90,219,772.573208598,9.30123496801e-06,773.620332723,1.04713438835,,,,x,1,1.03388263274,2018_Nov_14_1402,59.9906296298,spanish_cond2,001,1024,
images/mailbox01.jpg,mail box,z,sounds/animalfarm_english.wav,,,,,,,,,0,1,1,1,0,91,91,73,774.740516785,9.62195917964e-06,776.237745165,1.49723832216,,,,z,1,1.48399843357,2018_Nov_14_1402,59.9906296298,spanish_cond2,001,1024,
images/table02.jpg,table,z,sounds/animalfarm_english.wav,,,,,,,,,0,1,1,1,0,92,92,49,777.352882803,9.30135138333e-06,778.3216969,0.968824039446,,,,x,0,0.950524255284,2018_Nov_14_1402,59.9906296298,spanish_cond2,001,1024,
images/shotglass.jpg,shot glass,z,sounds/animalfarm_english.wav,,,,,,,,,0,1,1,1,0,93,93,86,779.431363782,8.98051075637e-06,780.188903832,0.757549671223,,,,z,1,0.733796772198,2018_Nov_14_1402,59.9906296298,spanish_cond2,001,1024,
images/dice05a.jpg,band aid,x,sounds/animalfarm_english.wav,,,,,,,,,0,1,1,1,0,94,94,126,781.30230213,9.30123496801e-06,782.606283623,1.30399111437,,,,x,1,1.283971556,2018_Nov_14_1402,59.9906296298,spanish_cond2,001,1024,
images/lollipop03b.jpg,lollipop,z,sounds/animalfarm_english.wav,,,,,,,,,0,1,1,1,0,95,95,42,783.699511619,8.98051075637e-06,784.990286899,1.29078522348,,,,x,0,1.2672751199,2018_Nov_14_1402,59.9906296298,spanish_cond2,001,1024,
images/ladder.jpg,ladder,z,sounds/animalfarm_english.wav,,,,,,,,,0,1,1,1,0,96,96,113,786.082902615,8.98051075637e-06,786.8241449,0.741251907195,,,,z,1,0.717111882521,2018_Nov_14_1402,59.9906296298,spanish_cond2,001,1024,
images/licenseplate.jpg,license plate,z,sounds/animalfarm_english.wav,,,,,,,,,0,1,1,1,0,97,97,40,787.941738396,8.98051075637e-06,788.624682193,0.682953418815,,,,z,1,0.667103399057,2018_Nov_14_1402,59.9906296298,spanish_cond2,001,1024,
images/computermouse02a.jpg,world map,x,sounds/animalfarm_english.wav,,,,,,,,,0,1,1,1,0,98,98,239,789.726660767,9.30135138333e-06,790.80864448,1.0819936553,,,,x,1,1.06721648981,2018_Nov_14_1402,59.9906296298,spanish_cond2,001,1024,
images/floorlamp.jpg,floor lamp,z,sounds/animalfarm_english.wav,,,,,,,,,0,1,1,1,0,99,99,26,791.901404204,8.98051075637e-06,793.676155147,1.77476088493,,,,z,1,1.75071900478,2018_Nov_14_1402,59.9906296298,spanish_cond2,001,1024,
images/fireextinguisher02.jpg,fire extinguisher,z,sounds/animalfarm_english.wav,,,,,,,,,0,1,1,1,0,100,100,175,794.787587027,9.30123496801e-06,795.743406276,0.955829191254,,,,x,0,0.933843535138,2018_Nov_14_1402,59.9906296298,spanish_cond2,001,1024,
images/cockroach02.jpg,belt,x,sounds/animalfarm_english.wav,,,,,,,,,0,1,1,1,0,101,101,129,796.842871901,9.30135138333e-06,797.510590468,0.667728188448,,,,x,1,0.650434866897,2018_Nov_14_1402,59.9906296298,spanish_cond2,001,1024,
images/bullet (2).jpg,rubber glove,x,sounds/animalfarm_english.wav,,,,,,,,,0,1,1,1,0,102,102,217,798.615625634,9.30123496801e-06,799.52784049,0.912224477623,,,,x,1,0.900500055985,2018_Nov_14_1402,59.9906296298,spanish_cond2,001,1024,
images/ear.jpg,bullet,x,sounds/animalfarm_english.wav,,,,,,,,,0,1,1,1,0,103,103,139,800.631732241,9.62207559496e-06,801.411760216,0.780038237921,,,,x,1,0.767091499874,2018_Nov_14_1402,59.9906296298,spanish_cond2,001,1024,
images/grasshopper.jpg,cauliflower,x,sounds/animalfarm_english.wav,,,,,,,,,0,1,1,1,0,104,104,148,802.50560819,8.98051075637e-06,803.395638855,0.890040608007,,,,x,1,0.867163312156,2018_Nov_14_1402,59.9906296298,spanish_cond2,001,1024,
images/lantern03.jpg,lantern,z,sounds/animalfarm_english.wav,,,,,,,,,0,1,1,1,0,105,105,5,804.503060922,9.30123496801e-06,805.346200957,0.843150298111,,,,z,1,0.833811814548,2018_Nov_14_1402,59.9906296298,spanish_cond2,001,1024,
images/cookingpot.jpg,grasshopper,x,sounds/animalfarm_english.wav,,,,,,,,,0,1,1,1,0,106,106,183,806.460828949,9.62195917964e-06,807.196740319,0.735920991749,,,,x,1,0.717116372776,2018_Nov_14_1402,59.9906296298,spanish_cond2,001,1024,
images/razor04a.jpg,razor,z,sounds/animalfarm_english.wav,,,,,,,,,0,1,1,1,0,107,107,36,808.297119073,8.98051075637e-06,809.530761733,1.2336526023,,,,x,0,1.21727080608,2018_Nov_14_1402,59.9906296298,spanish_cond2,001,1024,
images/highheelshoe02a.jpg,high heel shoe,z,sounds/animalfarm_english.wav,,,,,,,,,0,1,1,1,0,108,108,75,810.637437453,9.62195917964e-06,811.214571511,0.57714432152,,,,z,1,0.567074244493,2018_Nov_14_1402,59.9906296298,spanish_cond2,001,1024,
images/giraffe.jpg,lettuce,x,sounds/animalfarm_english.wav,,,,,,,,,0,1,1,1,0,109,109,195,812.316277141,9.30123496801e-06,813.015095975,0.6988287766,,,,x,1,0.68377193145,2018_Nov_14_1402,59.9906296298,spanish_cond2,001,1024,
images/mirror02.jpg,8 ball,x,sounds/animalfarm_english.wav,,,,,,,,,0,1,1,1,0,110,110,121,814.117433771,9.62207559496e-06,815.082377253,0.964953745366,,,,x,1,0.950530028553,2018_Nov_14_1402,59.9906296298,spanish_cond2,001,1024,
images/sportshorts02.jpg,tape,x,sounds/animalfarm_english.wav,,,,,,,,,0,1,1,1,0,111,111,230,816.1906034,9.30123496801e-06,817.066275136,0.875681679463,,,,x,1,0.867160746246,2018_Nov_14_1402,59.9906296298,spanish_cond2,001,1024,
images/banjo.jpg,knife,x,sounds/animalfarm_english.wav,,,,,,,,,0,1,1,1,0,112,112,191,818.16330062,9.30135138333e-06,818.966829075,0.803538078093,,,,x,1,0.783804614097,2018_Nov_14_1402,59.9906296298,spanish_cond2,001,1024,
images/acousticguitar02.jpg,acoustic guitar,z,sounds/animalfarm_english.wav,,,,,,,,,0,1,1,1,0,113,113,97,820.079899264,9.30123496801e-06,820.717334792,0.63744547125,,,,z,1,0.617085935082,2018_Nov_14_1402,59.9906296298,spanish_cond2,001,1024,
images/bench02.jpg,electric toothbrush,x,sounds/animalfarm_english.wav,,,,,,,,,0,1,1,1,0,114,114,172,821.826693771,9.30135138333e-06,822.934852564,1.10816873552,,,,x,1,1.08409317839,2018_Nov_14_1402,59.9906296298,spanish_cond2,001,1024,
images/bracelet02a.jpg,chess knight,x,sounds/animalfarm_english.wav,,,,,,,,,0,1,1,1,0,115,115,152,824.044360683,8.9806271717e-06,824.901881135,0.857530074427,,,,x,1,0.833818229265,2018_Nov_14_1402,59.9906296298,spanish_cond2,001,1024,
images/skateboard.jpg,key,x,sounds/animalfarm_english.wav,,,,,,,,,0,1,1,1,0,116,116,189,825.993678338,9.94268339127e-06,826.835799402,0.842131647747,,,,x,1,0.817163809319,2018_Nov_14_1402,59.9906296298,spanish_cond2,001,1024,
images/binder03b.jpg,dj mixer,x,sounds/animalfarm_english.wav,,,,,,,,,0,1,1,1,0,117,117,167,827.94958643,9.30123496801e-06,828.936395934,0.986820088583,,,,x,1,0.967193429125,2018_Nov_14_1402,59.9906296298,spanish_cond2,001,1024,
images/fryingpan01.jpg,frying pan,z,sounds/animalfarm_english.wav,,,,,,,,,0,1,1,1,0,118,118,45,830.037753889,8.98051075637e-06,830.886964451,0.849220504751,,,,z,1,0.833826889051,2018_Nov_14_1402,59.9906296298,spanish_cond2,001,1024,
images/candy.jpg,candy,z,sounds/animalfarm_english.wav,,,,,,,,,0,1,1,1,0,119,119,31,831.989929602,9.30123496801e-06,832.687484424,0.69756476488,,,,z,1,0.683763912995,2018_Nov_14_1402,59.9906296298,spanish_cond2,001,1024,
images/flamingo.jpg,flamingo,z,sounds/animalfarm_english.wav,,,,,,,,,0,1,1,1,0,120,120,52,833.786463176,9.30123496801e-06,834.721411318,0.934958726401,,,,z,1,0.917153193033,2018_Nov_14_1402,59.9906296298,spanish_cond2,001,1024,
images/comb02a.jpg,diploma,x,sounds/animalfarm_english.wav,,,,,,,,,0,1,1,1,0,121,121,166,835.826667471,8.98051075637e-06,836.671971175,0.845313005615,,,,x,1,0.833819191437,2018_Nov_14_1402,59.9906296298,spanish_cond2,001,1024,
images/treadmill.jpg,lily,x,sounds/animalfarm_english.wav,,,,,,,,,0,1,1,1,0,122,122,199,837.778263618,9.62207559496e-06,838.872609692,1.0943563371,,,,x,1,1.08389047452,2018_Nov_14_1402,59.9906296298,spanish_cond2,001,1024,
images/cocktailshrimp01.jpg,cocktail shrimp,z,sounds/animalfarm_english.wav,,,,,,,,,0,1,1,1,0,123,123,30,839.988277182,9.62207559496e-06,841.039912427,1.05164550839,,,,z,1,1.03388038743,2018_Nov_14_1402,59.9906296298,spanish_cond2,001,1024,
images/safe.jpg,safe,z,sounds/animalfarm_english.wav,,,,,,,,,0,1,1,1,0,124,124,78,842.15111819,9.30123496801e-06,842.907112944,0.756005338277,,,,z,1,0.733782018535,2018_Nov_14_1402,59.9906296298,spanish_cond2,001,1024,
images/hanger02a.jpg,hanger,z,sounds/animalfarm_english.wav,,,,,,,,,0,1,1,1,0,125,125,88,844.001532466,9.62207559496e-06,844.991069811,0.989547929028,,,,z,1,0.967204013257,2018_Nov_14_1402,59.9906296298,spanish_cond2,001,1024,
images/lion.jpg,lion,z,sounds/animalfarm_english.wav,,,,,,,,,0,1,1,1,0,126,126,44,846.104081625,9.30135138333e-06,847.058324147,0.954252785072,,,,x,0,0.933847704669,2018_Nov_14_1402,59.9906296298,spanish_cond2,001,1024,
images/aloe02.jpg,broad sword,x,sounds/animalfarm_english.wav,,,,,,,,,0,1,1,1,0,127,127,137,848.179052174,9.30135138333e-06,849.075574811,0.89653225895,,,,x,1,0.883830240811,2018_Nov_14_1402,59.9906296298,spanish_cond2,001,1024,
images/teapot.jpg,light switch,x,sounds/animalfarm_english.wav,,,,,,,,,0,1,1,1,0,128,128,197,850.193351125,9.62195917964e-06,851.176195719,0.982854536618,,,,x,1,0.967202409636,2018_Nov_14_1402,59.9906296298,spanish_cond2,001,1024,
images/mushroom01.jpg,shower head,x,sounds/animalfarm_english.wav,,,,,,,,,0,1,1,1,0,129,129,222,852.293483236,9.30135138333e-06,853.260114739,0.966641125618,,,,x,1,0.950513671152,2018_Nov_14_1402,59.9906296298,spanish_cond2,001,1024,
images/puzzle.jpg,puzzle,z,sounds/animalfarm_english.wav,,,,,,,,,0,1,1,1,0,130,130,57,854.380973305,9.62195917964e-06,855.227354675,0.846391312429,,,,z,1,0.833798343781,2018_Nov_14_1402,59.9906296298,spanish_cond2,001,1024,
images/tank.jpg,wallet,x,sounds/animalfarm_english.wav,,,,,,,,,0,1,1,1,0,131,131,237,856.332558868,9.30123496801e-06,857.127914387,0.795365782338,,,,x,1,0.783714487916,2018_Nov_14_1402,59.9906296298,spanish_cond2,001,1024,
images/swallow.jpg,mattress,x,sounds/animalfarm_english.wav,,,,,,,,,0,1,1,1,0,132,132,202,858.229841644,9.30123496801e-06,859.161853469,0.9320217676,,,,x,1,0.917173078516,2018_Nov_14_1402,59.9906296298,spanish_cond2,001,1024,
images/axe01.jpg,axe,z,sounds/animalfarm_english.wav,,,,,,,,,0,1,1,1,0,133,133,104,860.264270166,9.30135138333e-06,861.062397145,0.7981362805,,,,x,0,0.783813274,2018_Nov_14_1402,59.9906296298,spanish_cond2,001,1024,
images/candle08a.jpg,screw driver,x,sounds/animalfarm_english.wav,,,,,,,,,0,1,1,1,0,134,134,221,862.177244519,9.30135138333e-06,863.129668159,0.952433583327,,,,x,1,0.933849949855,2018_Nov_14_1402,59.9906296298,spanish_cond2,001,1024,
images/bowtie.jpg,bowtie,z,sounds/animalfarm_english.wav,,,,,,,,,0,1,1,1,0,135,135,89,864.240954747,9.30123496801e-06,866.330591808,2.08964700368,,,,z,1,2.06750450865,2018_Nov_14_1402,59.9906296298,spanish_cond2,001,1024,
images/coffeepot03b.jpg,coffee pot,z,sounds/animalfarm_english.wav,,,,,,,,,0,1,1,1,0,136,136,107,867.453160206,9.30123496801e-06,869.764928151,2.31177756726,,,,z,1,2.3008963546,2018_Nov_14_1402,59.9906296298,spanish_cond2,001,1024,
images/gamecontroller01.jpg,game controller,z,sounds/animalfarm_english.wav,,,,,,,,,0,1,1,1,0,137,137,112,870.886017645,9.30123496801e-06,871.982230389,1.09622236597,,,,z,1,1.0838952855,2018_Nov_14_1402,59.9906296298,spanish_cond2,001,1024,
images/parkbench03.jpg,park bench,z,sounds/animalfarm_english.wav,,,,,,,,,0,1,1,1,0,138,138,71,873.088259189,8.9806271717e-06,874.182866019,1.09461677296,,,,z,1,1.08388790872,2018_Nov_14_1402,59.9906296298,spanish_cond2,001,1024,
images/dreamcatcher.jpg,dream catcher,z,sounds/animalfarm_english.wav,,,,,,,,,0,1,1,1,0,139,139,48,875.282312721,9.94268339127e-06,875.966723233,0.684420455014,,,,z,1,0.667105002794,2018_Nov_14_1402,59.9906296298,spanish_cond2,001,1024,
images/bed.jpg,bed,z,sounds/animalfarm_english.wav,,,,,,,,,0,1,1,1,0,140,140,103,877.087085624,8.65978654474e-06,878.55080695,1.46373126877,,,,z,1,1.45066553855,2018_Nov_14_1402,59.9906296298,spanish_cond2,001,1024,
images/lightbulb03b.jpg,treadmill,x,sounds/animalfarm_english.wav,,,,,,,,,0,1,1,1,0,141,141,234,879.653739386,9.30123496801e-06,880.551383629,0.897653864813,,,,x,1,0.88383088226,2018_Nov_14_1402,59.9906296298,spanish_cond2,001,1024,
images/pictureframe04.jpg,picture frame,z,sounds/animalfarm_english.wav,,,,,,,,,0,1,1,1,0,142,142,41,881.674260572,9.30123496801e-06,882.53531102,0.861060069874,,,,z,1,0.8505063263,2018_Nov_14_1402,59.9906296298,spanish_cond2,001,1024,
images/pen03c.jpg,pepper,x,sounds/animalfarm_english.wav,,,,,,,,,0,1,1,1,0,143,143,211,883.629743692,9.30123496801e-06,884.585889768,0.956155698281,,,,x,1,0.933841610793,2018_Nov_14_1402,59.9906296298,spanish_cond2,001,1024,
images/crocodile.jpg,triangle ruler,x,sounds/animalfarm_english.wav,,,,,,,,,0,1,1,1,0,144,144,235,885.684156812,9.30123496801e-06,886.436447091,0.752300222171,,,,x,1,0.733801262453,2018_Nov_14_1402,59.9906296298,spanish_cond2,001,1024,
images/gps.jpg,gps,z,sounds/animalfarm_english.wav,,,,,,,,,0,1,1,1,0,145,145,21,887.555902768,9.30123496801e-06,888.487047328,0.931154824328,,,,z,1,0.917193926172,2018_Nov_14_1402,59.9906296298,spanish_cond2,001,1024,
images/tissuebox03.jpg,tissue box,z,sounds/animalfarm_english.wav,,,,,,,,,0,1,1,1,0,146,146,58,889.613511678,8.9806271717e-06,890.22085693,0.607355515123,,,,z,1,0.583734116866,2018_Nov_14_1402,59.9906296298,spanish_cond2,001,1024,
images/key03b.jpg,cigar,x,sounds/animalfarm_english.wav,,,,,,,,,0,1,1,1,0,147,147,153,891.322808883,9.62195917964e-06,892.27145845,0.94865950942,,,,x,1,0.93383808271,2018_Nov_14_1402,59.9906296298,spanish_cond2,001,1024,
images/pouch01b.jpg,pouch,z,sounds/animalfarm_english.wav,,,,,,,,,0,1,1,1,0,148,148,25,893.38428873,9.30123496801e-06,894.005296597,0.621017809957,,,,z,1,0.600418685819,2018_Nov_14_1402,59.9906296298,spanish_cond2,001,1024,
images/hammer02a.jpg,flower,x,sounds/animalfarm_english.wav,,,,,,,,,0,1,1,1,0,149,149,176,895.100803406,9.62207559496e-06,895.789147076,0.688353292062,,,,x,1,0.66710211616,2018_Nov_14_1402,59.9906296298,spanish_cond2,001,1024,
images/banana04a.jpg,banana,z,sounds/animalfarm_english.wav,,,,,,,,,0,1,1,1,0,150,150,118,896.896448868,8.98051075637e-06,897.55632774,0.659888814436,,,,z,1,0.65042107529,2018_Nov_14_1402,59.9906296298,spanish_cond2,001,1024,
images/cherry01.jpg,highlighter,x,sounds/animalfarm_english.wav,,,,,,,,,0,1,1,1,0,151,151,187,898.666157876,8.98051075637e-06,899.423544615,0.757397001958,,,,x,1,0.733794527128,2018_Nov_14_1402,59.9906296298,spanish_cond2,001,1024,
images/dryingmachine01.jpg,drying machine,z,sounds/animalfarm_english.wav,,,,,,,,,0,1,1,1,0,152,152,18,900.545634477,8.98051075637e-06,901.207417545,0.661792689934,,,,z,1,0.650455714553,2018_Nov_14_1402,59.9906296298,spanish_cond2,001,1024,
images/headphones02b.jpg,headphones,z,sounds/animalfarm_english.wav,,,,,,,,,0,1,1,1,0,153,153,101,902.316068023,8.9806271717e-06,903.041266565,0.725207843585,,,,z,1,0.700442388072,2018_Nov_14_1402,59.9906296298,spanish_cond2,001,1024,
images/flipflop01b.jpg,flip flop,z,sounds/animalfarm_english.wav,,,,,,,,,0,1,1,1,0,154,154,27,904.159040955,9.62195917964e-06,905.992115723,1.83308471122,,,,z,1,1.8174370745,2018_Nov_14_1402,59.9906296298,spanish_cond2,001,1024,
images/basketball01.jpg,basket ball,z,sounds/animalfarm_english.wav,,,,,,,,,0,1,1,1,0,155,155,33,907.133252679,9.62207559496e-06,907.892780316,0.759537579026,,,,z,1,0.750560241635,2018_Nov_14_1402,59.9906296298,spanish_cond2,001,1024,
images/redfox.jpg,red fox,z,sounds/animalfarm_english.wav,,,,,,,,,0,1,1,1,0,156,156,1,909.006400242,9.62207559496e-06,909.693270782,0.686880803551,,,,z,1,0.667182941106,2018_Nov_14_1402,59.9906296298,spanish_cond2,001,1024,
images/sock03.jpg,sock,z,sounds/animalfarm_english.wav,,,,,,,,,0,1,1,1,0,157,157,90,910.799844188,8.65990296006e-06,911.593748066,0.793913820758,,,,x,0,0.78380589711,2018_Nov_14_1402,59.9906296298,spanish_cond2,001,1024,
images/toucan.jpg,toucan,z,sounds/animalfarm_english.wav,,,,,,,,,0,1,1,1,0,158,158,81,912.695292366,9.30135138333e-06,913.59432282,0.899041038239,,,,z,1,0.883822543197,2018_Nov_14_1402,59.9906296298,spanish_cond2,001,1024,
images/apple06.jpg,apple,z,sounds/animalfarm_english.wav,,,,,,,,,0,1,1,1,0,159,159,13,914.723166373,9.30123496801e-06,916.46182162,1.73866551032,,,,z,1,1.71740407101,2018_Nov_14_1402,59.9906296298,spanish_cond2,001,1024,
images/djmixer01.jpg,light bulb,x,sounds/animalfarm_english.wav,,,,,,,,,0,1,1,1,0,160,160,196,917.585214303,9.30123496801e-06,918.445736182,0.860531821498,,,,x,1,0.850492214086,2018_Nov_14_1402,59.9906296298,spanish_cond2,001,1024,
images/electrictoothbrush01a.jpg,banjo,x,sounds/animalfarm_english.wav,,,,,,,,,0,1,1,1,0,161,161,127,919.540869336,9.62207559496e-06,920.579683571,1.03882385662,,,,x,1,1.01719806367,2018_Nov_14_1402,59.9906296298,spanish_cond2,001,1024,
images/remotecontrol01c.jpg,remote control,z,sounds/animalfarm_english.wav,,,,,,,,,0,1,1,1,0,162,162,85,921.689616662,9.94268339127e-06,922.446904294,0.757298215991,,,,z,1,0.733799338108,2018_Nov_14_1402,59.9906296298,spanish_cond2,001,1024,
images/radish01.jpg,raisin,x,sounds/animalfarm_english.wav,,,,,,,,,0,1,1,1,0,163,163,214,923.558569989,9.94279980659e-06,924.797578845,1.23901879857,,,,x,1,1.21726342919,2018_Nov_14_1402,59.9906296298,spanish_cond2,001,1024,
images/arrow02.jpg,hammer,x,sounds/animalfarm_english.wav,,,,,,,,,0,1,1,1,0,164,164,184,925.894295141,8.98051075637e-06,926.864859482,0.970573641825,,,,x,1,0.950529707829,2018_Nov_14_1402,59.9906296298,spanish_cond2,001,1024,
images/plate01b.jpg,plate,z,sounds/animalfarm_english.wav,,,,,,,,,0,1,1,1,0,165,165,3,927.964880618,9.30123496801e-06,928.815430564,0.850560209597,,,,z,1,0.833829134237,2018_Nov_14_1402,59.9906296298,spanish_cond2,001,1024,
images/diaper01a.jpg,camera,x,sounds/animalfarm_english.wav,,,,,,,,,0,1,1,1,0,166,166,143,929.937166657,8.98051075637e-06,930.882695164,0.945537807886,,,,x,1,0.933855723008,2018_Nov_14_1402,59.9906296298,spanish_cond2,001,1024,
images/worldmap.jpg,scooter,x,sounds/animalfarm_english.wav,,,,,,,,,0,1,1,1,0,167,167,220,932.014556821,9.30123496801e-06,932.833244437,0.818697237293,,,,x,1,0.800471222028,2018_Nov_14_1402,59.9906296298,spanish_cond2,001,1024,
images/broom02.jpg,broom,z,sounds/animalfarm_english.wav,,,,,,,,,0,1,1,1,0,168,168,116,933.927425653,9.30123496801e-06,934.650450903,0.723035513889,,,,z,1,0.700448802672,2018_Nov_14_1402,59.9906296298,spanish_cond2,001,1024,
images/flashlight05.jpg,flash light,z,sounds/animalfarm_english.wav,,,,,,,,,0,1,1,1,0,169,169,8,935.753658529,9.62195917964e-06,936.68437908,0.930730172782,,,,x,0,0.917187511572,2018_Nov_14_1402,59.9906296298,spanish_cond2,001,1024,
images/pineapple01a.jpg,pineapple,z,sounds/animalfarm_english.wav,,,,,,,,,0,1,1,1,0,170,170,51,937.798202031,9.94279980659e-06,939.018378685,1.2201865965,,,,z,1,1.20059425547,2018_Nov_14_1402,59.9906296298,spanish_cond2,001,1024,
images/feather03b.jpg,feather,z,sounds/animalfarm_english.wav,,,,,,,,,0,1,1,1,0,171,171,114,940.119554142,9.94279980659e-06,941.602477476,1.4829332768,,,,z,1,1.46733984409,2018_Nov_14_1402,59.9906296298,spanish_cond2,001,1024,
images/spoon02b.jpg,spoon,z,sounds/animalfarm_english.wav,,,,,,,,,0,1,1,1,0,172,172,38,942.694369616,8.98051075637e-06,943.753097245,1.05873757275,,,,z,1,1.05054218427,2018_Nov_14_1402,59.9906296298,spanish_cond2,001,1024,
images/drink.jpg,drink,z,sounds/animalfarm_english.wav,,,,,,,,,0,1,1,1,0,173,173,117,944.853841636,9.30135138333e-06,945.803681446,0.949849431636,,,,z,1,0.933845780324,2018_Nov_14_1402,59.9906296298,spanish_cond2,001,1024,
images/straw.jpg,straw,z,sounds/animalfarm_english.wav,,,,,,,,,0,1,1,1,0,174,174,109,946.895508156,9.30123496801e-06,947.804271917,0.908774024108,,,,z,1,0.900510960957,2018_Nov_14_1402,59.9906296298,spanish_cond2,001,1024,
images/rubberglove02a.jpg,lady bug,x,sounds/animalfarm_english.wav,,,,,,,,,0,1,1,1,0,175,175,192,948.909534805,9.30123496801e-06,950.138277294,1.22875211167,,,,x,1,1.21725541085,2018_Nov_14_1402,59.9906296298,spanish_cond2,001,1024,
images/scooter.jpg,pen,x,sounds/animalfarm_english.wav,,,,,,,,,0,1,1,1,0,176,176,212,951.232006918,9.30135138333e-06,953.389220011,2.15722335677,,,,x,1,2.13419210864,2018_Nov_14_1402,59.9906296298,spanish_cond2,001,1024,
images/screwdriver02b.jpg,cola,x,sounds/animalfarm_english.wav,,,,,,,,,0,1,1,1,0,177,177,158,954.483528238,9.62207559496e-06,956.140036839,1.65651918587,,,,x,1,1.63402644964,2018_Nov_14_1402,59.9906296298,spanish_cond2,001,1024,
images/gorilla.jpg,gorilla,z,sounds/animalfarm_english.wav,,,,,,,,,0,1,1,1,0,178,178,80,957.251470324,9.62207559496e-06,958.073915655,0.822454953799,,,,z,1,0.800474429387,2018_Nov_14_1402,59.9906296298,spanish_cond2,001,1024,
images/cat.jpg,black olive,x,sounds/animalfarm_english.wav,,,,,,,,,0,1,1,1,0,179,179,133,959.206203568,9.30135138333e-06,960.441280549,1.23508660297,,,,x,1,1.21727625863,2018_Nov_14_1402,59.9906296298,spanish_cond2,001,1024,
images/sunglasses03a.jpg,sun glasses,z,sounds/animalfarm_english.wav,,,,,,,,,0,1,1,1,0,180,180,17,961.551364065,9.62207559496e-06,962.725282254,1.17392845266,,,,z,1,1.15058352693,2018_Nov_14_1402,59.9906296298,spanish_cond2,001,1024,
images/hand01a.jpg,cupcake,x,sounds/animalfarm_english.wav,,,,,,,,,0,1,1,1,0,181,181,163,963.837387675,9.62207559496e-06,965.192645511,1.35526842054,,,,x,1,1.33395790879,2018_Nov_14_1402,59.9906296298,spanish_cond2,001,1024,
images/parrot01.jpg,chameleon,x,sounds/animalfarm_english.wav,,,,,,,,,0,1,1,1,0,182,182,150,966.307435153,9.30135138333e-06,967.64336365,1.33594068477,,,,x,1,1.31727301923,2018_Nov_14_1402,59.9906296298,spanish_cond2,001,1024,
images/handfan01b.jpg,handfan,z,sounds/animalfarm_english.wav,,,,,,,,,0,1,1,1,0,183,183,69,968.758745687,9.30123496801e-06,971.761083195,3.00234809169,,,,None,0,,2018_Nov_14_1402,59.9906296298,spanish_cond2,001,1024,
images/umbrella01.jpg,umbrella,z,sounds/animalfarm_english.wav,,,,,,,,,0,1,1,1,0,184,184,53,972.875300648,9.62207559496e-06,973.895183894,1.01989351003,,,,z,1,1.00053915347,2018_Nov_14_1402,59.9906296298,spanish_cond2,001,1024,
images/lightswitch02a.jpg,fork,x,sounds/animalfarm_english.wav,,,,,,,,,0,1,1,1,0,185,185,177,975.008167485,9.62195917964e-06,975.829088369,0.820931147784,,,,x,1,0.800492390525,2018_Nov_14_1402,59.9906296298,spanish_cond2,001,1024,
images/panda.jpg,panda,z,sounds/animalfarm_english.wav,,,,,,,,,0,1,1,1,0,186,186,83,976.939028517,9.62207559496e-06,977.929684581,0.990666006808,,,,z,1,0.967188297305,2018_Nov_14_1402,59.9906296298,spanish_cond2,001,1024,
images/kiwi03.jpg,backpack,x,sounds/animalfarm_english.wav,,,,,,,,,0,1,1,1,0,187,187,125,979.059320667,8.9806271717e-06,979.88024989,0.820938845398,,,,x,1,0.80047442927,2018_Nov_14_1402,59.9906296298,spanish_cond2,001,1024,
images/bandaid01.jpg,door handle,x,sounds/animalfarm_english.wav,,,,,,,,,0,1,1,1,0,188,188,170,980.988600161,9.62207559496e-06,982.364303811,1.37571391324,,,,x,1,1.36729850143,2018_Nov_14_1402,59.9906296298,spanish_cond2,001,1024,
images/tie01.jpg,bench,x,sounds/animalfarm_english.wav,,,,,,,,,0,1,1,1,0,189,189,130,983.462954131,9.62207559496e-06,984.198166622,0.735222112969,,,,x,1,0.717112203245,2018_Nov_14_1402,59.9906296298,spanish_cond2,001,1024,
images/birthdaycandle.jpg,birthday candle,z,sounds/animalfarm_english.wav,,,,,,,,,0,1,1,1,0,190,190,55,985.2949275,8.98051075637e-06,986.015361863,0.720444306033,,,,z,1,0.700444953982,2018_Nov_14_1402,59.9906296298,spanish_cond2,001,1024,
images/seagull.jpg,seagull,z,sounds/animalfarm_english.wav,,,,,,,,,0,1,1,1,0,191,191,50,987.123659533,9.30135138333e-06,987.915918689,0.792269098223,,,,z,1,0.78380589711,2018_Nov_14_1402,59.9906296298,spanish_cond2,001,1024,
images/chessknight02b (1).jpg,cockroach,x,sounds/animalfarm_english.wav,,,,,,,,,0,1,1,1,0,192,192,155,989.025691414,9.30123496801e-06,990.80010751,1.77442603896,,,,z,0,1.75076198322,2018_Nov_14_1402,59.9906296298,spanish_cond2,001,1024,
images/hairdryer03a.jpg,hairdryer,z,sounds/animalfarm_english.wav,,,,,,,,,0,1,1,1,0,193,193,119,991.899920169,9.62207559496e-06,992.683971748,0.784061842598,,,,x,0,0.767135761096,2018_Nov_14_1402,59.9906296298,spanish_cond2,001,1024,
images/peach01.jpg,peach,z,sounds/animalfarm_english.wav,,,,,,,,,0,1,1,1,0,194,194,106,993.814263735,8.98051075637e-06,994.667884707,0.853630914353,,,,z,1,0.833824323141,2018_Nov_14_1402,59.9906296298,spanish_cond2,001,1024,
images/barrel01.jpg,barrel,z,sounds/animalfarm_english.wav,,,,,,,,,0,1,1,1,0,195,195,9,995.799349616,8.9806271717e-06,996.418389461,0.619048825698,,,,z,1,0.600417723646,2018_Nov_14_1402,59.9906296298,spanish_cond2,001,1024,
images/cola.jpg,comb,x,sounds/animalfarm_english.wav,,,,,,,,,0,1,1,1,0,196,196,157,997.540545716,9.62195917964e-06,998.685737388,1.14520289772,,,,x,1,1.13393071061,2018_Nov_14_1402,59.9906296298,spanish_cond2,001,1024,
images/pipe.jpg,icecube,x,sounds/animalfarm_english.wav,,,,,,,,,0,1,1,1,0,197,197,188,999.795351029,9.30135138333e-06,1000.8363501,1.04100965697,,,,x,1,1.01721698698,2018_Nov_14_1402,59.9906296298,spanish_cond2,001,1024,
images/squirrel.jpg,binder,x,sounds/animalfarm_english.wav,,,,,,,,,0,1,1,1,0,198,198,132,1001.940238,9.30123496801e-06,1002.85359948,0.913371742237,,,,x,1,0.900512564578,2018_Nov_14_1402,59.9906296298,spanish_cond2,001,1024,
images/weight01.jpg,weight,z,sounds/animalfarm_english.wav,,,,,,,,,0,1,1,1,0,199,199,67,1003.95944226,9.62195917964e-06,1004.65411464,0.6946820101,,,,z,1,0.683759743464,2018_Nov_14_1402,59.9906296298,spanish_cond2,001,1024,
images/desktopcomputer.jpg,desktop computer,z,sounds/animalfarm_english.wav,,,,,,,,,0,1,1,1,0,200,200,16,1005.7909775,8.98051075637e-06,1006.67136755,0.88039935194,,,,z,1,0.867161067086,2018_Nov_14_1402,59.9906296298,spanish_cond2,001,1024,
images/button07.jpg,radish,x,sounds/animalfarm_english.wav,,,,,,,,,0,1,1,1,0,201,201,215,1007.78455289,9.94268339127e-06,1008.98871755,1.20417460613,,,,x,1,1.18392508174,2018_Nov_14_1402,59.9906296298,spanish_cond2,001,1024,
images/lily.jpg,kiwi,x,sounds/animalfarm_english.wav,,,,,,,,,0,1,1,1,0,202,202,190,1010.08842437,9.30135138333e-06,1010.85592063,0.76750620862,,,,x,1,0.750463380013,2018_Nov_14_1402,59.9906296298,spanish_cond2,001,1024,
images/bat.jpg,hand,x,sounds/animalfarm_english.wav,,,,,,,,,0,1,1,1,0,203,203,185,1011.95457544,9.30135138333e-06,1012.75647169,0.801906184759,,,,x,1,0.783801086131,2018_Nov_14_1402,59.9906296298,spanish_cond2,001,1024,
images/bowlingball.jpg,bowling ball,z,sounds/animalfarm_english.wav,,,,,,,,,0,1,1,1,0,204,204,20,1013.88961307,9.62207559496e-06,1014.64048988,0.750886748661,,,,z,1,0.733928914531,2018_Nov_14_1402,59.9906296298,spanish_cond2,001,1024,
images/hairpin.jpg,hair pin,z,sounds/animalfarm_english.wav,,,,,,,,,0,1,1,1,0,205,205,28,1015.73215333,9.30135138333e-06,1017.59120689,1.85906318168,,,,x,0,1.85074366932,2018_Nov_14_1402,59.9906296298,spanish_cond2,001,1024,
images/pepper05a.jpg,lighter,x,sounds/animalfarm_english.wav,,,,,,,,,0,1,1,1,0,206,206,198,1018.71308539,9.62207559496e-06,1019.40840245,0.695327005698,,,,x,1,0.683771931333,2018_Nov_14_1402,59.9906296298,spanish_cond2,001,1024,
images/marker01a.jpg,marker,z,sounds/animalfarm_english.wav,,,,,,,,,0,1,1,1,0,207,207,95,1020.50729076,9.30123496801e-06,1021.44232261,0.935041475692,,,,z,1,0.917174361413,2018_Nov_14_1402,59.9906296298,spanish_cond2,001,1024,
images/pingpongpaddle01c (1).jpg,ping pong paddle,z,sounds/animalfarm_english.wav,,,,,,,,,0,1,1,1,0,208,208,10,1022.55453997,8.9806271717e-06,1023.20950552,0.65497549437,,,,z,1,0.63375735411,2018_Nov_14_1402,59.9906296298,spanish_cond2,001,1024,
images/tape01a.jpg,tie,x,sounds/animalfarm_english.wav,,,,,,,,,0,1,1,1,0,209,209,232,1024.33829583,9.62207559496e-06,1025.36013331,1.02184709918,,,,x,1,1.00053370092,2018_Nov_14_1402,59.9906296298,spanish_cond2,001,1024,
