images,name,corrAns,sounds,trials_3.thisRepN,trials_3.thisTrialN,trials_3.thisN,trials_3.thisIndex,trials_4.thisRepN,trials_4.thisTrialN,trials_4.thisN,trials_4.thisIndex,trials_2.thisRepN,trials_2.thisTrialN,trials_2.thisN,trials_2.thisIndex,trials.thisRepN,trials.thisTrialN,trials.thisN,trials.thisIndex,begin_global,begin_routine,end_global,end_routine,key_resp_2.keys,key_resp_2.corr,begin_book,key_resp_1.keys,key_resp_1.corr,key_resp_1.rt,date,frameRate,expName,session,participant,
images/volleyball.jpg,volley ball,z,,0,0,0,0,,,,,,,,,,,,,,,,,,,,,,,2018_Nov_14_1402,59.983936375,spanish_cond1,001,1025,
images/puma.jpg,puma,z,,,,,,0,0,0,0,,,,,,,,,48.151974322,1.02629419416e-05,51.0091074202,2.85714592692,None,0,,,,,2018_Nov_14_1402,59.983936375,spanish_cond1,001,1025,
images/tank.jpg,wallet,x,sounds/animalfarm_spanish.wav,,,,,,,,,0,0,0,1,0,0,0,237,93.162320354,9.62149351835e-06,95.1535070318,1.99119694077,,,83.0053226308,x,1,1.96759789181,2018_Nov_14_1402,59.983936375,spanish_cond1,001,1025,
images/showerhead01.jpg,skateboard,x,sounds/animalfarm_spanish.wav,,,,,,,,,0,0,0,1,0,1,1,223,96.2639240386,9.30076930672e-06,97.6872165457,1.42330212856,,,,x,1,1.40057318658,2018_Nov_14_1402,59.983936375,spanish_cond1,001,1025,
images/doorhandle.jpg,doll,x,sounds/animalfarm_spanish.wav,,,,,,,,,0,0,0,1,0,2,2,168,98.7907663452,9.30088572204e-06,100.037783109,1.24702670658,,,,x,1,1.23384617164,2018_Nov_14_1402,59.983936375,spanish_cond1,001,1025,
images/electricguitar02.jpg,electric guitar,z,sounds/animalfarm_spanish.wav,,,,,,,,,0,0,0,1,0,3,3,100,101.13864305,8.65932088345e-06,102.805127763,1.66649401363,,,,z,1,1.65063869325,2018_Nov_14_1402,59.983936375,spanish_cond1,001,1025,
images/corn01.jpg,corn,z,sounds/animalfarm_spanish.wav,,,,,,,,,0,0,0,1,0,4,4,22,103.903189762,9.30076930672e-06,105.355733647,1.45255382685,,,,z,1,1.43391082832,2018_Nov_14_1402,59.983936375,spanish_cond1,001,1025,
images/bandaid01.jpg,door handle,x,sounds/animalfarm_spanish.wav,,,,,,,,,0,0,0,1,0,5,5,170,106.461926801,9.62160993367e-06,108.223091545,1.76117436553,,,,x,1,1.75055700645,2018_Nov_14_1402,59.983936375,spanish_cond1,001,1025,
images/gluestick.jpg,squirrel,x,sounds/animalfarm_spanish.wav,,,,,,,,,0,0,0,1,0,6,6,226,109.329514655,8.65932088345e-06,110.490295564,1.16079020989,,,,x,1,1.15051601874,2018_Nov_14_1402,59.983936375,spanish_cond1,001,1025,
images/fork01.jpg,cooking pot,x,sounds/animalfarm_spanish.wav,,,,,,,,,0,0,0,1,0,7,7,160,111.583132751,9.30088572204e-06,113.941116874,2.35799406481,,,,x,1,2.33412272646,2018_Nov_14_1402,59.983936375,spanish_cond1,001,1025,
images/lychee02a.jpg,lychee,z,sounds/animalfarm_spanish.wav,,,,,,,,,0,0,0,1,0,8,8,62,115.063605053,9.30088572204e-06,118.058669849,2.99507505924,,,,None,0,,2018_Nov_14_1402,59.983936375,spanish_cond1,001,1025,
images/gamecontroller01.jpg,game controller,z,sounds/animalfarm_spanish.wav,,,,,,,,,0,0,0,1,0,9,9,112,119.178493185,9.30088572204e-06,120.809444623,1.63096105948,,,,z,1,1.6172718663,2018_Nov_14_1402,59.983936375,spanish_cond1,001,1025,
images/beachumbrella01.jpg,beach umbrella,z,sounds/animalfarm_spanish.wav,,,,,,,,,0,0,0,1,0,10,10,92,121.914605067,9.30076930672e-06,124.510339136,2.59574401204,,,,z,1,2.58418887458,2018_Nov_14_1402,59.983936375,spanish_cond1,001,1025,
images/knife04.jpg,tooth brush,x,sounds/animalfarm_spanish.wav,,,,,,,,,0,0,0,1,0,11,11,233,125.607650336,9.30088572204e-06,126.994270378,1.38662934373,,,,x,1,1.36723265855,2018_Nov_14_1402,59.983936375,spanish_cond1,001,1025,
images/mailbox01.jpg,mail box,z,sounds/animalfarm_spanish.wav,,,,,,,,,0,0,0,1,0,12,12,73,128.113789995,9.62160993367e-06,129.228260873,1.1144808206,,,,z,1,1.10060978052,2018_Nov_14_1402,59.983936375,spanish_cond1,001,1025,
images/cockroach02.jpg,belt,x,sounds/animalfarm_spanish.wav,,,,,,,,,0,0,0,1,0,13,13,129,130.327091953,9.30076930672e-06,131.328645831,1.00156381947,,,,x,1,0.983798304456,2018_Nov_14_1402,59.983936375,spanish_cond1,001,1025,
images/parkfountain.jpg,park fountain,z,sounds/animalfarm_spanish.wav,,,,,,,,,0,0,0,1,0,14,14,93,132.447065385,8.98004509509e-06,133.662536037,1.21548091457,,,,z,1,1.20051879296,2018_Nov_14_1402,59.983936375,spanish_cond1,001,1025,
images/flashlight05.jpg,flash light,z,sounds/animalfarm_spanish.wav,,,,,,,,,0,0,0,1,0,15,15,8,134.764772497,8.98016151041e-06,136.363185201,1.59842264629,,,,z,1,1.58393903531,2018_Nov_14_1402,59.983936375,spanish_cond1,001,1025,
images/ant.jpg,ant,z,sounds/animalfarm_spanish.wav,,,,,,,,,0,0,0,1,0,16,16,98,137.457904039,9.62149351835e-06,138.863794084,1.40589998674,,,,z,1,1.3838942633,2018_Nov_14_1402,59.983936375,spanish_cond1,001,1025,
images/honeycomb.jpg,honey comb,z,sounds/animalfarm_spanish.wav,,,,,,,,,0,0,0,1,0,17,17,59,139.9764141,8.98004509509e-06,141.831171322,1.85476716375,,,,z,1,1.8339994105,2018_Nov_14_1402,59.983936375,spanish_cond1,001,1025,
images/lock02a.jpg,lock,z,sounds/animalfarm_spanish.wav,,,,,,,,,0,0,0,1,0,18,18,65,142.939901354,8.78765713423e-05,145.565393535,2.62556081498,,,,z,1,2.60085208272,2018_Nov_14_1402,59.983936375,spanish_cond1,001,1025,
images/radio03a.jpg,radio,z,sounds/animalfarm_spanish.wav,,,,,,,,,0,0,0,1,0,19,19,37,146.678981478,9.30088572204e-06,147.565878781,0.886907245615,,,,z,1,0.867089778767,2018_Nov_14_1402,59.983936375,spanish_cond1,001,1025,
images/cocktailshrimp01.jpg,cocktail shrimp,z,sounds/animalfarm_spanish.wav,,,,,,,,,0,0,0,1,0,20,20,30,148.680477305,9.30076930672e-06,149.883101609,1.20263392606,,,,z,1,1.18384660466,2018_Nov_14_1402,59.983936375,spanish_cond1,001,1025,
images/cheetah.jpg,cheetah,z,sounds/animalfarm_spanish.wav,,,,,,,,,0,0,0,1,0,21,21,82,150.986513821,9.30076930672e-06,152.066970344,1.08046678535,,,,z,1,1.06712364662,2018_Nov_14_1402,59.983936375,spanish_cond1,001,1025,
images/orange.jpg,bat,x,sounds/animalfarm_spanish.wav,,,,,,,,,0,0,0,1,0,22,22,128,153.191273785,9.30076930672e-06,154.38419221,1.19292836729,,,,x,1,1.18384532176,2018_Nov_14_1402,59.983936375,spanish_cond1,001,1025,
images/aquarium.jpg,computer mouse,x,sounds/animalfarm_spanish.wav,,,,,,,,,0,0,0,1,0,23,23,159,155.518553358,9.30076930672e-06,156.818108811,1.29956539546,,,,x,1,1.28387267899,2018_Nov_14_1402,59.983936375,spanish_cond1,001,1025,
images/spoon02b.jpg,spoon,z,sounds/animalfarm_spanish.wav,,,,,,,,,0,0,0,1,0,24,24,38,157.909943435,8.98004509509e-06,158.918768944,1.00883513084,,,,z,1,1.00062860665,2018_Nov_14_1402,59.983936375,spanish_cond1,001,1025,
images/crocodile.jpg,triangle ruler,x,sounds/animalfarm_spanish.wav,,,,,,,,,0,0,0,1,0,25,25,235,160.014508947,9.30076930672e-06,161.202498583,1.18799957796,,,,x,1,1.16719045211,2018_Nov_14_1402,59.983936375,spanish_cond1,001,1025,
images/seagull.jpg,seagull,z,sounds/animalfarm_spanish.wav,,,,,,,,,0,0,0,1,0,26,26,50,162.30986813,8.98004509509e-06,163.303011186,0.993152998039,,,,z,1,0.983801511698,2018_Nov_14_1402,59.983936375,spanish_cond1,001,1025,
images/dragonfly02.jpg,dragon fly,z,sounds/animalfarm_spanish.wav,,,,,,,,,0,0,0,1,0,27,27,29,164.400043361,8.98004509509e-06,165.386825623,0.986792204087,,,,z,1,0.967127719661,2018_Nov_14_1402,59.983936375,spanish_cond1,001,1025,
images/globe.jpg,cloud,x,sounds/animalfarm_spanish.wav,,,,,,,,,0,0,0,1,0,28,28,154,166.513183261,9.94233414531e-06,167.504017149,0.990843830747,,,,x,1,0.967141510569,2018_Nov_14_1402,59.983936375,spanish_cond1,001,1025,
images/bowl02b (1).jpg,bowl,z,sounds/animalfarm_spanish.wav,,,,,,,,,0,0,0,1,0,29,29,24,168.6214877,9.30088572204e-06,170.404714614,1.78323653538,,,,z,1,1.76730712922,2018_Nov_14_1402,59.983936375,spanish_cond1,001,1025,
images/comb02a.jpg,diploma,x,sounds/animalfarm_spanish.wav,,,,,,,,,0,0,0,1,0,30,30,166,171.508907132,1.02630583569e-05,172.655254462,1.14635759324,,,,x,1,1.13384960324,2018_Nov_14_1402,59.983936375,spanish_cond1,001,1025,
images/table02.jpg,table,z,sounds/animalfarm_spanish.wav,,,,,,,,,0,0,0,1,0,31,31,49,173.767694556,3.30338953063e-05,174.805767274,1.03808875347,,,,z,1,1.01713851187,2018_Nov_14_1402,59.983936375,spanish_cond1,001,1025,
images/ear.jpg,bullet,x,sounds/animalfarm_spanish.wav,,,,,,,,,0,0,0,1,0,32,32,139,175.908672431,9.30076930672e-06,176.872927162,0.964264993672,,,,x,1,0.950459379936,2018_Nov_14_1402,59.983936375,spanish_cond1,001,1025,
images/weight01.jpg,weight,z,sounds/animalfarm_spanish.wav,,,,,,,,,0,0,0,1,0,33,33,67,177.978160408,8.98004509509e-06,178.856601348,0.878450882272,,,,z,1,0.8669688683,2018_Nov_14_1402,59.983936375,spanish_cond1,001,1025,
images/flipflop01b.jpg,flip flop,z,sounds/animalfarm_spanish.wav,,,,,,,,,0,0,0,1,0,34,34,27,179.973799931,8.65932088345e-06,180.857235407,0.883445098065,,,,z,1,0.867122491938,2018_Nov_14_1402,59.983936375,spanish_cond1,001,1025,
images/handbag02a.jpg,candle,x,sounds/animalfarm_spanish.wav,,,,,,,,,0,0,0,1,0,35,35,144,181.972817893,9.62160993367e-06,183.041086502,1.06827823038,,,,x,1,1.05048737873,2018_Nov_14_1402,59.983936375,spanish_cond1,001,1025,
images/microphone01.jpg,diaper,x,sounds/animalfarm_spanish.wav,,,,,,,,,0,0,0,1,0,36,36,164,184.139684099,8.98004509509e-06,185.675045309,1.53537083138,,,,x,1,1.51725316851,2018_Nov_14_1402,59.983936375,spanish_cond1,001,1025,
images/headphones02b.jpg,headphones,z,sounds/animalfarm_spanish.wav,,,,,,,,,0,0,0,1,0,37,37,101,186.78080742,8.98016151041e-06,187.708876856,0.928079058183,,,,z,1,0.917125266278,2018_Nov_14_1402,59.983936375,spanish_cond1,001,1025,
images/acousticguitar02.jpg,acoustic guitar,z,sounds/animalfarm_spanish.wav,,,,,,,,,0,0,0,1,0,38,38,97,188.82178616,8.98016151041e-06,190.892968489,2.07119259203,,,,z,1,2.05070001446,2018_Nov_14_1402,59.983936375,spanish_cond1,001,1025,
images/flower01.jpg,bus,x,sounds/animalfarm_spanish.wav,,,,,,,,,0,0,0,1,0,39,39,140,192.007882599,9.30076930672e-06,193.626964917,1.61909193918,,,,x,1,1.60061475169,2018_Nov_14_1402,59.983936375,spanish_cond1,001,1025,
images/treadmill.jpg,lily,x,sounds/animalfarm_spanish.wav,,,,,,,,,0,0,0,1,0,40,40,199,194.731144927,9.30076930672e-06,196.010882913,1.27974792873,,,,x,1,1.26722229936,2018_Nov_14_1402,59.983936375,spanish_cond1,001,1025,
images/highheelshoe02a.jpg,high heel shoe,z,sounds/animalfarm_spanish.wav,,,,,,,,,0,0,0,1,0,41,41,75,197.117138287,8.65943729877e-06,198.11137467,0.994246004033,,,,z,1,0.983783872216,2018_Nov_14_1402,59.983936375,spanish_cond1,001,1025,
images/gorilla.jpg,gorilla,z,sounds/animalfarm_spanish.wav,,,,,,,,,0,0,0,1,0,42,42,80,199.220996617,9.30088572204e-06,200.445272894,1.22428621876,,,,z,1,1.20053033868,2018_Nov_14_1402,59.983936375,spanish_cond1,001,1025,
images/kiwi03.jpg,backpack,x,sounds/animalfarm_spanish.wav,,,,,,,,,0,0,0,1,0,43,43,125,201.573544896,8.98016151041e-06,203.079231381,1.50569642731,,,,x,1,1.48391552677,2018_Nov_14_1402,59.983936375,spanish_cond1,001,1025,
images/licenseplate.jpg,license plate,z,sounds/animalfarm_spanish.wav,,,,,,,,,0,0,0,1,0,44,44,40,204.196270566,8.65932088345e-06,205.746550601,1.55028997688,,,,z,1,1.53394299629,2018_Nov_14_1402,59.983936375,spanish_cond1,001,1025,
images/arrow02.jpg,hammer,x,sounds/animalfarm_spanish.wav,,,,,,,,,0,0,0,1,0,45,45,184,206.843359236,9.30076930672e-06,208.113789674,1.2704407014,,,,x,1,1.25054273452,2018_Nov_14_1402,59.983936375,spanish_cond1,001,1025,
images/glasses01b.jpg,calculator,x,sounds/animalfarm_spanish.wav,,,,,,,,,0,0,0,1,0,46,46,142,209.208264766,8.98016151041e-06,210.280969222,1.072713756,,,,x,1,1.05048449221,2018_Nov_14_1402,59.983936375,spanish_cond1,001,1025,
images/tie01.jpg,bench,x,sounds/animalfarm_spanish.wav,,,,,,,,,0,0,0,1,0,47,47,130,211.37889684,9.30076930672e-06,212.498160524,1.11927362578,,,,x,1,1.1004773241,2018_Nov_14_1402,59.983936375,spanish_cond1,001,1025,
images/mitten01.jpg,mitten,z,sounds/animalfarm_spanish.wav,,,,,,,,,0,0,0,1,0,48,48,102,213.61834595,8.98004509509e-06,215.982180604,2.36384491762,,,,z,1,2.35064064967,2018_Nov_14_1402,59.983936375,spanish_cond1,001,1025,
images/paintbrush03a.jpg,paint brush,z,sounds/animalfarm_spanish.wav,,,,,,,,,0,0,0,1,0,49,49,0,217.082377942,8.98004509509e-06,217.832787739,0.75041941856,,,,z,1,0.733748192317,2018_Nov_14_1402,59.983936375,spanish_cond1,001,1025,
images/butterfly.jpg,butterfly,z,sounds/animalfarm_spanish.wav,,,,,,,,,0,0,0,1,0,50,50,91,218.940005587,8.98016151041e-06,220.983535957,2.04353999207,,,,z,1,2.03405091772,2018_Nov_14_1402,59.983936375,spanish_cond1,001,1025,
images/hammer02a.jpg,flower,x,sounds/animalfarm_spanish.wav,,,,,,,,,0,0,0,1,0,51,51,176,222.079016179,8.98016151041e-06,224.234330135,2.15532357688,,,,x,1,2.13407763361,2018_Nov_14_1402,59.983936375,spanish_cond1,001,1025,
images/banjo.jpg,knife,x,sounds/animalfarm_spanish.wav,,,,,,,,,0,0,0,1,0,52,52,191,225.330427738,8.98016151041e-06,226.768259019,1.43784154428,,,,x,1,1.41723190492,2018_Nov_14_1402,59.983936375,spanish_cond1,001,1025,
images/worldmap.jpg,scooter,x,sounds/animalfarm_spanish.wav,,,,,,,,,0,0,0,1,0,53,53,220,227.899024922,8.98016151041e-06,229.268872713,1.36985709146,,,,x,1,1.35056047013,2018_Nov_14_1402,59.983936375,spanish_cond1,001,1025,
images/hanger02a.jpg,hanger,z,sounds/animalfarm_spanish.wav,,,,,,,,,0,0,0,1,0,54,54,88,230.361963267,9.30088572204e-06,231.185996375,0.824042729917,,,,z,1,0.80042892776,2018_Nov_14_1402,59.983936375,spanish_cond1,001,1025,
images/handfan01b.jpg,handfan,z,sounds/animalfarm_spanish.wav,,,,,,,,,0,0,0,1,0,55,55,69,232.30014846,8.98004509509e-06,233.386519658,1.08638146101,,,,z,1,1.06715090759,2018_Nov_14_1402,59.983936375,spanish_cond1,001,1025,
images/cigar.jpg,crocodile,x,sounds/animalfarm_spanish.wav,,,,,,,,,0,0,0,1,0,56,56,162,234.485106993,8.65932088345e-06,236.403924045,1.91882667353,,,,x,1,1.90069361613,2018_Nov_14_1402,59.983936375,spanish_cond1,001,1025,
images/daisy.jpg,daisy,z,sounds/animalfarm_spanish.wav,,,,,,,,,0,0,0,1,0,57,57,6,237.505762816,8.98016151041e-06,238.721132121,1.21537924709,,,,z,1,1.20051013364,2018_Nov_14_1402,59.983936375,spanish_cond1,001,1025,
images/bowlingball.jpg,bowling ball,z,sounds/animalfarm_spanish.wav,,,,,,,,,0,0,0,1,0,58,58,20,239.852704308,9.30088572204e-06,240.838332948,0.985638903338,,,,z,1,0.967146962881,2018_Nov_14_1402,59.983936375,spanish_cond1,001,1025,
images/lipstick04.jpg,lipstick,z,sounds/animalfarm_spanish.wav,,,,,,,,,0,0,0,1,0,59,59,56,241.937870569,9.30088572204e-06,242.988839666,1.05097871821,,,,z,1,1.03381839744,2018_Nov_14_1402,59.983936375,spanish_cond1,001,1025,
images/corkscrew02a.jpg,masquerade mask,x,sounds/animalfarm_spanish.wav,,,,,,,,,0,0,0,1,0,60,60,201,244.0927089,9.62149351835e-06,245.039336025,0.946637066547,,,,x,1,0.933799378923,2018_Nov_14_1402,59.983936375,spanish_cond1,001,1025,
images/nametag01a.jpg,name tag,z,sounds/animalfarm_spanish.wav,,,,,,,,,0,0,0,1,0,61,61,108,246.15930657,8.98004509509e-06,247.50659572,1.34729909198,,,,z,1,1.33387064247,2018_Nov_14_1402,59.983936375,spanish_cond1,001,1025,
images/candy.jpg,candy,z,sounds/animalfarm_spanish.wav,,,,,,,,,0,0,0,1,0,62,62,31,248.608530064,9.30076930672e-06,249.490393383,0.881872939994,,,,z,1,0.867099079653,2018_Nov_14_1402,59.983936375,spanish_cond1,001,1025,
images/key03b.jpg,cigar,x,sounds/animalfarm_spanish.wav,,,,,,,,,0,0,0,1,0,63,63,153,250.590120869,9.30076930672e-06,251.524226854,0.934115927201,,,,x,1,0.917130397749,2018_Nov_14_1402,59.983936375,spanish_cond1,001,1025,
images/egg01b (1).jpg,egg,z,sounds/animalfarm_spanish.wav,,,,,,,,,0,0,0,1,0,64,64,19,252.636767012,9.62149351835e-06,253.608062458,0.971305388375,,,,z,1,0.950464511407,2018_Nov_14_1402,59.983936375,spanish_cond1,001,1025,
images/apple06.jpg,apple,z,sounds/animalfarm_spanish.wav,,,,,,,,,0,0,0,1,0,65,65,13,254.734766792,9.30076930672e-06,255.525183234,0.790426063817,,,,z,1,0.767083268147,2018_Nov_14_1402,59.983936375,spanish_cond1,001,1025,
images/mushroom01.jpg,shower head,x,sounds/animalfarm_spanish.wav,,,,,,,,,0,0,0,1,0,66,66,222,256.642136147,8.98004509509e-06,257.675712723,1.03358651861,,,,x,1,1.0171593586,2018_Nov_14_1402,59.983936375,spanish_cond1,001,1025,
images/mattress.jpg,cat,x,sounds/animalfarm_spanish.wav,,,,,,,,,0,0,0,1,0,67,67,147,258.780053733,8.98004509509e-06,259.926249043,1.14620461082,,,,x,1,1.13382651156,2018_Nov_14_1402,59.983936375,spanish_cond1,001,1025,
images/ladybug03.jpg,giraffe,x,sounds/animalfarm_spanish.wav,,,,,,,,,0,0,0,1,0,68,68,178,261.028930981,8.98004509509e-06,262.026761005,0.997839324875,,,,x,1,0.983811133308,2018_Nov_14_1402,59.983936375,spanish_cond1,001,1025,
images/carrot02.jpg,corkscrew,x,sounds/animalfarm_spanish.wav,,,,,,,,,0,0,0,1,0,69,69,161,263.128822995,1.02630583569e-05,264.060606663,0.931794572622,,,,x,1,0.917150923633,2018_Nov_14_1402,59.983936375,spanish_cond1,001,1025,
images/hand01a.jpg,cupcake,x,sounds/animalfarm_spanish.wav,,,,,,,,,0,0,0,1,0,70,70,163,265.173544832,8.98004509509e-06,266.044387328,0.870852118009,,,,x,1,0.850445492892,2018_Nov_14_1402,59.983936375,spanish_cond1,001,1025,
images/magnifyingglass01b.jpg,magnifying glass,z,sounds/animalfarm_spanish.wav,,,,,,,,,0,0,0,1,0,71,71,64,267.150625704,9.30088572204e-06,268.578323269,1.42770686536,,,,z,1,1.41722356621,2018_Nov_14_1402,59.983936375,spanish_cond1,001,1025,
images/hairpin.jpg,hair pin,z,sounds/animalfarm_spanish.wav,,,,,,,,,0,0,0,1,0,72,72,28,269.667612677,8.98016151041e-06,271.09560017,1.42799711484,,,,z,1,1.41724794079,2018_Nov_14_1402,59.983936375,spanish_cond1,001,1025,
images/razor04a.jpg,razor,z,sounds/animalfarm_spanish.wav,,,,,,,,,0,0,0,1,0,73,73,36,272.195243628,8.98004509509e-06,273.079414511,0.884180503781,,,,z,1,0.86711832264,2018_Nov_14_1402,59.983936375,spanish_cond1,001,1025,
images/triangleruler02.jpg,bottle of red wine,x,sounds/animalfarm_spanish.wav,,,,,,,,,0,0,0,1,0,74,74,134,274.189977123,9.30076930672e-06,276.130256282,1.94033336034,,,,x,1,1.91737542604,2018_Nov_14_1402,59.983936375,spanish_cond1,001,1025,
images/dresser02.jpg,dresser,z,sounds/animalfarm_spanish.wav,,,,,,,,,0,0,0,1,0,75,75,87,277.252722973,8.98004509509e-06,277.930737808,0.678024776746,,,,z,1,0.66722043918,2018_Nov_14_1402,59.983936375,spanish_cond1,001,1025,
images/watermelon01.jpg,orange,x,sounds/animalfarm_spanish.wav,,,,,,,,,0,0,0,1,0,76,76,207,279.059598647,9.62160993367e-06,279.831050732,0.771461385419,,,,x,1,0.750416852767,2018_Nov_14_1402,59.983936375,spanish_cond1,001,1025,
images/rubberglove02a.jpg,lady bug,x,sounds/animalfarm_spanish.wav,,,,,,,,,0,0,0,1,0,77,77,192,280.935714705,8.98004509509e-06,281.964885903,1.02918146108,,,,x,1,1.01715230278,2018_Nov_14_1402,59.983936375,spanish_cond1,001,1025,
images/doll.jpg,carrot,x,sounds/animalfarm_spanish.wav,,,,,,,,,0,0,0,1,0,78,78,146,283.076374428,9.30076930672e-06,285.232342326,2.15597752016,,,,x,1,2.13409206585,2018_Nov_14_1402,59.983936375,spanish_cond1,001,1025,
images/puma.jpg,puma,z,sounds/animalfarm_spanish.wav,,,,,,,,,0,0,0,1,0,79,79,4,286.331133638,8.98004509509e-06,287.43286593,1.10174191394,,,,z,1,1.08382790675,2018_Nov_14_1402,59.983936375,spanish_cond1,001,1025,
images/redfox.jpg,red fox,z,sounds/animalfarm_spanish.wav,,,,,,,,,0,0,0,1,0,80,80,1,288.545586011,8.65932088345e-06,289.816790661,1.27121395164,,,,z,1,1.25051964284,2018_Nov_14_1402,59.983936375,spanish_cond1,001,1025,
images/leaf01a.jpg,leaf,z,sounds/animalfarm_spanish.wav,,,,,,,,,0,0,0,1,0,81,81,68,290.920014933,8.65943729877e-06,291.833933022,0.913927710964,,,,z,1,0.900467830827,2018_Nov_14_1402,59.983936375,spanish_cond1,001,1025,
images/highlighter03b.jpg,coin,x,sounds/animalfarm_spanish.wav,,,,,,,,,0,0,0,1,0,82,82,156,292.935888855,9.30088572204e-06,295.451461462,2.51558287081,,,,x,1,2.5008385164,2018_Nov_14_1402,59.983936375,spanish_cond1,001,1025,
images/boxingglove02a.jpg,bracelet,x,sounds/animalfarm_spanish.wav,,,,,,,,,0,0,0,1,0,83,83,135,296.562852809,9.62160993367e-06,298.718907623,2.15606475552,,,,x,1,2.13408116146,2018_Nov_14_1402,59.983936375,spanish_cond1,001,1025,
images/hat05.jpg,hat,z,sounds/animalfarm_spanish.wav,,,,,,,,,0,0,0,1,0,84,84,15,299.822747351,8.98016151041e-06,300.969454847,1.14671711775,,,,z,1,1.13383549172,2018_Nov_14_1402,59.983936375,spanish_cond1,001,1025,
images/skateboard.jpg,key,x,sounds/animalfarm_spanish.wav,,,,,,,,,0,0,0,1,0,85,85,189,302.06060506,9.30088572204e-06,303.536744786,1.47614934796,,,,x,1,1.46725616721,2018_Nov_14_1402,59.983936375,spanish_cond1,001,1025,
images/electrictoothbrush01a.jpg,banjo,x,sounds/animalfarm_spanish.wav,,,,,,,,,0,0,0,1,0,86,86,127,304.631761571,9.62160993367e-06,307.23763032,2.60587837046,,,,x,1,2.5841920817,2018_Nov_14_1402,59.983936375,spanish_cond1,001,1025,
images/candycane01a.jpg,lip,x,sounds/animalfarm_spanish.wav,,,,,,,,,0,0,0,1,0,87,87,200,308.331852366,9.30088572204e-06,310.221685198,1.88984309533,,,,x,1,1.86736046465,2018_Nov_14_1402,59.983936375,spanish_cond1,001,1025,
images/bottleofredwine02.jpg,pipe,x,sounds/animalfarm_spanish.wav,,,,,,,,,0,0,0,1,0,88,88,213,311.320353995,9.30088572204e-06,313.089033475,1.76869006385,,,,x,1,1.75063462008,2018_Nov_14_1402,59.983936375,spanish_cond1,001,1025,
images/blueberry02.jpg,blueberry,z,sounds/animalfarm_spanish.wav,,,,,,,,,0,0,0,1,0,89,89,46,314.202029373,9.30076930672e-06,315.672987585,1.4709684744,,,,z,1,1.45058013021,2018_Nov_14_1402,59.983936375,spanish_cond1,001,1025,
images/giraffe.jpg,lettuce,x,sounds/animalfarm_spanish.wav,,,,,,,,,0,0,0,1,0,90,90,195,316.775285623,9.30076930672e-06,317.923536733,1.14826105267,,,,x,1,1.13385248976,2018_Nov_14_1402,59.983936375,spanish_cond1,001,1025,
images/swan.jpg,swan,z,sounds/animalfarm_spanish.wav,,,,,,,,,0,0,0,1,0,91,91,54,319.01541273,9.30088572204e-06,319.840653982,0.825250873459,,,,z,1,0.817099833395,2018_Nov_14_1402,59.983936375,spanish_cond1,001,1025,
images/dreamcatcher.jpg,dream catcher,z,sounds/animalfarm_spanish.wav,,,,,,,,,0,0,0,1,0,92,92,48,320.938878264,9.62160993367e-06,323.158126649,2.21925800678,,,,z,1,2.20075836906,2018_Nov_14_1402,59.983936375,spanish_cond1,001,1025,
images/ostrich.jpg,ostrich,z,sounds/animalfarm_spanish.wav,,,,,,,,,0,0,0,1,0,93,93,76,324.258537264,9.30076930672e-06,325.575366252,1.3168382881,,,,z,1,1.30054550874,2018_Nov_14_1402,59.983936375,spanish_cond1,001,1025,
images/nailclipper03a.jpg,aquarium,x,sounds/animalfarm_spanish.wav,,,,,,,,,0,0,0,1,0,94,94,123,326.67439778,9.30088572204e-06,327.642538968,0.968150809174,,,,x,1,0.950469642878,2018_Nov_14_1402,59.983936375,spanish_cond1,001,1025,
images/snowman.jpg,globe,x,sounds/animalfarm_spanish.wav,,,,,,,,,0,0,0,1,0,95,95,180,328.754457575,8.98016151041e-06,330.543243489,1.7887955351,,,,x,1,1.76734048384,2018_Nov_14_1402,59.983936375,spanish_cond1,001,1025,
images/calculator02b.jpg,dice,x,sounds/animalfarm_spanish.wav,,,,,,,,,0,0,0,1,0,96,96,165,331.644596693,8.98016151041e-06,333.610637821,1.96605107049,,,,x,1,1.95070504968,2018_Nov_14_1402,59.983936375,spanish_cond1,001,1025,
images/cauliflower01.jpg,glue stick,x,sounds/animalfarm_spanish.wav,,,,,,,,,0,0,0,1,0,97,97,181,334.727050003,9.62160993367e-06,335.627821233,0.900781492819,,,,x,1,0.883815527079,2018_Nov_14_1402,59.983936375,spanish_cond1,001,1025,
images/backpack01b.jpg,swallow,x,sounds/animalfarm_spanish.wav,,,,,,,,,0,0,0,1,0,98,98,228,336.759673407,8.98004509509e-06,337.728292464,0.968628037022,,,,x,1,0.950463228626,2018_Nov_14_1402,59.983936375,spanish_cond1,001,1025,
images/sock03.jpg,sock,z,sounds/animalfarm_spanish.wav,,,,,,,,,0,0,0,1,0,99,99,90,338.834147261,8.98004509509e-06,339.71210488,0.877967560664,,,,z,1,0.867109021987,2018_Nov_14_1402,59.983936375,spanish_cond1,001,1025,
images/toothbrush03a.jpg,parrot,x,sounds/animalfarm_spanish.wav,,,,,,,,,0,0,0,1,0,100,100,210,340.804938219,9.30076930672e-06,341.696091766,0.89116316929,,,,x,1,0.86729215167,2018_Nov_14_1402,59.983936375,spanish_cond1,001,1025,
images/pictureframe04.jpg,picture frame,z,sounds/animalfarm_spanish.wav,,,,,,,,,0,0,0,1,0,101,101,41,342.818033763,9.30076930672e-06,343.796417712,0.978393249214,,,,z,1,0.967136699823,2018_Nov_14_1402,59.983936375,spanish_cond1,001,1025,
images/toucan.jpg,toucan,z,sounds/animalfarm_spanish.wav,,,,,,,,,0,0,0,1,0,102,102,81,344.895854307,9.30088572204e-06,345.963605277,1.0677609127,,,,z,1,1.05047968135,2018_Nov_14_1402,59.983936375,spanish_cond1,001,1025,
images/baseball01a.jpg,baseball,z,sounds/animalfarm_spanish.wav,,,,,,,,,0,0,0,1,0,103,103,74,347.096187084,8.98016151041e-06,350.097780409,3.00160326774,,,,None,0,,2018_Nov_14_1402,59.983936375,spanish_cond1,001,1025,
images/squirrel.jpg,binder,x,sounds/animalfarm_spanish.wav,,,,,,,,,0,0,0,1,0,104,104,132,351.201222127,1.02629419416e-05,353.365395267,2.16418308229,,,,x,1,2.15073955897,2018_Nov_14_1402,59.983936375,spanish_cond1,001,1025,
images/camera01a.jpg,bull,x,sounds/animalfarm_spanish.wav,,,,,,,,,0,0,0,1,0,105,105,138,354.476692964,9.30076930672e-06,356.266082469,1.78939912573,,,,x,1,1.76732669305,2018_Nov_14_1402,59.983936375,spanish_cond1,001,1025,
images/straw.jpg,straw,z,sounds/animalfarm_spanish.wav,,,,,,,,,0,0,0,1,0,106,106,109,357.35751812,9.30076930672e-06,358.750027181,1.39251900325,,,,z,1,1.38391286484,2018_Nov_14_1402,59.983936375,spanish_cond1,001,1025,
images/button07.jpg,radish,x,sounds/animalfarm_spanish.wav,,,,,,,,,0,0,0,1,0,107,107,215,359.861971766,9.62160993367e-06,360.88386171,1.02189988678,,,,x,1,1.00047658652,2018_Nov_14_1402,59.983936375,spanish_cond1,001,1025,
images/beermug01b.jpg,beer mug,z,sounds/animalfarm_spanish.wav,,,,,,,,,0,0,0,1,0,108,108,111,362.000637907,9.62160993367e-06,363.384646667,1.38401870173,,,,z,1,1.3674164298,2018_Nov_14_1402,59.983936375,spanish_cond1,001,1025,
images/nailpolish02b.jpg,nail polish,z,sounds/animalfarm_spanish.wav,,,,,,,,,0,0,0,1,0,109,109,94,364.492857777,9.30076930672e-06,365.735041967,1.24219445302,,,,z,1,1.23387311189,2018_Nov_14_1402,59.983936375,spanish_cond1,001,1025,
images/binder03b.jpg,dj mixer,x,sounds/animalfarm_spanish.wav,,,,,,,,,0,0,0,1,0,110,110,167,366.84873703,9.30088572204e-06,368.602389603,1.75366219517,,,,x,1,1.73399001348,2018_Nov_14_1402,59.983936375,spanish_cond1,001,1025,
images/wallet01.jpg,lamp,x,sounds/animalfarm_spanish.wav,,,,,,,,,0,0,0,1,0,111,111,193,369.707364993,8.98004509509e-06,370.486171134,0.778815441998,,,,x,1,0.767087437678,2018_Nov_14_1402,59.983936375,spanish_cond1,001,1025,
images/bench02.jpg,electric toothbrush,x,sounds/animalfarm_spanish.wav,,,,,,,,,0,0,0,1,0,112,112,172,371.595303667,9.30088572204e-06,372.469986116,0.874693033169,,,,x,1,0.850443889271,2018_Nov_14_1402,59.983936375,spanish_cond1,001,1025,
images/plant01.jpg,plant,z,sounds/animalfarm_spanish.wav,,,,,,,,,0,0,0,1,0,113,113,47,373.581457963,8.98016151041e-06,374.587160003,1.0057116613,,,,z,1,0.983801832306,2018_Nov_14_1402,59.983936375,spanish_cond1,001,1025,
images/flamingo.jpg,flamingo,z,sounds/animalfarm_spanish.wav,,,,,,,,,0,0,0,1,0,114,114,52,375.68551161,8.65932088345e-06,376.654316042,0.968813732616,,,,z,1,0.95045970066,2018_Nov_14_1402,59.983936375,spanish_cond1,001,1025,
images/remotecontrol01c.jpg,remote control,z,sounds/animalfarm_spanish.wav,,,,,,,,,0,0,0,1,0,115,115,85,377.765459475,9.30088572204e-06,378.788165966,1.02271643397,,,,z,1,1.00047017203,2018_Nov_14_1402,59.983936375,spanish_cond1,001,1025,
images/chameleon.jpg,50 dollar bill,x,sounds/animalfarm_spanish.wav,,,,,,,,,0,0,0,1,0,116,116,120,379.901048651,8.98004509509e-06,380.93869321,1.03765353956,,,,x,1,1.01715037844,2018_Nov_14_1402,59.983936375,spanish_cond1,001,1025,
images/peach01.jpg,peach,z,sounds/animalfarm_spanish.wav,,,,,,,,,0,0,0,1,0,117,117,106,382.067140324,8.98004509509e-06,383.005850532,0.938719829661,,,,z,1,0.917120134691,2018_Nov_14_1402,59.983936375,spanish_cond1,001,1025,
images/envelope02a.jpg,grand piano,x,sounds/animalfarm_spanish.wav,,,,,,,,,0,0,0,1,0,118,118,182,384.128590475,8.98004509509e-06,385.006339627,0.877759414841,,,,x,1,0.86711479479,2018_Nov_14_1402,59.983936375,spanish_cond1,001,1025,
images/ceilingfan02.jpg,paper clip,x,sounds/animalfarm_spanish.wav,,,,,,,,,0,0,0,1,0,119,119,208,386.105238378,9.30088572204e-06,387.290218078,1.18498964247,,,,x,1,1.16718115122,2018_Nov_14_1402,59.983936375,spanish_cond1,001,1025,
images/coffeepot03b.jpg,coffee pot,z,sounds/animalfarm_spanish.wav,,,,,,,,,0,0,0,1,0,120,120,107,388.411699525,8.98004509509e-06,389.940850357,1.52916013333,,,,z,1,1.51724803692,2018_Nov_14_1402,59.983936375,spanish_cond1,001,1025,
images/panda.jpg,panda,z,sounds/animalfarm_spanish.wav,,,,,,,,,0,0,0,1,0,121,121,83,391.050576538,8.98016151041e-06,392.158052884,1.1074859678,,,,z,1,1.08383239689,2018_Nov_14_1402,59.983936375,spanish_cond1,001,1025,
images/charcoalbarbecue.jpg,charcoal barbecue,z,sounds/animalfarm_spanish.wav,,,,,,,,,0,0,0,1,0,122,122,77,393.275169363,8.98016151041e-06,394.275225168,1.00006510573,,,,z,1,0.9838043981,2018_Nov_14_1402,59.983936375,spanish_cond1,001,1025,
images/broom02.jpg,broom,z,sounds/animalfarm_spanish.wav,,,,,,,,,0,0,0,1,0,123,123,116,395.368674605,8.65932088345e-06,396.375727508,1.00706220348,,,,z,1,0.983797663008,2018_Nov_14_1402,59.983936375,spanish_cond1,001,1025,
images/bat.jpg,hand,x,sounds/animalfarm_spanish.wav,,,,,,,,,0,0,0,1,0,124,124,185,397.474078474,8.65943729877e-06,398.442895093,0.968825919903,,,,x,1,0.950440778397,2018_Nov_14_1402,59.983936375,spanish_cond1,001,1025,
images/antelope.jpg,antelope,z,sounds/animalfarm_spanish.wav,,,,,,,,,0,0,0,1,0,125,125,12,399.546871768,9.30076930672e-06,400.626762223,1.07989975647,,,,z,1,1.06715924619,2018_Nov_14_1402,59.983936375,spanish_cond1,001,1025,
images/blackolive.jpg,tank,x,sounds/animalfarm_spanish.wav,,,,,,,,,0,0,0,1,0,126,126,229,401.742466582,9.30076930672e-06,402.843953205,1.10149656492,,,,x,1,1.08382341673,2018_Nov_14_1402,59.983936375,spanish_cond1,001,1025,
images/cola.jpg,comb,x,sounds/animalfarm_spanish.wav,,,,,,,,,0,0,0,1,0,127,127,157,403.965452611,9.30076930672e-06,404.944298714,0.978855724214,,,,x,1,0.966967681539,2018_Nov_14_1402,59.983936375,spanish_cond1,001,1025,
images/pouch01b.jpg,pouch,z,sounds/animalfarm_spanish.wav,,,,,,,,,0,0,0,1,0,128,128,25,406.0568424,8.65932088345e-06,407.628442463,1.5716096852,,,,z,1,1.55061037396,2018_Nov_14_1402,59.983936375,spanish_cond1,001,1025,
images/medal01.jpg,medal,z,sounds/animalfarm_spanish.wav,,,,,,,,,0,0,0,1,0,129,129,115,408.729420107,9.62160993367e-06,409.795619445,1.06620992196,,,,z,1,1.05047326698,2018_Nov_14_1402,59.983936375,spanish_cond1,001,1025,
images/croissant02b.jpg,croissant,z,sounds/animalfarm_spanish.wav,,,,,,,,,0,0,0,1,0,130,130,39,410.906793987,8.98016151041e-06,411.746105445,0.839321079198,,,,z,1,0.817104002694,2018_Nov_14_1402,59.983936375,spanish_cond1,001,1025,
images/parkbench03.jpg,park bench,z,sounds/animalfarm_spanish.wav,,,,,,,,,0,0,0,1,0,131,131,71,412.851300206,9.30088572204e-06,413.829943935,0.978653351427,,,,z,1,0.96714664204,2018_Nov_14_1402,59.983936375,spanish_cond1,001,1025,
images/parrot01.jpg,chameleon,x,sounds/animalfarm_spanish.wav,,,,,,,,,0,0,0,1,0,132,132,150,414.943837201,8.98004509509e-06,416.08072817,1.13690026989,,,,x,1,1.11741859466,2018_Nov_14_1402,59.983936375,spanish_cond1,001,1025,
images/sportshorts02.jpg,tape,x,sounds/animalfarm_spanish.wav,,,,,,,,,0,0,0,1,0,133,133,230,417.188248455,9.62149351835e-06,418.464386706,1.27614851412,,,,x,1,1.26721075352,2018_Nov_14_1402,59.983936375,spanish_cond1,001,1025,
images/stapler03a.jpg,candy cane,x,sounds/animalfarm_spanish.wav,,,,,,,,,0,0,0,1,0,134,134,145,419.575264905,8.98004509509e-06,420.914971647,1.33971668442,,,,x,1,1.31722699781,2018_Nov_14_1402,59.983936375,spanish_cond1,001,1025,
images/diaper01a.jpg,camera,x,sounds/animalfarm_spanish.wav,,,,,,,,,0,0,0,1,0,135,135,143,422.035354635,9.30088572204e-06,423.215552435,1.1802080624,,,,x,1,1.16719750792,2018_Nov_14_1402,59.983936375,spanish_cond1,001,1025,
images/pingpongpaddle01c (1).jpg,ping pong paddle,z,sounds/animalfarm_spanish.wav,,,,,,,,,0,0,0,1,0,136,136,10,424.327208374,9.30076930672e-06,425.249493025,0.922294593882,,,,z,1,0.900593231549,2018_Nov_14_1402,59.983936375,spanish_cond1,001,1025,
images/lightswitch02a.jpg,fork,x,sounds/animalfarm_spanish.wav,,,,,,,,,0,0,0,1,0,137,137,177,426.361417726,8.98004509509e-06,427.316488706,0.955080601154,,,,x,1,0.933775004349,2018_Nov_14_1402,59.983936375,spanish_cond1,001,1025,
images/teapot.jpg,light switch,x,sounds/animalfarm_spanish.wav,,,,,,,,,0,0,0,1,0,138,138,197,428.434610955,9.30088572204e-06,429.26696797,0.832366636838,,,,x,1,0.817064554431,2018_Nov_14_1402,59.983936375,spanish_cond1,001,1025,
images/8ball.jpg,nail clipper,x,sounds/animalfarm_spanish.wav,,,,,,,,,0,0,0,1,0,139,139,206,430.383415111,8.98004509509e-06,431.450835101,1.06742961123,,,,x,1,1.05046877707,2018_Nov_14_1402,59.983936375,spanish_cond1,001,1025,
images/pineapple01a.jpg,pineapple,z,sounds/animalfarm_spanish.wav,,,,,,,,,0,0,0,1,0,140,140,51,432.564154282,8.98004509509e-06,433.85141406,1.28726907924,,,,z,1,1.2672091499,2018_Nov_14_1402,59.983936375,spanish_cond1,001,1025,
images/screw03c.jpg,screw,z,sounds/animalfarm_spanish.wav,,,,,,,,,0,0,0,1,0,141,141,84,434.945712437,9.30088572204e-06,436.135299889,1.1895973935,,,,z,1,1.16718820704,2018_Nov_14_1402,59.983936375,spanish_cond1,001,1025,
images/leek.jpg,donut,x,sounds/animalfarm_spanish.wav,,,,,,,,,0,0,0,1,0,142,142,169,437.236793246,8.98004509509e-06,438.685924053,1.44914042845,,,,x,1,1.43392205343,2018_Nov_14_1402,59.983936375,spanish_cond1,001,1025,
images/donut.jpg,rhinoceros,x,sounds/animalfarm_spanish.wav,,,,,,,,,0,0,0,1,0,143,143,216,439.812156932,8.98004509509e-06,441.886684667,2.07453735662,,,,x,1,2.05072855833,2018_Nov_14_1402,59.983936375,spanish_cond1,001,1025,
images/grasshopper.jpg,cauliflower,x,sounds/animalfarm_spanish.wav,,,,,,,,,0,0,0,1,0,144,144,148,442.980952576,8.65943729877e-06,444.353946608,1.37300333194,,,,x,1,1.35056014941,2018_Nov_14_1402,59.983936375,spanish_cond1,001,1025,
images/notebook02b.jpg,notebook,z,sounds/animalfarm_spanish.wav,,,,,,,,,0,0,0,1,0,145,145,7,445.459102561,9.30076930672e-06,446.421106495,0.96201451763,,,,z,1,0.950463870075,2018_Nov_14_1402,59.983936375,spanish_cond1,001,1025,
images/swallow.jpg,mattress,x,sounds/animalfarm_spanish.wav,,,,,,,,,0,0,0,1,0,146,146,202,447.523270794,9.30076930672e-06,449.171762603,1.64850175125,,,,x,1,1.63394052675,2018_Nov_14_1402,59.983936375,spanish_cond1,001,1025,
images/candle08a.jpg,screw driver,x,sounds/animalfarm_spanish.wav,,,,,,,,,0,0,0,1,0,147,147,221,450.286079217,9.62149351835e-06,450.972200191,0.686130274786,,,,x,1,0.667062966852,2018_Nov_14_1402,59.983936375,spanish_cond1,001,1025,
images/safe.jpg,safe,z,sounds/animalfarm_spanish.wav,,,,,,,,,0,0,0,1,0,148,148,78,452.083493398,9.30076930672e-06,452.939336249,0.855852793204,,,,z,1,0.83376304165,2018_Nov_14_1402,59.983936375,spanish_cond1,001,1025,
images/ladder.jpg,ladder,z,sounds/animalfarm_spanish.wav,,,,,,,,,0,0,0,1,0,149,149,113,454.032355604,8.98016151041e-06,454.723106459,0.690760155441,,,,z,1,0.667065853369,2018_Nov_14_1402,59.983936375,spanish_cond1,001,1025,
images/eyedrops.jpg,bicycle,x,sounds/animalfarm_spanish.wav,,,,,,,,,0,0,0,1,0,150,150,131,455.82388622,9.62149351835e-06,456.523538273,0.699661995634,,,,x,1,0.6837357966,2018_Nov_14_1402,59.983936375,spanish_cond1,001,1025,
images/lemon02.jpg,lemon,z,sounds/animalfarm_spanish.wav,,,,,,,,,0,0,0,1,0,151,151,14,457.635666629,8.98016151041e-06,458.39064954,0.754992211354,,,,z,1,0.733656787896,2018_Nov_14_1402,59.983936375,spanish_cond1,001,1025,
images/bracelet02a.jpg,chess knight,x,sounds/animalfarm_spanish.wav,,,,,,,,,0,0,0,1,0,152,152,152,459.499693554,8.98004509509e-06,460.441134674,0.941450740793,,,,x,1,0.917115323944,2018_Nov_14_1402,59.983936375,spanish_cond1,001,1025,
images/drink.jpg,drink,z,sounds/animalfarm_spanish.wav,,,,,,,,,0,0,0,1,0,153,153,117,461.541198272,9.62149351835e-06,462.725031086,1.18384275597,,,,z,1,1.16718050989,2018_Nov_14_1402,59.983936375,spanish_cond1,001,1025,
images/radish01.jpg,raisin,x,sounds/animalfarm_spanish.wav,,,,,,,,,0,0,0,1,0,154,154,214,463.83582686,9.30076930672e-06,465.058926744,1.22310950549,,,,x,1,1.2005332252,2018_Nov_14_1402,59.983936375,spanish_cond1,001,1025,
images/lettuce.jpg,mushroom,x,sounds/animalfarm_spanish.wav,,,,,,,,,0,0,0,1,0,155,155,205,466.182257769,9.30076930672e-06,467.242776876,1.06052904949,,,,x,1,1.05048641656,2018_Nov_14_1402,59.983936375,spanish_cond1,001,1025,
images/paperclip04.jpg,eye drops,x,sounds/animalfarm_spanish.wav,,,,,,,,,0,0,0,1,0,156,156,174,468.348783373,8.65932088345e-06,469.27666487,0.927897211164,,,,x,1,0.917114041164,2018_Nov_14_1402,59.983936375,spanish_cond1,001,1025,
images/printer03a.jpg,printer,z,sounds/animalfarm_spanish.wav,,,,,,,,,0,0,0,1,0,157,157,72,470.3857788,8.98004509509e-06,471.577146555,1.19137737667,,,,z,1,1.16717409552,2018_Nov_14_1402,59.983936375,spanish_cond1,001,1025,
images/apricot.jpg,apricot,z,sounds/animalfarm_spanish.wav,,,,,,,,,0,0,0,1,0,158,158,32,472.693755017,8.98004509509e-06,473.944407437,1.25066204148,,,,z,1,1.23388112988,2018_Nov_14_1402,59.983936375,spanish_cond1,001,1025,
images/banana04a.jpg,banana,z,sounds/animalfarm_spanish.wav,,,,,,,,,0,0,0,1,0,159,159,118,475.049854282,8.65943729877e-06,476.011558986,0.961714005214,,,,z,1,0.950467397925,2018_Nov_14_1402,59.983936375,spanish_cond1,001,1025,
images/bed.jpg,bed,z,sounds/animalfarm_spanish.wav,,,,,,,,,0,0,0,1,0,160,160,103,477.182919089,9.30076930672e-06,478.445708429,1.2628153176,,,,z,1,1.25070052757,2018_Nov_14_1402,59.983936375,spanish_cond1,001,1025,
images/lightbulb03b.jpg,treadmill,x,sounds/animalfarm_spanish.wav,,,,,,,,,0,0,0,1,0,161,161,234,479.547849957,9.30076930672e-06,480.729364944,1.18152428779,,,,x,1,1.16718692414,2018_Nov_14_1402,59.983936375,spanish_cond1,001,1025,
images/computerkeyboard01a.jpg,computer keyboard,z,sounds/animalfarm_spanish.wav,,,,,,,,,0,0,0,1,0,162,162,61,481.846407978,9.30088572204e-06,482.646480268,0.80008191138,,,,z,1,0.78374968376,2018_Nov_14_1402,59.983936375,spanish_cond1,001,1025,
images/fryingpan01.jpg,frying pan,z,sounds/animalfarm_spanish.wav,,,,,,,,,0,0,0,1,0,163,163,45,483.747348547,8.65943729877e-06,485.097093752,1.34975482733,,,,z,1,1.33390688349,2018_Nov_14_1402,59.983936375,spanish_cond1,001,1025,
images/raisin.jpg,ruler,x,sounds/animalfarm_spanish.wav,,,,,,,,,0,0,0,1,0,164,164,218,486.202210258,9.30076930672e-06,487.180905303,0.978705307585,,,,x,1,0.967133171856,2018_Nov_14_1402,59.983936375,spanish_cond1,001,1025,
images/bus.jpg,microphone,x,sounds/animalfarm_spanish.wav,,,,,,,,,0,0,0,1,0,165,165,203,488.298059626,8.98004509509e-06,489.314759396,1.01670939161,,,,x,1,1.00047851074,2018_Nov_14_1402,59.983936375,spanish_cond1,001,1025,
images/scissors04a.jpg,leek,x,sounds/animalfarm_spanish.wav,,,,,,,,,0,0,0,1,0,166,166,194,490.409359248,8.98016151041e-06,491.248550757,0.839200489339,,,,x,1,0.817093418911,2018_Nov_14_1402,59.983936375,spanish_cond1,001,1025,
images/chessknight02b (1).jpg,cockroach,x,sounds/animalfarm_spanish.wav,,,,,,,,,0,0,0,1,0,167,167,155,492.357853911,9.94221772999e-06,493.265710757,0.90786678798,,,,x,1,0.883789228275,2018_Nov_14_1402,59.983936375,spanish_cond1,001,1025,
images/bowtie.jpg,bowtie,z,sounds/animalfarm_spanish.wav,,,,,,,,,0,0,0,1,0,168,168,89,494.376248674,9.30076930672e-06,496.19974426,1.82350552769,,,,z,1,1.80065952393,2018_Nov_14_1402,59.983936375,spanish_cond1,001,1025,
images/cake.jpg,cake,z,sounds/animalfarm_spanish.wav,,,,,,,,,0,0,0,1,0,169,169,23,497.312135925,9.30076930672e-06,497.983511583,0.671385279042,,,,z,1,0.65039109916,2018_Nov_14_1402,59.983936375,spanish_cond1,001,1025,
images/tissuebox03.jpg,tissue box,z,sounds/animalfarm_spanish.wav,,,,,,,,,0,0,0,1,0,170,170,58,499.109263064,8.65943729877e-06,499.700597529,0.591343765496,,,,x,0,0.567037854576,2018_Nov_14_1402,59.983936375,spanish_cond1,001,1025,
images/puzzle.jpg,puzzle,z,sounds/animalfarm_spanish.wav,,,,,,,,,0,0,0,1,0,171,171,57,500.820657875,9.30076930672e-06,501.934467113,1.11381885922,,,,z,1,1.10048790788,2018_Nov_14_1402,59.983936375,spanish_cond1,001,1025,
images/hairdryer03a.jpg,hairdryer,z,sounds/animalfarm_spanish.wav,,,,,,,,,0,0,0,1,0,172,172,119,503.033500246,8.98016151041e-06,504.335043507,1.30155320372,,,,z,1,1.28388903558,2018_Nov_14_1402,59.983936375,spanish_cond1,001,1025,
images/computermouse02a.jpg,world map,x,sounds/animalfarm_spanish.wav,,,,,,,,,0,0,0,1,0,173,173,239,505.436479136,9.30076930672e-06,506.618913941,1.18244474754,,,,x,1,1.16718115122,2018_Nov_14_1402,59.983936375,spanish_cond1,001,1025,
images/volleyball.jpg,volley ball,z,sounds/animalfarm_spanish.wav,,,,,,,,,0,0,0,1,0,174,174,2,507.752336669,8.65932088345e-06,508.852796354,1.10046898539,,,,z,1,1.08383079316,2018_Nov_14_1402,59.983936375,spanish_cond1,001,1025,
images/parkingmeter.jpg,ear,x,sounds/animalfarm_spanish.wav,,,,,,,,,0,0,0,1,0,175,175,171,509.954658537,8.98016151041e-06,510.886606733,0.931957497261,,,,x,1,0.917113399599,2018_Nov_14_1402,59.983936375,spanish_cond1,001,1025,
images/desktopcomputer.jpg,desktop computer,z,sounds/animalfarm_spanish.wav,,,,,,,,,0,0,0,1,0,176,176,16,512.022145877,9.30076930672e-06,512.670364114,0.648227858357,,,,z,1,0.6337057614,2018_Nov_14_1402,59.983936375,spanish_cond1,001,1025,
images/barrel01.jpg,barrel,z,sounds/animalfarm_spanish.wav,,,,,,,,,0,0,0,1,0,177,177,9,513.798708919,9.62149351835e-06,514.454147152,0.655448496458,,,,x,0,0.633701912826,2018_Nov_14_1402,59.983936375,spanish_cond1,001,1025,
images/hairband.jpg,hairband,z,sounds/animalfarm_spanish.wav,,,,,,,,,0,0,0,1,0,178,178,66,515.56367096,8.65943729877e-06,516.854723867,1.29106220743,,,,z,1,1.26721331931,2018_Nov_14_1402,59.983936375,spanish_cond1,001,1025,
images/graduationcap.jpg,graduation cap,z,sounds/animalfarm_spanish.wav,,,,,,,,,0,0,0,1,0,179,179,35,517.957258274,9.30088572204e-06,519.188601565,1.23135291238,,,,z,1,1.21718488762,2018_Nov_14_1402,59.983936375,spanish_cond1,001,1025,
images/pepper05a.jpg,lighter,x,sounds/animalfarm_spanish.wav,,,,,,,,,0,0,0,1,0,180,180,198,520.309971402,9.30076930672e-06,521.189091301,0.879130162299,,,,x,1,0.867097796756,2018_Nov_14_1402,59.983936375,spanish_cond1,001,1025,
images/birthdaycandle.jpg,birthday candle,z,sounds/animalfarm_spanish.wav,,,,,,,,,0,0,0,1,0,181,181,55,522.285435215,9.62160993367e-06,523.973095955,1.6876710027,,,,z,1,1.66730671225,2018_Nov_14_1402,59.983936375,spanish_cond1,001,1025,
images/ruler02b.jpg,watermelon,x,sounds/animalfarm_spanish.wav,,,,,,,,,0,0,0,1,0,182,182,238,525.07603607,8.65932088345e-06,525.806875674,0.73084890435,,,,x,1,0.717080173315,2018_Nov_14_1402,59.983936375,spanish_cond1,001,1025,
images/tape01a.jpg,tie,x,sounds/animalfarm_spanish.wav,,,,,,,,,0,0,0,1,0,183,183,232,526.932889182,9.30088572204e-06,528.290794408,1.35791484755,,,,x,1,1.33388218819,2018_Nov_14_1402,59.983936375,spanish_cond1,001,1025,
images/screwdriver02b.jpg,cola,x,sounds/animalfarm_spanish.wav,,,,,,,,,0,0,0,1,0,184,184,158,529.384948142,9.30076930672e-06,530.17458075,0.789642550517,,,,x,1,0.767081023194,2018_Nov_14_1402,59.983936375,spanish_cond1,001,1025,
images/gps.jpg,gps,z,sounds/animalfarm_spanish.wav,,,,,,,,,0,0,0,1,0,185,185,21,531.292876187,9.30088572204e-06,532.391808293,1.09894172789,,,,z,1,1.08385196049,2018_Nov_14_1402,59.983936375,spanish_cond1,001,1025,
images/eraser.jpg,eraser,z,sounds/animalfarm_spanish.wav,,,,,,,,,0,0,0,1,0,186,186,110,533.499234928,8.65932088345e-06,534.242240316,0.743014688487,,,,z,1,0.73375653103,2018_Nov_14_1402,59.983936375,spanish_cond1,001,1025,
images/basketball01.jpg,basket ball,z,sounds/animalfarm_spanish.wav,,,,,,,,,0,0,0,1,0,187,187,33,535.381433717,8.98004509509e-06,536.542776844,1.16135274875,,,,z,1,1.15049100271,2018_Nov_14_1402,59.983936375,spanish_cond1,001,1025,
images/lamp04b.jpg,parking meter,x,sounds/animalfarm_spanish.wav,,,,,,,,,0,0,0,1,0,188,188,209,537.663047581,9.30076930672e-06,539.126739613,1.46370165306,,,,z,0,1.45057948877,2018_Nov_14_1402,59.983936375,spanish_cond1,001,1025,
images/bullet (2).jpg,rubber glove,x,sounds/animalfarm_spanish.wav,,,,,,,,,0,0,0,1,0,189,189,217,540.231518082,9.30076930672e-06,541.810724607,1.57921614673,,,,x,1,1.5672819207,2018_Nov_14_1402,59.983936375,spanish_cond1,001,1025,
images/battery03b.jpg,battery,z,sounds/animalfarm_spanish.wav,,,,,,,,,0,0,0,1,0,190,190,34,542.920548286,8.65943729877e-06,543.861451562,0.940912576509,,,,z,1,0.917358748731,2018_Nov_14_1402,59.983936375,spanish_cond1,001,1025,
images/diploma01.jpg,glasses,x,sounds/animalfarm_spanish.wav,,,,,,,,,0,0,0,1,0,191,191,179,544.992096554,9.62160993367e-06,546.945313465,1.95322685293,,,,x,1,1.93405563233,2018_Nov_14_1402,59.983936375,spanish_cond1,001,1025,
images/plate01b.jpg,plate,z,sounds/animalfarm_spanish.wav,,,,,,,,,0,0,0,1,0,192,192,3,548.044481619,8.65943729877e-06,548.812410941,0.767938943114,,,,z,1,0.750413645641,2018_Nov_14_1402,59.983936375,spanish_cond1,001,1025,
images/coin01b.jpg,arrow,x,sounds/animalfarm_spanish.wav,,,,,,,,,0,0,0,1,0,193,193,124,549.9154245,9.62160993367e-06,550.712866584,0.797451064107,,,,x,1,0.783760908875,2018_Nov_14_1402,59.983936375,spanish_cond1,001,1025,
images/belt02a.jpg,snowman,x,sounds/animalfarm_spanish.wav,,,,,,,,,0,0,0,1,0,194,194,224,551.816531842,8.98016151041e-06,552.596642984,0.780120442389,,,,x,1,0.767077816068,2018_Nov_14_1402,59.983936375,spanish_cond1,001,1025,
images/sunglasses03a.jpg,sun glasses,z,sounds/animalfarm_spanish.wav,,,,,,,,,0,0,0,1,0,195,195,17,553.705129591,8.98004509509e-06,555.097247055,1.39212740702,,,,z,1,1.3839000361,2018_Nov_14_1402,59.983936375,spanish_cond1,001,1025,
images/tulip02.jpg,sport shorts,x,sounds/animalfarm_spanish.wav,,,,,,,,,0,0,0,1,0,196,196,225,556.192527791,8.98016151041e-06,557.831237069,1.63871857896,,,,x,1,1.61728469504,2018_Nov_14_1402,59.983936375,spanish_cond1,001,1025,
images/lollipop03b.jpg,lollipop,z,sounds/animalfarm_spanish.wav,,,,,,,,,0,0,0,1,0,197,197,42,558.923081314,8.98004509509e-06,559.965096615,1.04202492163,,,,z,1,1.03381935961,2018_Nov_14_1402,59.983936375,spanish_cond1,001,1025,
images/cactus.jpg,cactus,z,sounds/animalfarm_spanish.wav,,,,,,,,,0,0,0,1,0,198,198,70,561.076958134,9.30076930672e-06,563.165882886,2.08893501514,,,,z,1,2.06743474281,2018_Nov_14_1402,59.983936375,spanish_cond1,001,1025,
,,,sounds/animalfarm_spanish.wav,,,,,,,,,0,0,0,1,,,,,,,,,,,,,,,2018_Nov_14_1402,59.983936375,spanish_cond1,001,1025,
images/treadmill.jpg,lily,x,sounds/greatgatsby_english.wav,,,,,,,,,0,1,1,0,0,0,0,199,584.29828926,4.55419067293e-05,586.588194318,2.28994258191,,,574.168663188,x,1,2.26747630781,2018_Nov_14_1402,59.983936375,spanish_cond1,001,1025,
images/blackolive.jpg,tank,x,sounds/greatgatsby_english.wav,,,,,,,,,0,1,1,0,0,1,1,229,587.70196988,8.98016151041e-06,588.538605911,0.836645331467,,,,x,1,0.8170738552,2018_Nov_14_1402,59.983936375,spanish_cond1,001,1025,
images/cockroach02.jpg,belt,x,sounds/greatgatsby_english.wav,,,,,,,,,0,1,1,0,0,2,2,129,589.63555983,9.30076930672e-06,591.939452349,2.30390214,,,,x,1,2.28412315948,2018_Nov_14_1402,59.983936375,spanish_cond1,001,1025,
images/dice05a.jpg,band aid,x,sounds/greatgatsby_english.wav,,,,,,,,,0,1,1,0,0,3,3,126,593.051469096,8.98016151041e-06,594.223328235,1.17186908179,,,,x,1,1.15051505656,2018_Nov_14_1402,59.983936375,spanish_cond1,001,1025,
images/key03b.jpg,cigar,x,sounds/greatgatsby_english.wav,,,,,,,,,0,1,1,0,0,4,4,153,595.323764507,8.98016151041e-06,596.407387155,1.08364285261,,,,x,1,1.06732954737,2018_Nov_14_1402,59.983936375,spanish_cond1,001,1025,
images/lightbulb03b.jpg,treadmill,x,sounds/greatgatsby_english.wav,,,,,,,,,0,1,1,0,0,5,5,234,597.508621052,9.30088572204e-06,598.30764267,0.799031560891,,,,x,1,0.783757060184,2018_Nov_14_1402,59.983936375,spanish_cond1,001,1025,
images/hand01a.jpg,cupcake,x,sounds/greatgatsby_english.wav,,,,,,,,,0,1,1,0,0,6,6,163,599.418781292,8.98016151041e-06,600.35814384,0.939371848828,,,,x,1,0.917126228334,2018_Nov_14_1402,59.983936375,spanish_cond1,001,1025,
images/basketball01.jpg,basket ball,z,sounds/greatgatsby_english.wav,,,,,,,,,0,1,1,0,0,7,7,33,601.494634233,9.30076930672e-06,602.842062253,1.34743764205,,,,z,1,1.33388667821,2018_Nov_14_1402,59.983936375,spanish_cond1,001,1025,
images/highlighter03b.jpg,coin,x,sounds/greatgatsby_english.wav,,,,,,,,,0,1,1,0,0,8,8,156,603.943085118,9.62160993367e-06,604.77585618,0.832781004021,,,,x,1,0.817088929005,2018_Nov_14_1402,59.983936375,spanish_cond1,001,1025,
images/diploma01.jpg,glasses,x,sounds/greatgatsby_english.wav,,,,,,,,,0,1,1,0,0,9,9,179,605.906084239,8.98016151041e-06,607.326574956,1.42051605403,,,,x,1,1.40058890183,2018_Nov_14_1402,59.983936375,spanish_cond1,001,1025,
images/lantern03.jpg,lantern,z,sounds/greatgatsby_english.wav,,,,,,,,,0,1,1,0,0,10,10,5,608.43094002,9.30076930672e-06,610.327196187,1.89626610838,,,,z,1,1.88402335206,2018_Nov_14_1402,59.983936375,spanish_cond1,001,1025,
images/desktopcomputer.jpg,desktop computer,z,sounds/greatgatsby_english.wav,,,,,,,,,0,1,1,0,0,11,11,16,611.462308776,8.98004509509e-06,612.210979,0.74867984571,,,,z,1,0.733715479146,2018_Nov_14_1402,59.983936375,spanish_cond1,001,1025,
images/remotecontrol01c.jpg,remote control,z,sounds/greatgatsby_english.wav,,,,,,,,,0,1,1,0,0,12,12,85,613.319978114,8.98004509509e-06,614.111446831,0.791478338535,,,,z,1,0.76709385193,2018_Nov_14_1402,59.983936375,spanish_cond1,001,1025,
images/bowtie.jpg,bowtie,z,sounds/greatgatsby_english.wav,,,,,,,,,0,1,1,0,0,13,13,89,615.221447546,9.30088572204e-06,616.828771391,1.6073331458,,,,z,1,1.58395956131,2018_Nov_14_1402,59.983936375,spanish_cond1,001,1025,
images/pipe.jpg,icecube,x,sounds/greatgatsby_english.wav,,,,,,,,,0,1,1,0,0,14,14,188,617.937459409,8.98016151041e-06,618.829244771,0.891794983181,,,,x,1,0.883754590643,2018_Nov_14_1402,59.983936375,spanish_cond1,001,1025,
images/radish01.jpg,raisin,x,sounds/greatgatsby_english.wav,,,,,,,,,0,1,1,0,0,15,15,214,619.939329193,9.30088572204e-06,620.763061789,0.823742217384,,,,x,1,0.800441115047,2018_Nov_14_1402,59.983936375,spanish_cond1,001,1025,
images/seagull.jpg,seagull,z,sounds/greatgatsby_english.wav,,,,,,,,,0,1,1,0,0,16,16,50,621.868334805,8.98004509509e-06,622.713540091,0.845214587403,,,,z,1,0.833799282671,2018_Nov_14_1402,59.983936375,spanish_cond1,001,1025,
images/pepper05a.jpg,lighter,x,sounds/greatgatsby_english.wav,,,,,,,,,0,1,1,0,0,17,17,198,623.833387481,8.65932088345e-06,625.180767715,1.3473901758,,,,x,1,1.33388539543,2018_Nov_14_1402,59.983936375,spanish_cond1,001,1025,
images/safe.jpg,safe,z,sounds/greatgatsby_english.wav,,,,,,,,,0,1,1,0,0,18,18,78,626.290628918,8.98004509509e-06,627.064397867,0.7737785707,,,,z,1,0.750251362566,2018_Nov_14_1402,59.983936375,spanish_cond1,001,1025,
images/headphones02b.jpg,headphones,z,sounds/greatgatsby_english.wav,,,,,,,,,0,1,1,0,0,19,19,101,628.172123411,8.98004509509e-06,629.065296839,0.893182728556,,,,z,1,0.884038105025,2018_Nov_14_1402,59.983936375,spanish_cond1,001,1025,
images/parrot01.jpg,chameleon,x,sounds/greatgatsby_english.wav,,,,,,,,,0,1,1,0,0,20,20,150,630.178085232,9.30088572204e-06,630.948825644,0.770750033669,,,,z,0,0.750408834778,2018_Nov_14_1402,59.983936375,spanish_cond1,001,1025,
images/cactus.jpg,cactus,z,sounds/greatgatsby_english.wav,,,,,,,,,0,1,1,0,0,21,21,70,632.059855222,8.98016151041e-06,633.516122959,1.45627735928,,,,z,1,1.43392590201,2018_Nov_14_1402,59.983936375,spanish_cond1,001,1025,
images/comb02a.jpg,diploma,x,sounds/greatgatsby_english.wav,,,,,,,,,0,1,1,0,0,22,22,166,634.619534209,8.65943729877e-06,635.81667392,1.19714901224,,,,x,1,1.18386745115,2018_Nov_14_1402,59.983936375,spanish_cond1,001,1025,
images/swallow.jpg,mattress,x,sounds/greatgatsby_english.wav,,,,,,,,,0,1,1,0,0,23,23,202,636.917568177,9.30076930672e-06,638.06720575,1.14964719454,,,,x,1,1.13384511322,2018_Nov_14_1402,59.983936375,spanish_cond1,001,1025,
images/skateboard.jpg,key,x,sounds/greatgatsby_english.wav,,,,,,,,,0,1,1,0,0,24,24,189,639.15740728,8.98004509509e-06,641.317989985,2.16059264774,,,,x,1,2.15075495339,2018_Nov_14_1402,59.983936375,spanish_cond1,001,1025,
images/50dollarbill.jpg,cherry,x,sounds/greatgatsby_english.wav,,,,,,,,,0,1,1,0,0,25,25,151,642.437295683,9.30088572204e-06,643.63522019,1.19793412916,,,,x,1,1.1838639233,2018_Nov_14_1402,59.983936375,spanish_cond1,001,1025,
images/aloe02.jpg,broad sword,x,sounds/greatgatsby_english.wav,,,,,,,,,0,1,1,0,0,26,26,137,644.755599971,8.98004509509e-06,646.202487037,1.4468966875,,,,x,1,1.4339024896,2018_Nov_14_1402,59.983936375,spanish_cond1,001,1025,
images/peach01.jpg,peach,z,sounds/greatgatsby_english.wav,,,,,,,,,0,1,1,0,0,27,27,106,647.328965586,9.30076930672e-06,648.10295134,0.773995696567,,,,z,1,0.750414287089,2018_Nov_14_1402,59.983936375,spanish_cond1,001,1025,
images/spoon02b.jpg,spoon,z,sounds/greatgatsby_english.wav,,,,,,,,,0,1,1,0,0,28,28,38,649.194512392,9.30076930672e-06,650.88679756,1.69229575177,,,,z,1,1.68380539236,2018_Nov_14_1402,59.983936375,spanish_cond1,001,1025,
images/redfox.jpg,red fox,z,sounds/greatgatsby_english.wav,,,,,,,,,0,1,1,0,0,29,29,1,651.997454784,8.98016151041e-06,652.73739796,0.739952796837,,,,z,1,0.717073758948,2018_Nov_14_1402,59.983936375,spanish_cond1,001,1025,
images/candy.jpg,candy,z,sounds/greatgatsby_english.wav,,,,,,,,,0,1,1,0,0,30,30,31,653.839141477,8.98004509509e-06,654.504562369,0.6654308344,,,,x,0,0.650457487791,2018_Nov_14_1402,59.983936375,spanish_cond1,001,1025,
images/magnifyingglass01b.jpg,magnifying glass,z,sounds/greatgatsby_english.wav,,,,,,,,,0,1,1,0,0,31,31,64,655.610444749,9.62160993367e-06,656.705028565,1.09459375811,,,,z,1,1.08384041477,2018_Nov_14_1402,59.983936375,spanish_cond1,001,1025,
images/cake.jpg,cake,z,sounds/greatgatsby_english.wav,,,,,,,,,0,1,1,0,0,32,32,23,657.816925684,8.98004509509e-06,658.472109588,0.655193525832,,,,z,1,0.633724042331,2018_Nov_14_1402,59.983936375,spanish_cond1,001,1025,
images/pictureframe04.jpg,picture frame,z,sounds/greatgatsby_english.wav,,,,,,,,,0,1,1,0,0,33,33,41,659.593326121,9.62149351835e-06,660.622880257,1.02956471872,,,,z,1,1.01733671536,2018_Nov_14_1402,59.983936375,spanish_cond1,001,1025,
images/electrictoothbrush01a.jpg,banjo,x,sounds/greatgatsby_english.wav,,,,,,,,,0,1,1,0,0,34,34,127,661.716215198,8.65932088345e-06,663.756734029,2.04052813223,,,,x,1,2.01740566967,2018_Nov_14_1402,59.983936375,spanish_cond1,001,1025,
images/banana04a.jpg,banana,z,sounds/greatgatsby_english.wav,,,,,,,,,0,1,1,0,0,35,35,118,664.861774204,8.98004509509e-06,666.173966575,1.31220199307,,,,z,1,1.30053364218,2018_Nov_14_1402,59.983936375,spanish_cond1,001,1025,
images/aquarium.jpg,computer mouse,x,sounds/greatgatsby_english.wav,,,,,,,,,0,1,1,0,0,36,36,159,667.308791802,8.98004509509e-06,668.691246684,1.38246450375,,,,x,1,1.36723779014,2018_Nov_14_1402,59.983936375,spanish_cond1,001,1025,
images/licenseplate.jpg,license plate,z,sounds/greatgatsby_english.wav,,,,,,,,,0,1,1,0,0,37,37,40,669.80638241,8.98016151041e-06,671.892007619,2.08563450957,,,,x,0,2.06739433238,2018_Nov_14_1402,59.983936375,spanish_cond1,001,1025,
images/fireextinguisher02.jpg,fire extinguisher,z,sounds/greatgatsby_english.wav,,,,,,,,,0,1,1,0,0,38,38,175,673.000611929,8.98004509509e-06,673.792493731,0.791891743662,,,,z,1,0.767107001389,2018_Nov_14_1402,59.983936375,spanish_cond1,001,1025,
images/stapler03a.jpg,candy cane,x,sounds/greatgatsby_english.wav,,,,,,,,,0,1,1,0,0,39,39,145,674.90289374,8.98016151041e-06,675.826289037,0.92340459791,,,,x,1,0.90045371931,2018_Nov_14_1402,59.983936375,spanish_cond1,001,1025,
images/umbrella01.jpg,umbrella,z,sounds/greatgatsby_english.wav,,,,,,,,,0,1,1,0,0,40,40,53,676.937408094,9.62149351835e-06,677.743441885,0.806043732446,,,,z,1,0.783780472586,2018_Nov_14_1402,59.983936375,spanish_cond1,001,1025,
images/watermelon01.jpg,orange,x,sounds/greatgatsby_english.wav,,,,,,,,,0,1,1,0,0,41,41,207,678.872007664,9.30088572204e-06,680.310719957,1.43872223503,,,,x,1,1.41725756228,2018_Nov_14_1402,59.983936375,spanish_cond1,001,1025,
images/cookingpot.jpg,grasshopper,x,sounds/greatgatsby_english.wav,,,,,,,,,0,1,1,0,0,42,42,183,681.422957357,8.98004509509e-06,682.928002407,1.5050546712,,,,x,1,1.4839338077,2018_Nov_14_1402,59.983936375,spanish_cond1,001,1025,
images/screwdriver02b.jpg,cola,x,sounds/greatgatsby_english.wav,,,,,,,,,0,1,1,0,0,43,43,158,684.02156602,9.30088572204e-06,685.06184752,1.04029112193,,,,x,1,1.01714941626,2018_Nov_14_1402,59.983936375,spanish_cond1,001,1025,
images/corkscrew02a.jpg,masquerade mask,x,sounds/greatgatsby_english.wav,,,,,,,,,0,1,1,0,0,44,44,201,686.165547095,9.30076930672e-06,687.212194841,1.04665768868,,,,x,1,1.03365194506,2018_Nov_14_1402,59.983936375,spanish_cond1,001,1025,
images/apricot.jpg,apricot,z,sounds/greatgatsby_english.wav,,,,,,,,,0,1,1,0,0,45,45,32,688.328664111,9.30088572204e-06,689.162830936,0.834176767501,,,,z,1,0.817099191947,2018_Nov_14_1402,59.983936375,spanish_cond1,001,1025,
images/parkfountain.jpg,park fountain,z,sounds/greatgatsby_english.wav,,,,,,,,,0,1,1,0,0,46,46,93,690.282016365,8.98016151041e-06,691.246665258,0.964658514247,,,,z,1,0.950458738604,2018_Nov_14_1402,59.983936375,spanish_cond1,001,1025,
images/cauliflower01.jpg,glue stick,x,sounds/greatgatsby_english.wav,,,,,,,,,0,1,1,0,0,47,47,181,692.360893032,9.30088572204e-06,693.680734841,1.31985143072,,,,x,1,1.30069977394,2018_Nov_14_1402,59.983936375,spanish_cond1,001,1025,
images/thumbtack02a.jpg,thumb tack,z,sounds/greatgatsby_english.wav,,,,,,,,,0,1,1,0,0,48,48,60,694.790514261,8.65943729877e-06,695.847764614,1.05725933274,,,,z,1,1.03380653088,2018_Nov_14_1402,59.983936375,spanish_cond1,001,1025,
images/hammer02a.jpg,flower,x,sounds/greatgatsby_english.wav,,,,,,,,,0,1,1,0,0,49,49,176,696.941229766,9.30088572204e-06,697.748241745,0.807021921384,,,,x,1,0.783770209644,2018_Nov_14_1402,59.983936375,spanish_cond1,001,1025,
images/lipstick04.jpg,lipstick,z,sounds/greatgatsby_english.wav,,,,,,,,,0,1,1,0,0,50,50,56,698.847307912,9.62149351835e-06,700.148801462,1.30150317168,,,,z,1,1.28387043392,2018_Nov_14_1402,59.983936375,spanish_cond1,001,1025,
images/triangleruler02.jpg,bottle of red wine,x,sounds/greatgatsby_english.wav,,,,,,,,,0,1,1,0,0,51,51,134,701.257244772,9.30076930672e-06,702.466035516,1.20880004438,,,,x,1,1.20052520721,2018_Nov_14_1402,59.983936375,spanish_cond1,001,1025,
images/gluestick.jpg,squirrel,x,sounds/greatgatsby_english.wav,,,,,,,,,0,1,1,0,0,52,52,226,703.573122511,9.30088572204e-06,704.449846007,0.876733439043,,,,x,1,0.867112228996,2018_Nov_14_1402,59.983936375,spanish_cond1,001,1025,
images/bicycle.jpg,hand bag,x,sounds/greatgatsby_english.wav,,,,,,,,,0,1,1,0,0,53,53,186,705.559709135,9.62160993367e-06,706.550346744,0.990647551487,,,,x,1,0.967137341271,2018_Nov_14_1402,59.983936375,spanish_cond1,001,1025,
images/flamingo.jpg,flamingo,z,sounds/greatgatsby_english.wav,,,,,,,,,0,1,1,0,0,54,54,52,707.647042806,8.65932088345e-06,709.367692888,1.72066002421,,,,z,1,1.70064691966,2018_Nov_14_1402,59.983936375,spanish_cond1,001,1025,
images/hairpin.jpg,hair pin,z,sounds/greatgatsby_english.wav,,,,,,,,,0,1,1,0,0,55,55,28,710.457917509,9.62149351835e-06,711.818399061,1.36049149337,,,,z,1,1.35068202228,2018_Nov_14_1402,59.983936375,spanish_cond1,001,1025,
images/cigar.jpg,crocodile,x,sounds/greatgatsby_english.wav,,,,,,,,,0,1,1,0,0,56,56,162,712.915025207,9.62160993367e-06,714.60227639,1.68726144615,,,,x,1,1.66729324218,2018_Nov_14_1402,59.983936375,spanish_cond1,001,1025,
images/pingpongpaddle01c (1).jpg,ping pong paddle,z,sounds/greatgatsby_english.wav,,,,,,,,,0,1,1,0,0,57,57,10,715.713210394,8.98004509509e-06,717.252914442,1.53971366968,,,,z,1,1.5172640729,2018_Nov_14_1402,59.983936375,spanish_cond1,001,1025,
images/paintbrush03a.jpg,paint brush,z,sounds/greatgatsby_english.wav,,,,,,,,,0,1,1,0,0,58,58,0,718.351486703,9.30088572204e-06,719.753546095,1.40206965548,,,,z,1,1.38390933699,2018_Nov_14_1402,59.983936375,spanish_cond1,001,1025,
images/lily.jpg,kiwi,x,sounds/greatgatsby_english.wav,,,,,,,,,0,1,1,0,0,59,59,190,720.854447729,8.98004509509e-06,721.954060077,1.09962164925,,,,x,1,1.08383239678,2018_Nov_14_1402,59.983936375,spanish_cond1,001,1025,
images/chessknight02b (1).jpg,cockroach,x,sounds/greatgatsby_english.wav,,,,,,,,,0,1,1,0,0,60,60,155,723.062137449,9.62149351835e-06,724.488195504,1.42606799793,,,,x,1,1.4174477479,2018_Nov_14_1402,59.983936375,spanish_cond1,001,1025,
images/weight01.jpg,weight,z,sounds/greatgatsby_english.wav,,,,,,,,,0,1,1,0,0,61,61,67,725.59262824,8.98004509509e-06,726.655179094,1.06256079604,,,,z,1,1.05047839857,2018_Nov_14_1402,59.983936375,spanish_cond1,001,1025,
images/bench02.jpg,electric toothbrush,x,sounds/greatgatsby_english.wav,,,,,,,,,0,1,1,0,0,62,62,172,727.763652551,9.30076930672e-06,728.822362811,1.05872020172,,,,x,1,1.05047936062,2018_Nov_14_1402,59.983936375,spanish_cond1,001,1025,
images/gorilla.jpg,gorilla,z,sounds/greatgatsby_english.wav,,,,,,,,,0,1,1,0,0,63,63,80,729.932868335,9.30076930672e-06,730.922872527,0.990013492643,,,,z,1,0.967133171856,2018_Nov_14_1402,59.983936375,spanish_cond1,001,1025,
images/scissors04a.jpg,leek,x,sounds/greatgatsby_english.wav,,,,,,,,,0,1,1,0,0,64,64,194,732.016570842,9.62149351835e-06,733.090055603,1.07349438278,,,,x,1,1.05048320931,2018_Nov_14_1402,59.983936375,spanish_cond1,001,1025,
images/lollipop03b.jpg,lollipop,z,sounds/greatgatsby_english.wav,,,,,,,,,0,1,1,0,0,65,65,42,734.182714792,8.98004509509e-06,735.090544056,0.907838885556,,,,z,1,0.883776078816,2018_Nov_14_1402,59.983936375,spanish_cond1,001,1025,
images/table02.jpg,table,z,sounds/greatgatsby_english.wav,,,,,,,,,0,1,1,0,0,66,66,49,736.204972279,8.98016151041e-06,737.024342793,0.819380456815,,,,z,1,0.800431493553,2018_Nov_14_1402,59.983936375,spanish_cond1,001,1025,
images/notebook02b.jpg,notebook,z,sounds/greatgatsby_english.wav,,,,,,,,,0,1,1,0,0,67,67,7,738.130770072,9.62149351835e-06,738.908133304,0.77737285383,,,,z,1,0.767089041183,2018_Nov_14_1402,59.983936375,spanish_cond1,001,1025,
images/ruler02b.jpg,watermelon,x,sounds/greatgatsby_english.wav,,,,,,,,,0,1,1,0,0,68,68,238,740.010281247,9.30076930672e-06,741.758823184,1.74855187943,,,,x,1,1.73399225844,2018_Nov_14_1402,59.983936375,spanish_cond1,001,1025,
images/8ball.jpg,nail clipper,x,sounds/greatgatsby_english.wav,,,,,,,,,0,1,1,0,0,69,69,206,742.874025299,9.30076930672e-06,744.175920067,1.30190503097,,,,x,1,1.28372611094,2018_Nov_14_1402,59.983936375,spanish_cond1,001,1025,
images/ladybug03.jpg,giraffe,x,sounds/greatgatsby_english.wav,,,,,,,,,0,1,1,0,0,70,70,178,745.277280968,9.30076930672e-06,746.843369819,1.56609879318,,,,x,1,1.55060973251,2018_Nov_14_1402,59.983936375,spanish_cond1,001,1025,
images/plant01.jpg,plant,z,sounds/greatgatsby_english.wav,,,,,,,,,0,1,1,0,0,71,71,47,747.954811519,9.62149351835e-06,748.760502141,0.805700564524,,,,z,1,0.783752570162,2018_Nov_14_1402,59.983936375,spanish_cond1,001,1025,
images/lion.jpg,lion,z,sounds/greatgatsby_english.wav,,,,,,,,,0,1,1,0,0,72,72,44,749.872635308,9.30088572204e-06,750.694295106,0.821669739671,,,,z,1,0.80042187206,2018_Nov_14_1402,59.983936375,spanish_cond1,001,1025,
images/broadsword.jpg,teapot,x,sounds/greatgatsby_english.wav,,,,,,,,,0,1,1,0,0,73,73,231,751.787094769,9.30076930672e-06,752.911347858,1.12426303083,,,,x,1,1.10034903709,2018_Nov_14_1402,59.983936375,spanish_cond1,001,1025,
images/puma.jpg,puma,z,sounds/greatgatsby_english.wav,,,,,,,,,0,1,1,0,0,74,74,4,754.010007033,8.98016151041e-06,754.728592014,0.718594602309,,,,z,1,0.700386176119,2018_Nov_14_1402,59.983936375,spanish_cond1,001,1025,
images/mushroom01.jpg,shower head,x,sounds/greatgatsby_english.wav,,,,,,,,,0,1,1,0,0,75,75,222,755.844597527,8.98016151041e-06,757.045835369,1.20124778431,,,,x,1,1.18386007473,2018_Nov_14_1402,59.983936375,spanish_cond1,001,1025,
images/hairband.jpg,hairband,z,sounds/greatgatsby_english.wav,,,,,,,,,0,1,1,0,0,76,76,66,758.155133071,9.30076930672e-06,759.313050291,1.15792652161,,,,z,1,1.13385184831,2018_Nov_14_1402,59.983936375,spanish_cond1,001,1025,
images/eyedrops.jpg,bicycle,x,sounds/greatgatsby_english.wav,,,,,,,,,0,1,1,0,0,77,77,131,760.413557442,9.30076930672e-06,761.86367606,1.45012855972,,,,x,1,1.43393616495,2018_Nov_14_1402,59.983936375,spanish_cond1,001,1025,
images/dreamcatcher.jpg,dream catcher,z,sounds/greatgatsby_english.wav,,,,,,,,,0,1,1,0,0,78,78,48,762.961672953,8.65943729877e-06,763.930837551,0.96917454002,,,,z,1,0.950486320304,2018_Nov_14_1402,59.983936375,spanish_cond1,001,1025,
images/straw.jpg,straw,z,sounds/greatgatsby_english.wav,,,,,,,,,0,1,1,0,0,79,79,109,765.021457296,9.30088572204e-06,765.881277047,0.859829051071,,,,z,1,0.850437154179,2018_Nov_14_1402,59.983936375,spanish_cond1,001,1025,
images/battery03b.jpg,battery,z,sounds/greatgatsby_english.wav,,,,,,,,,0,1,1,0,0,80,80,34,766.989843833,9.30076930672e-06,767.865105178,0.875271287048,,,,z,1,0.867120246985,2018_Nov_14_1402,59.983936375,spanish_cond1,001,1025,
images/lighter02b.jpg,stapler,x,sounds/greatgatsby_english.wav,,,,,,,,,0,1,1,0,0,81,81,227,768.966851261,8.98004509509e-06,770.015634346,1.04879238561,,,,x,1,1.03383764054,2018_Nov_14_1402,59.983936375,spanish_cond1,001,1025,
images/pouch01b.jpg,pouch,z,sounds/greatgatsby_english.wav,,,,,,,,,0,1,1,0,0,82,82,25,771.127425628,8.98016151041e-06,772.166140743,1.03872441594,,,,z,1,1.01716064138,2018_Nov_14_1402,59.983936375,spanish_cond1,001,1025,
images/computermouse02a.jpg,world map,x,sounds/greatgatsby_english.wav,,,,,,,,,0,1,1,0,0,83,83,239,773.267795101,9.30076930672e-06,774.249973461,0.982188301627,,,,x,1,0.967138624168,2018_Nov_14_1402,59.983936375,spanish_cond1,001,1025,
images/belt02a.jpg,snowman,x,sounds/greatgatsby_english.wav,,,,,,,,,0,1,1,0,0,84,84,224,775.352894012,8.98004509509e-06,776.567181536,1.21429682476,,,,x,1,1.20051718934,2018_Nov_14_1402,59.983936375,spanish_cond1,001,1025,
images/bullet (2).jpg,rubber glove,x,sounds/greatgatsby_english.wav,,,,,,,,,0,1,1,0,0,85,85,217,777.671735503,9.62160993367e-06,779.634805182,1.96307930036,,,,x,1,1.9509077433,2018_Nov_14_1402,59.983936375,spanish_cond1,001,1025,
images/floorlamp.jpg,floor lamp,z,sounds/greatgatsby_english.wav,,,,,,,,,0,1,1,0,0,86,86,26,780.72749997,9.30076930672e-06,782.30192235,1.57443264232,,,,z,1,1.55062031618,2018_Nov_14_1402,59.983936375,spanish_cond1,001,1025,
images/bed.jpg,bed,z,sounds/greatgatsby_english.wav,,,,,,,,,0,1,1,0,0,87,87,103,783.420679299,8.98004509509e-06,784.269043976,0.848374298075,,,,z,1,0.83376079658,2018_Nov_14_1402,59.983936375,spanish_cond1,001,1025,
images/tulip02.jpg,sport shorts,x,sounds/greatgatsby_english.wav,,,,,,,,,0,1,1,0,0,88,88,225,785.363615604,8.65943729877e-06,786.402891334,1.03928470984,,,,x,1,1.01715550991,2018_Nov_14_1402,59.983936375,spanish_cond1,001,1025,
images/envelope02a.jpg,grand piano,x,sounds/greatgatsby_english.wav,,,,,,,,,0,1,1,0,0,89,89,182,787.525249623,9.30088572204e-06,788.553614536,1.02838543989,,,,x,1,1.0173165102,2018_Nov_14_1402,59.983936375,spanish_cond1,001,1025,
images/nailpolish02b.jpg,nail polish,z,sounds/greatgatsby_english.wav,,,,,,,,,0,1,1,0,0,90,90,94,789.661748995,9.62149351835e-06,790.620561468,0.958822093671,,,,z,1,0.950456814258,2018_Nov_14_1402,59.983936375,spanish_cond1,001,1025,
images/snowman.jpg,globe,x,sounds/greatgatsby_english.wav,,,,,,,,,0,1,1,0,0,91,91,180,791.731596497,9.30076930672e-06,793.337923231,1.60633635521,,,,x,1,1.58395667491,2018_Nov_14_1402,59.983936375,spanish_cond1,001,1025,
images/dryingmachine01.jpg,drying machine,z,sounds/greatgatsby_english.wav,,,,,,,,,0,1,1,0,0,92,92,18,794.459386396,9.30076930672e-06,795.855206868,1.39583041344,,,,z,1,1.3839507096,2018_Nov_14_1402,59.983936375,spanish_cond1,001,1025,
images/banjo.jpg,knife,x,sounds/greatgatsby_english.wav,,,,,,,,,0,1,1,0,0,93,93,191,796.951397479,9.30088572204e-06,797.872476874,0.921100241248,,,,x,1,0.900537747424,2018_Nov_14_1402,59.983936375,spanish_cond1,001,1025,
images/rubberglove02a.jpg,lady bug,x,sounds/greatgatsby_english.wav,,,,,,,,,0,1,1,0,0,94,94,192,798.976472792,9.30076930672e-06,799.939469347,0.963005855912,,,,x,1,0.950454248581,2018_Nov_14_1402,59.983936375,spanish_cond1,001,1025,
images/eraser.jpg,eraser,z,sounds/greatgatsby_english.wav,,,,,,,,,0,1,1,0,0,95,95,110,801.045766414,9.30076930672e-06,801.889943801,0.844187328592,,,,z,1,0.833766248776,2018_Nov_14_1402,59.983936375,spanish_cond1,001,1025,
images/cola.jpg,comb,x,sounds/greatgatsby_english.wav,,,,,,,,,0,1,1,0,0,96,96,157,803.010477206,9.30088572204e-06,803.840429159,0.829962216318,,,,x,1,0.817100474844,2018_Nov_14_1402,59.983936375,spanish_cond1,001,1025,
images/bus.jpg,microphone,x,sounds/greatgatsby_english.wav,,,,,,,,,0,1,1,0,0,97,97,203,804.957097595,9.30088572204e-06,806.140967291,1.18387931783,,,,x,1,1.16718275484,2018_Nov_14_1402,59.983936375,spanish_cond1,001,1025,
images/glasses01b.jpg,calculator,x,sounds/greatgatsby_english.wav,,,,,,,,,0,1,1,0,0,98,98,142,807.233732958,9.30088572204e-06,808.658382743,1.42466004728,,,,x,1,1.40070820879,2018_Nov_14_1402,59.983936375,spanish_cond1,001,1025,
images/corn01.jpg,corn,z,sounds/greatgatsby_english.wav,,,,,,,,,0,1,1,0,0,99,99,22,809.757500224,8.98004509509e-06,810.925443721,1.16795311868,,,,z,1,1.1504948514,2018_Nov_14_1402,59.983936375,spanish_cond1,001,1025,
images/paperclip04.jpg,eye drops,x,sounds/greatgatsby_english.wav,,,,,,,,,0,1,1,0,0,100,100,174,812.029989349,9.30076930672e-06,812.959279116,0.929299709736,,,,x,1,0.917073951452,2018_Nov_14_1402,59.983936375,spanish_cond1,001,1025,
images/egg01b (1).jpg,egg,z,sounds/greatgatsby_english.wav,,,,,,,,,0,1,1,0,0,101,101,19,814.071722097,4.29762294516e-05,815.14312957,1.07142928161,,,,z,1,1.05047583289,2018_Nov_14_1402,59.983936375,spanish_cond1,001,1025,
images/dragonfly02.jpg,dragon fly,z,sounds/greatgatsby_english.wav,,,,,,,,,0,1,1,0,0,102,102,29,816.240197665,9.30076930672e-06,817.026922646,0.786734923953,,,,z,1,0.767089682631,2018_Nov_14_1402,59.983936375,spanish_cond1,001,1025,
images/volleyball.jpg,volley ball,z,sounds/greatgatsby_english.wav,,,,,,,,,0,1,1,0,0,103,103,2,818.159058655,8.65943729877e-06,818.977393251,0.818343897234,,,,z,1,0.800432135118,2018_Nov_14_1402,59.983936375,spanish_cond1,001,1025,
images/tape01a.jpg,tie,x,sounds/greatgatsby_english.wav,,,,,,,,,0,1,1,0,0,104,104,232,820.10259791,9.30076930672e-06,821.261279401,1.15869175398,,,,x,1,1.15050286939,2018_Nov_14_1402,59.983936375,spanish_cond1,001,1025,
images/beachumbrella01.jpg,beach umbrella,z,sounds/greatgatsby_english.wav,,,,,,,,,0,1,1,0,0,105,105,92,822.367293274,8.98016151041e-06,823.245083799,0.877799825394,,,,z,1,0.867112229113,2018_Nov_14_1402,59.983936375,spanish_cond1,001,1025,
images/lemon02.jpg,lemon,z,sounds/greatgatsby_english.wav,,,,,,,,,0,1,1,0,0,106,106,14,824.355018767,9.30088572204e-06,825.045511444,0.690502298414,,,,z,1,0.667060401058,2018_Nov_14_1402,59.983936375,spanish_cond1,001,1025,
images/dolphin01.jpg,dolphin,z,sounds/greatgatsby_english.wav,,,,,,,,,0,1,1,0,0,107,107,99,826.145300187,8.98004509509e-06,827.346075554,1.20078498858,,,,z,1,1.18381164642,2018_Nov_14_1402,59.983936375,spanish_cond1,001,1025,
images/grandpiano.jpg,tulip,x,sounds/greatgatsby_english.wav,,,,,,,,,0,1,1,0,0,108,108,236,828.460201019,8.98004509509e-06,829.746647779,1.28645702207,,,,x,1,1.26720850845,2018_Nov_14_1402,59.983936375,spanish_cond1,001,1025,
images/parkingmeter.jpg,ear,x,sounds/greatgatsby_english.wav,,,,,,,,,0,1,1,0,0,109,109,171,830.847823626,9.30076930672e-06,832.180590037,1.33277827792,,,,x,1,1.31724495813,2018_Nov_14_1402,59.983936375,spanish_cond1,001,1025,
images/donut.jpg,rhinoceros,x,sounds/greatgatsby_english.wav,,,,,,,,,0,1,1,0,0,110,110,216,833.305965638,8.98004509509e-06,834.481119189,1.17516349384,,,,x,1,1.16717986844,2018_Nov_14_1402,59.983936375,spanish_cond1,001,1025,
images/hairdryer03a.jpg,hairdryer,z,sounds/greatgatsby_english.wav,,,,,,,,,0,1,1,0,0,111,111,119,835.580502225,9.30076930672e-06,836.431584984,0.851092380472,,,,z,1,0.833738025627,2018_Nov_14_1402,59.983936375,spanish_cond1,001,1025,
images/djmixer01.jpg,light bulb,x,sounds/greatgatsby_english.wav,,,,,,,,,0,1,1,0,0,112,112,196,837.551324933,9.62149351835e-06,838.565427852,1.01411318197,,,,x,1,1.00047113432,2018_Nov_14_1402,59.983936375,spanish_cond1,001,1025,
images/cocktailshrimp01.jpg,cocktail shrimp,z,sounds/greatgatsby_english.wav,,,,,,,,,0,1,1,0,0,113,113,30,839.680049467,9.30076930672e-06,840.465892796,0.785853591748,,,,z,1,0.767075250275,2018_Nov_14_1402,59.983936375,spanish_cond1,001,1025,
images/panda.jpg,panda,z,sounds/greatgatsby_english.wav,,,,,,,,,0,1,1,0,0,114,114,83,841.5750574,8.98016151041e-06,842.299684382,0.724636602798,,,,z,1,0.700404457049,2018_Nov_14_1402,59.983936375,spanish_cond1,001,1025,
images/calculator02b.jpg,dice,x,sounds/greatgatsby_english.wav,,,,,,,,,0,1,1,0,0,115,115,165,843.401315648,8.65932088345e-06,844.350157328,0.948850980727,,,,x,1,0.933794247336,2018_Nov_14_1402,59.983936375,spanish_cond1,001,1025,
images/pineapple01a.jpg,pineapple,z,sounds/greatgatsby_english.wav,,,,,,,,,0,1,1,0,0,116,116,51,845.463005054,9.30076930672e-06,846.233938538,0.770943105686,,,,z,1,0.750407872722,2018_Nov_14_1402,59.983936375,spanish_cond1,001,1025,
images/apple06.jpg,apple,z,sounds/greatgatsby_english.wav,,,,,,,,,0,1,1,0,0,117,117,13,847.36140169,8.65943729877e-06,848.20109865,0.83970626106,,,,z,1,0.817107209819,2018_Nov_14_1402,59.983936375,spanish_cond1,001,1025,
images/backpack01b.jpg,swallow,x,sounds/greatgatsby_english.wav,,,,,,,,,0,1,1,0,0,118,118,228,849.331852045,8.98016151041e-06,850.284917898,0.953075474245,,,,x,1,0.933784305118,2018_Nov_14_1402,59.983936375,spanish_cond1,001,1025,
images/beermug01b.jpg,beer mug,z,sounds/greatgatsby_english.wav,,,,,,,,,0,1,1,0,0,119,119,111,851.401507758,9.30076930672e-06,852.285395767,0.883897310006,,,,z,1,0.867103569675,2018_Nov_14_1402,59.983936375,spanish_cond1,001,1025,
images/boxingglove02a.jpg,bracelet,x,sounds/greatgatsby_english.wav,,,,,,,,,0,1,1,0,0,120,120,135,853.395872748,9.30076930672e-06,854.369240351,0.973377545248,,,,x,1,0.950460662949,2018_Nov_14_1402,59.983936375,spanish_cond1,001,1025,
images/cupcake.jpg,scissors,x,sounds/greatgatsby_english.wav,,,,,,,,,0,1,1,0,0,121,121,219,855.488109552,8.98016151041e-06,856.669787143,1.18168753316,,,,x,1,1.16718211339,2018_Nov_14_1402,59.983936375,spanish_cond1,001,1025,
images/honeycomb.jpg,honey comb,z,sounds/greatgatsby_english.wav,,,,,,,,,0,1,1,0,0,122,122,59,857.781693563,8.65943729877e-06,858.703621897,0.921937635168,,,,z,1,0.900461095851,2018_Nov_14_1402,59.983936375,spanish_cond1,001,1025,
images/antelope.jpg,antelope,z,sounds/greatgatsby_english.wav,,,,,,,,,0,1,1,0,0,123,123,12,859.807198637,8.98004509509e-06,860.554073483,0.746884468128,,,,z,1,0.733760379604,2018_Nov_14_1402,59.983936375,spanish_cond1,001,1025,
images/leek.jpg,donut,x,sounds/greatgatsby_english.wav,,,,,,,,,0,1,1,0,0,124,124,169,861.655237143,9.62160993367e-06,862.804610124,1.14938260242,,,,x,1,1.13381111715,2018_Nov_14_1402,59.983936375,spanish_cond1,001,1025,
images/scooter.jpg,pen,x,sounds/greatgatsby_english.wav,,,,,,,,,0,1,1,0,0,125,125,212,863.897688812,8.98004509509e-06,865.138495199,1.24081664986,,,,x,1,1.21719771635,2018_Nov_14_1402,59.983936375,spanish_cond1,001,1025,
images/sportshorts02.jpg,tape,x,sounds/greatgatsby_english.wav,,,,,,,,,0,1,1,0,0,126,126,230,866.245694124,9.30076930672e-06,867.389043706,1.14335920347,,,,x,1,1.13385056541,2018_Nov_14_1402,59.983936375,spanish_cond1,001,1025,
images/mattress.jpg,cat,x,sounds/greatgatsby_english.wav,,,,,,,,,0,1,1,0,0,127,127,147,868.493460727,8.98004509509e-06,869.48954316,0.996092054876,,,,x,1,0.983807284501,2018_Nov_14_1402,59.983936375,spanish_cond1,001,1025,
images/bull.jpg,button,x,sounds/greatgatsby_english.wav,,,,,,,,,0,1,1,0,0,128,128,141,870.596606743,8.98004509509e-06,871.439994201,0.8433970802,,,,x,1,0.833751816419,2018_Nov_14_1402,59.983936375,spanish_cond1,001,1025,
images/diaper01a.jpg,camera,x,sounds/greatgatsby_english.wav,,,,,,,,,0,1,1,0,0,129,129,143,872.560007081,9.30088572204e-06,873.55720433,0.997206869652,,,,x,1,0.983820434078,2018_Nov_14_1402,59.983936375,spanish_cond1,001,1025,
images/screw03c.jpg,screw,z,sounds/greatgatsby_english.wav,,,,,,,,,0,1,1,0,0,130,130,84,874.651127467,9.30088572204e-06,875.674355446,1.02323792095,,,,z,1,1.00046600285,2018_Nov_14_1402,59.983936375,spanish_cond1,001,1025,
images/nametag01a.jpg,name tag,z,sounds/greatgatsby_english.wav,,,,,,,,,0,1,1,0,0,131,131,108,876.79394113,9.30076930672e-06,877.60815739,0.814225882059,,,,z,1,0.800417061197,2018_Nov_14_1402,59.983936375,spanish_cond1,001,1025,
images/electricguitar02.jpg,electric guitar,z,sounds/greatgatsby_english.wav,,,,,,,,,0,1,1,0,0,132,132,100,878.710115468,9.62149351835e-06,879.958734538,1.24862901203,,,,z,1,1.23387086682,2018_Nov_14_1402,59.983936375,spanish_cond1,001,1025,
images/squirrel.jpg,binder,x,sounds/greatgatsby_english.wav,,,,,,,,,0,1,1,0,0,133,133,132,881.06174938,9.30076930672e-06,882.592750113,1.53101067443,,,,x,1,1.51728267444,2018_Nov_14_1402,59.983936375,spanish_cond1,001,1025,
images/mitten01.jpg,mitten,z,sounds/greatgatsby_english.wav,,,,,,,,,0,1,1,0,0,134,134,102,883.713182812,9.62149351835e-06,884.709862422,0.9966898727,,,,z,1,0.983800228802,2018_Nov_14_1402,59.983936375,spanish_cond1,001,1025,
images/coffeepot03b.jpg,coffee pot,z,sounds/greatgatsby_english.wav,,,,,,,,,0,1,1,0,0,135,135,107,885.8311973,9.30088572204e-06,886.560309518,0.729122160468,,,,z,1,0.71706734458,2018_Nov_14_1402,59.983936375,spanish_cond1,001,1025,
images/marker01a.jpg,marker,z,sounds/greatgatsby_english.wav,,,,,,,,,0,1,1,0,0,136,136,95,887.658619112,9.30076930672e-06,888.37741737,0.718807879486,,,,z,1,0.700399646303,2018_Nov_14_1402,59.983936375,spanish_cond1,001,1025,
images/mailbox01.jpg,mail box,z,sounds/greatgatsby_english.wav,,,,,,,,,0,1,1,0,0,137,137,73,889.497039295,9.62160993367e-06,890.26120756,0.764178207493,,,,z,1,0.750418456388,2018_Nov_14_1402,59.983936375,spanish_cond1,001,1025,
images/tent.jpg,tent,z,sounds/greatgatsby_english.wav,,,,,,,,,0,1,1,0,0,138,138,11,891.388119398,8.98004509509e-06,892.17833892,0.790229143109,,,,z,1,0.767085834057,2018_Nov_14_1402,59.983936375,spanish_cond1,001,1025,
images/grasshopper.jpg,cauliflower,x,sounds/greatgatsby_english.wav,,,,,,,,,0,1,1,0,0,139,139,148,893.271528255,9.30076930672e-06,894.112139581,0.84062126861,,,,x,1,0.817110416945,2018_Nov_14_1402,59.983936375,spanish_cond1,001,1025,
images/shotglass.jpg,shot glass,z,sounds/greatgatsby_english.wav,,,,,,,,,0,1,1,0,0,140,140,86,895.220914193,9.30076930672e-06,896.095947507,0.87504325679,,,,z,1,0.867117360584,2018_Nov_14_1402,59.983936375,spanish_cond1,001,1025,
images/toothbrush03a.jpg,parrot,x,sounds/greatgatsby_english.wav,,,,,,,,,0,1,1,0,0,141,141,210,897.18880939,9.30076930672e-06,898.596545165,1.40774571709,,,,x,1,1.38390324335,2018_Nov_14_1402,59.983936375,spanish_cond1,001,1025,
images/elbow.jpg,elbow,z,sounds/greatgatsby_english.wav,,,,,,,,,0,1,1,0,0,142,142,105,899.708161656,9.62149351835e-06,900.530335564,0.822183850105,,,,z,1,0.800422834232,2018_Nov_14_1402,59.983936375,spanish_cond1,001,1025,
images/pen03c.jpg,pepper,x,sounds/greatgatsby_english.wav,,,,,,,,,0,1,1,0,0,143,143,211,901.624171466,9.30088572204e-06,902.597518222,0.973356378032,,,,x,1,0.950475415913,2018_Nov_14_1402,59.983936375,spanish_cond1,001,1025,
images/ear.jpg,bullet,x,sounds/greatgatsby_english.wav,,,,,,,,,0,1,1,0,0,144,144,139,903.70111196,9.62160993367e-06,904.564488149,0.863386451732,,,,x,1,0.850276795449,2018_Nov_14_1402,59.983936375,spanish_cond1,001,1025,
images/radio03a.jpg,radio,z,sounds/greatgatsby_english.wav,,,,,,,,,0,1,1,0,0,145,145,37,905.678895846,8.98016151041e-06,906.498451094,0.819564869511,,,,z,1,0.80043854937,2018_Nov_14_1402,59.983936375,spanish_cond1,001,1025,
images/parkbench03.jpg,park bench,z,sounds/greatgatsby_english.wav,,,,,,,,,0,1,1,0,0,146,146,71,907.603524944,9.30076930672e-06,908.448913681,0.8453990001,,,,z,1,0.833750854246,2018_Nov_14_1402,59.983936375,spanish_cond1,001,1025,
images/icecube02 (2).jpg,aloe,x,sounds/greatgatsby_english.wav,,,,,,,,,0,1,1,0,0,147,147,122,909.559657499,9.62160993367e-06,910.799478,1.23983012233,,,,x,1,1.2171996407,2018_Nov_14_1402,59.983936375,spanish_cond1,001,1025,
images/razor04a.jpg,razor,z,sounds/greatgatsby_english.wav,,,,,,,,,0,1,1,0,0,148,148,36,911.899168603,9.30088572204e-06,912.616579437,0.717421096284,,,,z,1,0.700402532704,2018_Nov_14_1402,59.983936375,spanish_cond1,001,1025,
images/sunglasses03a.jpg,sun glasses,z,sounds/greatgatsby_english.wav,,,,,,,,,0,1,1,0,0,149,149,17,913.724751099,8.98004509509e-06,914.717087871,0.992346713785,,,,z,1,0.983807605226,2018_Nov_14_1402,59.983936375,spanish_cond1,001,1025,
images/candycane01a.jpg,lip,x,sounds/greatgatsby_english.wav,,,,,,,,,0,1,1,0,0,150,150,200,915.81097637,9.62149351835e-06,916.634476125,0.823516432079,,,,x,1,0.800580627285,2018_Nov_14_1402,59.983936375,spanish_cond1,001,1025,
images/hanger02a.jpg,hanger,z,sounds/greatgatsby_english.wav,,,,,,,,,0,1,1,0,0,151,151,88,917.728159045,8.65943729877e-06,918.451348249,0.723198504769,,,,z,1,0.700430755969,2018_Nov_14_1402,59.983936375,spanish_cond1,001,1025,
images/axe01.jpg,axe,z,sounds/greatgatsby_english.wav,,,,,,,,,0,1,1,0,0,152,152,104,919.554397088,9.30088572204e-06,920.335102198,0.780715373694,,,,z,1,0.767079740297,2018_Nov_14_1402,59.983936375,spanish_cond1,001,1025,
images/butterfly.jpg,butterfly,z,sounds/greatgatsby_english.wav,,,,,,,,,0,1,1,0,0,153,153,91,921.442640764,8.98016151041e-06,922.152218388,0.709587887395,,,,z,1,0.70041536144,2018_Nov_14_1402,59.983936375,spanish_cond1,001,1025,
images/wallet01.jpg,lamp,x,sounds/greatgatsby_english.wav,,,,,,,,,0,1,1,0,0,154,154,193,923.257460615,9.30088572204e-06,924.086018409,0.828567735734,,,,x,1,0.817109775613,2018_Nov_14_1402,59.983936375,spanish_cond1,001,1025,
images/bottleofredwine02.jpg,pipe,x,sounds/greatgatsby_english.wav,,,,,,,,,0,1,1,0,0,155,155,213,925.184562767,8.98004509509e-06,926.553280028,1.36872720299,,,,x,1,1.3505723367,2018_Nov_14_1402,59.983936375,spanish_cond1,001,1025,
images/baseball01a.jpg,baseball,z,sounds/greatgatsby_english.wav,,,,,,,,,0,1,1,0,0,156,156,74,927.686157215,9.30076930672e-06,928.503745822,0.817597907851,,,,z,1,0.800434059231,2018_Nov_14_1402,59.983936375,spanish_cond1,001,1025,
images/rhinoceros01.jpg,envelope,x,sounds/greatgatsby_english.wav,,,,,,,,,0,1,1,0,0,157,157,173,929.616633638,9.94221772999e-06,930.937662423,1.32103872765,,,,x,1,1.30055737519,2018_Nov_14_1402,59.983936375,spanish_cond1,001,1025,
images/camera01a.jpg,bull,x,sounds/greatgatsby_english.wav,,,,,,,,,0,1,1,0,0,158,158,138,932.048607973,9.30088572204e-06,933.638304532,1.58970618097,,,,x,1,1.5672652435,2018_Nov_14_1402,59.983936375,spanish_cond1,001,1025,
images/arrow02.jpg,hammer,x,sounds/greatgatsby_english.wav,,,,,,,,,0,1,1,0,0,159,159,184,934.735528817,9.30076930672e-06,936.055554397,1.32003552269,,,,x,1,1.30054133944,2018_Nov_14_1402,59.983936375,spanish_cond1,001,1025,
images/printer03a.jpg,printer,z,sounds/greatgatsby_english.wav,,,,,,,,,0,1,1,0,0,160,160,72,937.164720284,9.30088572204e-06,938.189404001,1.02469333773,,,,z,1,1.00047498289,2018_Nov_14_1402,59.983936375,spanish_cond1,001,1025,
images/charcoalbarbecue.jpg,charcoal barbecue,z,sounds/greatgatsby_english.wav,,,,,,,,,0,1,1,0,0,161,161,77,939.306670575,8.98016151041e-06,940.523306715,1.21664544055,,,,z,1,1.20053098013,2018_Nov_14_1402,59.983936375,spanish_cond1,001,1025,
images/binder03b.jpg,dj mixer,x,sounds/greatgatsby_english.wav,,,,,,,,,0,1,1,0,0,162,162,167,941.636436993,9.30076930672e-06,942.440414662,0.80398696987,,,,x,1,0.783747438691,2018_Nov_14_1402,59.983936375,spanish_cond1,001,1025,
images/gps.jpg,gps,z,sounds/greatgatsby_english.wav,,,,,,,,,0,1,1,0,0,163,163,21,943.558647559,9.30076930672e-06,944.590948962,1.03231134498,,,,z,1,1.01715166133,2018_Nov_14_1402,59.983936375,spanish_cond1,001,1025,
images/highheelshoe02a.jpg,high heel shoe,z,sounds/greatgatsby_english.wav,,,,,,,,,0,1,1,0,0,164,164,75,945.697938138,8.98004509509e-06,946.408033721,0.710105204955,,,,z,1,0.700394835556,2018_Nov_14_1402,59.983936375,spanish_cond1,001,1025,
images/saltshaker03c.jpg,salt shaker,z,sounds/greatgatsby_english.wav,,,,,,,,,0,1,1,0,0,165,165,63,947.519562657,9.30076930672e-06,948.341838232,0.822285517585,,,,z,1,0.800422513508,2018_Nov_14_1402,59.983936375,spanish_cond1,001,1025,
images/lip.jpg,boxing glove,x,sounds/greatgatsby_english.wav,,,,,,,,,0,1,1,0,0,166,166,136,949.444959553,8.65943729877e-06,950.208953347,0.764003416291,,,,x,1,0.750410759239,2018_Nov_14_1402,59.983936375,spanish_cond1,001,1025,
images/bowl02b (1).jpg,bowl,z,sounds/greatgatsby_english.wav,,,,,,,,,0,1,1,0,0,167,167,24,951.326870979,9.30076930672e-06,952.14275882,0.815897783381,,,,z,1,0.80042892776,2018_Nov_14_1402,59.983936375,spanish_cond1,001,1025,
images/bowlingball.jpg,bowling ball,z,sounds/greatgatsby_english.wav,,,,,,,,,0,1,1,0,0,168,168,20,953.274961217,9.30076930672e-06,954.159986491,0.885035537067,,,,z,1,0.86718310765,2018_Nov_14_1402,59.983936375,spanish_cond1,001,1025,
images/microphone01.jpg,diaper,x,sounds/greatgatsby_english.wav,,,,,,,,,0,1,1,0,0,169,169,164,955.259340662,8.98004509509e-06,956.060369011,0.801038291422,,,,x,1,0.783758984413,2018_Nov_14_1402,59.983936375,spanish_cond1,001,1025,
images/fryingpan01.jpg,frying pan,z,sounds/greatgatsby_english.wav,,,,,,,,,0,1,1,0,0,170,170,45,957.160636265,9.62149351835e-06,957.844126072,0.683500069077,,,,z,1,0.667065853369,2018_Nov_14_1402,59.983936375,spanish_cond1,001,1025,
images/ladder.jpg,ladder,z,sounds/greatgatsby_english.wav,,,,,,,,,0,1,1,0,0,171,171,113,958.93653478,9.62149351835e-06,960.094672334,1.15814781678,,,,z,1,1.13383581245,2018_Nov_14_1402,59.983936375,spanish_cond1,001,1025,
images/carrot02.jpg,corkscrew,x,sounds/greatgatsby_english.wav,,,,,,,,,0,1,1,0,0,172,172,161,961.197120468,8.98016151041e-06,961.99512894,0.798018734436,,,,x,1,0.783725309069,2018_Nov_14_1402,59.983936375,spanish_cond1,001,1025,
images/atm.jpg,atm,z,sounds/greatgatsby_english.wav,,,,,,,,,0,1,1,0,0,173,173,96,963.132628631,8.98016151041e-06,964.112307958,0.979688948835,,,,z,1,0.967138624168,2018_Nov_14_1402,59.983936375,spanish_cond1,001,1025,
images/cat.jpg,black olive,x,sounds/greatgatsby_english.wav,,,,,,,,,0,1,1,0,0,174,174,133,965.242402599,8.98004509509e-06,966.196138751,0.95374577411,,,,x,1,0.933794888784,2018_Nov_14_1402,59.983936375,spanish_cond1,001,1025,
images/mirror02.jpg,8 ball,x,sounds/greatgatsby_english.wav,,,,,,,,,0,1,1,0,0,175,175,121,967.299010875,9.62149351835e-06,968.113262414,0.814261481748,,,,x,1,0.800427965703,2018_Nov_14_1402,59.983936375,spanish_cond1,001,1025,
images/sock03.jpg,sock,z,sounds/greatgatsby_english.wav,,,,,,,,,0,1,1,0,0,176,176,90,969.217755124,9.62160993367e-06,970.030392491,0.812647309736,,,,z,1,0.800409684773,2018_Nov_14_1402,59.983936375,spanish_cond1,001,1025,
images/ostrich.jpg,ostrich,z,sounds/greatgatsby_english.wav,,,,,,,,,0,1,1,0,0,177,177,76,971.131322348,9.30076930672e-06,971.980864379,0.849551973399,,,,z,1,0.833761117305,2018_Nov_14_1402,59.983936375,spanish_cond1,001,1025,
images/acousticguitar02.jpg,acoustic guitar,z,sounds/greatgatsby_english.wav,,,,,,,,,0,1,1,0,0,178,178,97,973.094230064,8.98016151041e-06,974.081373454,0.987152690883,,,,z,1,0.967144076363,2018_Nov_14_1402,59.983936375,spanish_cond1,001,1025,
images/leaf01a.jpg,leaf,z,sounds/greatgatsby_english.wav,,,,,,,,,0,1,1,0,0,179,179,68,975.182667326,9.30076930672e-06,976.115187682,0.932529978338,,,,z,1,0.917118210462,2018_Nov_14_1402,59.983936375,spanish_cond1,001,1025,
images/worldmap.jpg,scooter,x,sounds/greatgatsby_english.wav,,,,,,,,,0,1,1,0,0,180,180,220,977.244556859,9.62160993367e-06,978.082390129,0.83784353279,,,,x,1,0.817154996679,2018_Nov_14_1402,59.983936375,spanish_cond1,001,1025,
images/chameleon.jpg,50 dollar bill,x,sounds/greatgatsby_english.wav,,,,,,,,,0,1,1,0,0,181,181,120,979.191227922,9.30076930672e-06,980.132822345,0.941604685271,,,,x,1,0.917123662657,2018_Nov_14_1402,59.983936375,spanish_cond1,001,1025,
images/handfan01b.jpg,handfan,z,sounds/greatgatsby_english.wav,,,,,,,,,0,1,1,0,0,182,182,69,981.246213366,8.65932088345e-06,982.11662995,0.870425884263,,,,z,1,0.850430739927,2018_Nov_14_1402,59.983936375,spanish_cond1,001,1025,
images/crocodile.jpg,triangle ruler,x,sounds/greatgatsby_english.wav,,,,,,,,,0,1,1,0,0,183,183,235,983.214504971,9.62160993367e-06,983.93373299,0.719237961923,,,,x,1,0.700399646303,2018_Nov_14_1402,59.983936375,spanish_cond1,001,1025,
images/lettuce.jpg,mushroom,x,sounds/greatgatsby_english.wav,,,,,,,,,0,1,1,0,0,184,184,205,985.055955936,9.30076930672e-06,985.967558123,0.911611808348,,,,x,1,0.90045243653,2018_Nov_14_1402,59.983936375,spanish_cond1,001,1025,
images/candle08a.jpg,screw driver,x,sounds/greatgatsby_english.wav,,,,,,,,,0,1,1,0,0,185,185,221,987.081766654,9.62149351835e-06,988.25143914,1.16968242847,,,,x,1,1.15050479362,2018_Nov_14_1402,59.983936375,spanish_cond1,001,1025,
images/giraffe.jpg,lettuce,x,sounds/greatgatsby_english.wav,,,,,,,,,0,1,1,0,0,186,186,195,989.35151653,9.30088572204e-06,990.318609612,0.967103024479,,,,x,1,0.950459059211,2018_Nov_14_1402,59.983936375,spanish_cond1,001,1025,
images/cloud.jpg,ceiling fan,x,sounds/greatgatsby_english.wav,,,,,,,,,0,1,1,0,0,187,187,149,991.42359751,9.30088572204e-06,992.669168478,1.24558059045,,,,x,1,1.23386669753,2018_Nov_14_1402,59.983936375,spanish_cond1,001,1025,
images/graduationcap.jpg,graduation cap,z,sounds/greatgatsby_english.wav,,,,,,,,,0,1,1,0,0,188,188,35,993.770148046,8.65943729877e-06,994.569630536,0.799492432154,,,,z,1,0.783748721587,2018_Nov_14_1402,59.983936375,spanish_cond1,001,1025,
images/puzzle.jpg,puzzle,z,sounds/greatgatsby_english.wav,,,,,,,,,0,1,1,0,0,189,189,57,995.689815321,9.30076930672e-06,996.670139291,0.980333911953,,,,z,1,0.967135416926,2018_Nov_14_1402,59.983936375,spanish_cond1,001,1025,
images/tank.jpg,wallet,x,sounds/greatgatsby_english.wav,,,,,,,,,0,1,1,0,0,190,190,237,997.774816092,8.98004509509e-06,998.437224483,0.662417691783,,,,x,1,0.650390778435,2018_Nov_14_1402,59.983936375,spanish_cond1,001,1025,
images/globe.jpg,cloud,x,sounds/greatgatsby_english.wav,,,,,,,,,0,1,1,0,0,191,191,154,999.565340617,8.98004509509e-06,1000.67109727,1.10576595878,,,,x,1,1.08382213372,2018_Nov_14_1402,59.983936375,spanish_cond1,001,1025,
images/doll.jpg,carrot,x,sounds/greatgatsby_english.wav,,,,,,,,,0,1,1,0,0,192,192,146,1001.7824899,8.98016151041e-06,1002.97164695,1.18916602817,,,,x,1,1.16717762337,2018_Nov_14_1402,59.983936375,spanish_cond1,001,1025,
images/ashtray02b.jpg,ashtray,z,sounds/greatgatsby_english.wav,,,,,,,,,0,1,1,0,0,193,193,43,1004.08459121,8.98016151041e-06,1005.0721525,0.987571227364,,,,z,1,0.9671322098,2018_Nov_14_1402,59.983936375,spanish_cond1,001,1025,
images/raisin.jpg,ruler,x,sounds/greatgatsby_english.wav,,,,,,,,,0,1,1,0,0,194,194,218,1006.17727542,8.98004509509e-06,1006.88927158,0.712005457375,,,,x,1,0.700406060671,2018_Nov_14_1402,59.983936375,spanish_cond1,001,1025,
images/coin01b.jpg,arrow,x,sounds/greatgatsby_english.wav,,,,,,,,,0,1,1,0,0,195,195,124,1007.99382618,8.65943729877e-06,1008.68969249,0.695875602658,,,,x,1,0.683735475875,2018_Nov_14_1402,59.983936375,spanish_cond1,001,1025,
images/tie01.jpg,bench,x,sounds/greatgatsby_english.wav,,,,,,,,,0,1,1,0,0,196,196,130,1009.78685487,9.30076930672e-06,1010.59015486,0.803309934796,,,,x,1,0.783763153828,2018_Nov_14_1402,59.983936375,spanish_cond1,001,1025,
images/button07.jpg,radish,x,sounds/greatgatsby_english.wav,,,,,,,,,0,1,1,0,0,197,197,215,1011.70061357,9.30088572204e-06,1012.44060164,0.739997697296,,,,x,1,0.717081776937,2018_Nov_14_1402,59.983936375,spanish_cond1,001,1025,
images/doorhandle.jpg,doll,x,sounds/greatgatsby_english.wav,,,,,,,,,0,1,1,0,0,198,198,168,1013.54205844,9.62149351835e-06,1014.35788823,0.815839733463,,,,x,1,0.800584155251,2018_Nov_14_1402,59.983936375,spanish_cond1,001,1025,
images/ant.jpg,ant,z,sounds/greatgatsby_english.wav,,,,,,,,,0,1,1,0,0,199,199,98,1015.45116993,8.98016151041e-06,1016.24150555,0.790345243062,,,,z,1,0.76708455116,2018_Nov_14_1402,59.983936375,spanish_cond1,001,1025,
images/lychee02a.jpg,lychee,z,sounds/greatgatsby_english.wav,,,,,,,,,0,1,1,0,0,200,200,62,1017.3649546,9.62149351835e-06,1018.19198097,0.827036629431,,,,z,1,0.817103361245,2018_Nov_14_1402,59.983936375,spanish_cond1,001,1025,
images/bracelet02a.jpg,chess knight,x,sounds/greatgatsby_english.wav,,,,,,,,,0,1,1,0,0,201,201,152,1019.29929343,9.30088572204e-06,1020.17579755,0.876513747382,,,,x,1,0.867116719135,2018_Nov_14_1402,59.983936375,spanish_cond1,001,1025,
images/masquerademask02b.jpg,mirror,x,sounds/greatgatsby_english.wav,,,,,,,,,0,1,1,0,0,202,202,204,1021.27973959,8.98016151041e-06,1022.07625127,0.796521624201,,,,x,1,0.783755456563,2018_Nov_14_1402,59.983936375,spanish_cond1,001,1025,
images/barrel01.jpg,barrel,z,sounds/greatgatsby_english.wav,,,,,,,,,0,1,1,0,0,203,203,9,1023.20507202,8.98004509509e-06,1023.97687241,0.77181032626,,,,z,1,0.750577532453,2018_Nov_14_1402,59.983936375,spanish_cond1,001,1025,
images/flipflop01b.jpg,flip flop,z,sounds/greatgatsby_english.wav,,,,,,,,,0,1,1,0,0,204,204,27,1025.09220986,9.62160993367e-06,1025.79380226,0.701602337649,,,,z,1,0.683724571485,2018_Nov_14_1402,59.983936375,spanish_cond1,001,1025,
images/fork01.jpg,cooking pot,x,sounds/greatgatsby_english.wav,,,,,,,,,0,1,1,0,0,205,205,160,1026.88659551,9.94221772999e-06,1027.6275823,0.740996412118,,,,x,1,0.717078890419,2018_Nov_14_1402,59.983936375,spanish_cond1,001,1025,
images/flower01.jpg,bus,x,sounds/greatgatsby_english.wav,,,,,,,,,0,1,1,0,0,206,206,140,1028.74068147,9.30076930672e-06,1030.56162927,1.82095806708,,,,x,1,1.80066690035,2018_Nov_14_1402,59.983936375,spanish_cond1,001,1025,
images/gamecontroller01.jpg,game controller,z,sounds/greatgatsby_english.wav,,,,,,,,,0,1,1,0,0,207,207,112,1031.68016236,8.98016151041e-06,1032.4787664,0.798613986466,,,,z,1,0.78378079331,2018_Nov_14_1402,59.983936375,spanish_cond1,001,1025,
images/daisy.jpg,daisy,z,sounds/greatgatsby_english.wav,,,,,,,,,0,1,1,0,0,208,208,6,1033.57951249,9.62149351835e-06,1034.49589626,0.916393709136,,,,z,1,0.900446342886,2018_Nov_14_1402,59.983936375,spanish_cond1,001,1025,
images/swan.jpg,swan,z,sounds/greatgatsby_english.wav,,,,,,,,,0,1,1,0,0,209,209,54,1035.58718502,8.98004509509e-06,1036.2629962,0.675820483943,,,,z,1,0.6670155006,2018_Nov_14_1402,59.983936375,spanish_cond1,001,1025,
images/handbag02a.jpg,candle,x,sounds/greatgatsby_english.wav,,,,,,,,,0,1,1,0,0,210,210,144,1037.37777625,9.30076930672e-06,1038.14677741,0.769010781543,,,,x,1,0.750407872722,2018_Nov_14_1402,59.983936375,spanish_cond1,001,1025,
images/clothespin02a.jpg,clothes pin,z,sounds/greatgatsby_english.wav,,,,,,,,,0,1,1,0,0,211,211,79,1039.2505081,8.98004509509e-06,1040.48067916,1.23018100986,,,,z,1,1.21720381,2018_Nov_14_1402,59.983936375,spanish_cond1,001,1025,
images/cheetah.jpg,cheetah,z,sounds/greatgatsby_english.wav,,,,,,,,,0,1,1,0,0,212,212,82,1041.58300703,8.98016151041e-06,1042.31443964,0.731441911543,,,,z,1,0.717043932178,2018_Nov_14_1402,59.983936375,spanish_cond1,001,1025,
images/flashlight05.jpg,flash light,z,sounds/greatgatsby_english.wav,,,,,,,,,0,1,1,0,0,213,213,8,1043.41690477,9.62160993367e-06,1044.29828349,0.881388656329,,,,z,1,0.867141093593,2018_Nov_14_1402,59.983936375,spanish_cond1,001,1025,
images/tissuebox03.jpg,tissue box,z,sounds/greatgatsby_english.wav,,,,,,,,,0,1,1,0,0,214,214,58,1045.42209912,8.98004509509e-06,1046.36548828,0.943399100797,,,,z,1,0.933864484541,2018_Nov_14_1402,59.983936375,spanish_cond1,001,1025,
images/birthdaycandle.jpg,birthday candle,z,sounds/greatgatsby_english.wav,,,,,,,,,0,1,1,0,0,215,215,55,1047.46092712,9.62149351835e-06,1048.13250644,0.671589255566,,,,z,1,0.650384684792,2018_Nov_14_1402,59.983936375,spanish_cond1,001,1025,
images/toucan.jpg,toucan,z,sounds/greatgatsby_english.wav,,,,,,,,,0,1,1,0,0,216,216,81,1049.23166048,9.62160993367e-06,1050.18300664,0.951355785946,,,,z,1,0.933795530233,2018_Nov_14_1402,59.983936375,spanish_cond1,001,1025,
images/plate01b.jpg,plate,z,sounds/greatgatsby_english.wav,,,,,,,,,0,1,1,0,0,217,217,3,1051.28212701,9.30076930672e-06,1051.95010402,0.667986954446,,,,z,1,0.650394627126,2018_Nov_14_1402,59.983936375,spanish_cond1,001,1025,
images/knife04.jpg,tooth brush,x,sounds/greatgatsby_english.wav,,,,,,,,,0,1,1,0,0,218,218,233,1053.04726064,8.65943729877e-06,1053.90057848,0.853327141376,,,,x,1,0.833781643189,2018_Nov_14_1402,59.983936375,spanish_cond1,001,1025,
,,,sounds/greatgatsby_english.wav,,,,,,,,,0,1,1,0,,,,,,,,,,,,,,,2018_Nov_14_1402,59.983936375,spanish_cond1,001,1025,
