images,name,corrAns,sounds,trials_3.thisRepN,trials_3.thisTrialN,trials_3.thisN,trials_3.thisIndex,trials_4.thisRepN,trials_4.thisTrialN,trials_4.thisN,trials_4.thisIndex,trials_2.thisRepN,trials_2.thisTrialN,trials_2.thisN,trials_2.thisIndex,trials.thisRepN,trials.thisTrialN,trials.thisN,trials.thisIndex,begin_global,begin_routine,end_global,end_routine,key_resp_2.keys,key_resp_2.corr,key_resp_2.rt,begin_book,key_resp_1.keys,key_resp_1.corr,key_resp_1.rt,date,frameRate,expName,session,participant,
images/volleyball.jpg,volley ball,z,,0,0,0,0,,,,,,,,,,,,,,,,,,,,,,,,2018_Nov_14_1535,59.989129368,spanish_cond1,001,1027,
images/puma.jpg,puma,z,,,,,,0,0,0,0,,,,,,,,,48.1538200517,1.0263222066e-05,50.3259163374,2.17210751111,z,1,2.15084307564,,,,,2018_Nov_14_1535,59.989129368,spanish_cond1,001,1027,
images/handfan01b.jpg,handfan,z,sounds/greatgatsby_english.wav,,,,,,,,,0,0,0,0,0,0,0,69,92.5016631232,9.62177182373e-06,94.2375836653,1.73593048463,,,,82.3230702174,z,1,1.71734410886,2018_Nov_14_1535,59.989129368,spanish_cond1,001,1027,
images/tie01.jpg,bench,x,sounds/greatgatsby_english.wav,,,,,,,,,0,0,0,0,0,1,1,130,95.3469011001,9.30104579311e-06,96.671559872,1.32466903512,,,,,x,1,1.30061332378,2018_Nov_14_1535,59.989129368,spanish_cond1,001,1027,
images/scooter.jpg,pen,x,sounds/greatgatsby_english.wav,,,,,,,,,0,0,0,0,0,2,2,212,97.7717039099,9.62177000474e-06,98.9221701328,1.15047680688,,,,,x,1,1.13389785335,2018_Nov_14_1535,59.989129368,spanish_cond1,001,1027,
images/nametag01a.jpg,name tag,z,sounds/greatgatsby_english.wav,,,,,,,,,0,0,0,0,0,3,3,108,100.05590153,9.62177182373e-06,101.206098343,1.15020643511,,,,,z,1,1.13390266424,2018_Nov_14_1535,59.989129368,spanish_cond1,001,1027,
images/plate01b.jpg,plate,z,sounds/greatgatsby_english.wav,,,,,,,,,0,0,0,0,0,4,4,3,102.312913476,9.30104579311e-06,103.206615673,0.893712461058,,,,,z,1,0.883817752105,2018_Nov_14_1535,59.989129368,spanish_cond1,001,1027,
images/nailpolish02b.jpg,nail polish,z,sounds/greatgatsby_english.wav,,,,,,,,,0,0,0,0,0,5,5,94,104.322301438,9.30104579311e-06,105.49055126,1.16825976473,,,,,z,1,1.15055378105,2018_Nov_14_1535,59.989129368,spanish_cond1,001,1027,
images/barrel01.jpg,barrel,z,sounds/greatgatsby_english.wav,,,,,,,,,0,0,0,0,0,6,6,9,106.628038676,9.62177182373e-06,107.524431762,0.896403029061,,,,,z,1,0.883816789927,2018_Nov_14_1535,59.989129368,spanish_cond1,001,1027,
images/puma.jpg,puma,z,sounds/greatgatsby_english.wav,,,,,,,,,0,0,0,0,0,7,7,4,108.630672475,9.94249603536e-06,109.458273424,0.827611212442,,,,,z,1,0.817132141239,2018_Nov_14_1535,59.989129368,spanish_cond1,001,1027,
images/cake.jpg,cake,z,sounds/greatgatsby_english.wav,,,,,,,,,0,0,0,0,0,8,8,23,110.580231301,9.30104579311e-06,111.858905382,1.27868402392,,,,,z,1,1.26724983154,2018_Nov_14_1535,59.989129368,spanish_cond1,001,1027,
images/mirror02.jpg,8 ball,x,sounds/greatgatsby_english.wav,,,,,,,,,0,0,0,0,0,9,9,121,112.970929421,8.98032158148e-06,114.076164659,1.1052455011,,,,,x,1,1.08383000383,2018_Nov_14_1535,59.989129368,spanish_cond1,001,1027,
images/cloud.jpg,ceiling fan,x,sounds/greatgatsby_english.wav,,,,,,,,,0,0,0,0,0,10,10,149,115.190361294,9.62177182373e-06,116.576829363,1.3864789737,,,,,x,1,1.36727744602,2018_Nov_14_1535,59.989129368,spanish_cond1,001,1027,
images/ear.jpg,bullet,x,sounds/greatgatsby_english.wav,,,,,,,,,0,0,0,0,0,11,11,139,117.688349863,8.98031976249e-06,118.777413148,1.08907258632,,,,,x,1,1.06719973418,2018_Nov_14_1535,59.989129368,spanish_cond1,001,1027,
images/envelope02a.jpg,grand piano,x,sounds/greatgatsby_english.wav,,,,,,,,,0,0,0,0,0,12,12,182,119.910545429,9.62177182373e-06,120.994706422,1.08417125598,,,,,x,1,1.06723180675,2018_Nov_14_1535,59.989129368,spanish_cond1,001,1027,
images/key03b.jpg,cigar,x,sounds/greatgatsby_english.wav,,,,,,,,,0,0,0,0,0,13,13,153,122.101614886,9.30104579311e-06,123.061892365,0.96028774228,,,,,x,1,0.950512664014,2018_Nov_14_1535,59.989129368,spanish_cond1,001,1027,
images/bullet (2).jpg,rubber glove,x,sounds/greatgatsby_english.wav,,,,,,,,,0,0,0,0,0,14,14,217,124.176089,9.30104579311e-06,125.212454164,1.03637510668,,,,,x,1,1.01718159714,2018_Nov_14_1535,59.989129368,spanish_cond1,001,1027,
images/axe01.jpg,axe,z,sounds/greatgatsby_english.wav,,,,,,,,,0,0,0,0,0,15,15,104,126.325415043,9.30104579311e-06,127.246328893,0.920923792684,,,,,z,1,0.900484905203,2018_Nov_14_1535,59.989129368,spanish_cond1,001,1027,
images/redfox.jpg,red fox,z,sounds/greatgatsby_english.wav,,,,,,,,,0,0,0,0,0,16,16,1,128.362847582,9.30104579311e-06,129.563616426,1.2007791069,,,,,z,1,1.18389546394,2018_Nov_14_1535,59.989129368,spanish_cond1,001,1027,
images/corkscrew02a.jpg,masquerade mask,x,sounds/greatgatsby_english.wav,,,,,,,,,0,0,0,0,0,17,17,201,130.667596344,9.62177000474e-06,132.180967559,1.51338179926,,,,,x,1,1.50064578122,2018_Nov_14_1535,59.989129368,spanish_cond1,001,1027,
images/headphones02b.jpg,headphones,z,sounds/greatgatsby_english.wav,,,,,,,,,0,0,0,0,0,18,18,101,133.29304099,8.98031976249e-06,134.514923207,1.2218918391,,,,,z,1,1.20056293777,2018_Nov_14_1535,59.989129368,spanish_cond1,001,1027,
images/cookingpot.jpg,grasshopper,x,sounds/greatgatsby_english.wav,,,,,,,,,0,0,0,0,0,19,19,183,135.627352964,9.30104579311e-06,137.065600275,1.43825725345,,,,,x,1,1.41728628202,2018_Nov_14_1535,59.989129368,spanish_cond1,001,1027,
images/pineapple01a.jpg,pineapple,z,sounds/greatgatsby_english.wav,,,,,,,,,0,0,0,0,0,20,20,51,138.177972301,9.30104579311e-06,139.166153559,0.988191199991,,,,,z,1,0.967157687042,2018_Nov_14_1535,59.989129368,spanish_cond1,001,1027,
images/ladder.jpg,ladder,z,sounds/greatgatsby_english.wav,,,,,,,,,0,0,0,0,0,21,21,113,140.256777816,8.98031976249e-06,142.367010282,2.11024272843,,,,,z,1,2.10076784943,2018_Nov_14_1535,59.989129368,spanish_cond1,001,1027,
images/charcoalbarbecue.jpg,charcoal barbecue,z,sounds/greatgatsby_english.wav,,,,,,,,,0,0,0,0,0,22,22,77,143.483460977,9.62177182373e-06,145.051049591,1.56759887733,,,,,z,1,1.55065205141,2018_Nov_14_1535,59.989129368,spanish_cond1,001,1027,
images/pictureframe04.jpg,picture frame,z,sounds/greatgatsby_english.wav,,,,,,,,,0,0,0,0,0,23,23,41,146.171365673,9.94249785435e-06,147.985162587,1.81380653633,,,,,z,1,1.8007151542,2018_Nov_14_1535,59.989129368,spanish_cond1,001,1027,
images/banjo.jpg,knife,x,sounds/greatgatsby_english.wav,,,,,,,,,0,0,0,0,0,24,24,191,149.081560228,9.30104579311e-06,150.619197551,1.53764694449,,,,,x,1,1.51731004779,2018_Nov_14_1535,59.989129368,spanish_cond1,001,1027,
images/croissant02b.jpg,croissant,z,sounds/greatgatsby_english.wav,,,,,,,,,0,0,0,0,0,25,25,39,151.728109588,9.30104579311e-06,153.169876543,1.44177721815,,,,,z,1,1.41727441516,2018_Nov_14_1535,59.989129368,spanish_cond1,001,1027,
images/beachumbrella01.jpg,beach umbrella,z,sounds/greatgatsby_english.wav,,,,,,,,,0,0,0,0,0,26,26,92,154.273367995,9.30104579311e-06,156.604134026,2.33077629414,,,,,z,1,2.31753705745,2018_Nov_14_1535,59.989129368,spanish_cond1,001,1027,
images/worldmap.jpg,scooter,x,sounds/greatgatsby_english.wav,,,,,,,,,0,0,0,0,0,27,27,220,157.732504813,9.30104579311e-06,158.971411151,1.23891660137,,,,,x,1,1.21722848724,2018_Nov_14_1535,59.989129368,spanish_cond1,001,1027,
images/cigar.jpg,crocodile,x,sounds/greatgatsby_english.wav,,,,,,,,,0,0,0,0,0,28,28,162,160.067656768,9.62177182373e-06,162.639059773,2.57141358896,,,,,x,1,2.55092563044,2018_Nov_14_1535,59.989129368,spanish_cond1,001,1027,
images/doorhandle.jpg,doll,x,sounds/greatgatsby_english.wav,,,,,,,,,0,0,0,0,0,29,29,168,163.74011788,9.30104579311e-06,165.406461789,1.66635353146,,,,,x,1,1.65068255242,2018_Nov_14_1535,59.989129368,spanish_cond1,001,1027,
images/egg01b (1).jpg,egg,z,sounds/greatgatsby_english.wav,,,,,,,,,0,0,0,0,0,30,30,19,166.521121873,9.62177182373e-06,167.523713016,1.00260108553,,,,,z,1,0.983862685776,2018_Nov_14_1535,59.989129368,spanish_cond1,001,1027,
images/aquarium.jpg,computer mouse,x,sounds/greatgatsby_english.wav,,,,,,,,,0,0,0,0,0,31,31,159,168.660693685,8.98031976249e-06,170.824592542,2.16390879972,,,,,x,1,2.15083858548,2018_Nov_14_1535,59.989129368,spanish_cond1,001,1027,
images/acousticguitar02.jpg,acoustic guitar,z,sounds/greatgatsby_english.wav,,,,,,,,,0,0,0,0,0,32,32,97,171.938170497,9.30104579311e-06,173.358572309,1.42041175408,,,,,z,1,1.40061848746,2018_Nov_14_1535,59.989129368,spanish_cond1,001,1027,
images/candy.jpg,candy,z,sounds/greatgatsby_english.wav,,,,,,,,,0,0,0,0,0,33,33,31,174.464521161,9.62177000474e-06,175.609179042,1.1446681435,,,,,z,1,1.13389111811,2018_Nov_14_1535,59.989129368,spanish_cond1,001,1027,
images/blueberry02.jpg,blueberry,z,sounds/greatgatsby_english.wav,,,,,,,,,0,0,0,0,0,34,34,46,176.723057196,9.30104579311e-06,178.176519735,1.45347248125,,,,,z,1,1.43396145326,2018_Nov_14_1535,59.989129368,spanish_cond1,001,1027,
images/swallow.jpg,mattress,x,sounds/greatgatsby_english.wav,,,,,,,,,0,0,0,0,0,35,35,202,179.278013386,9.62177182373e-06,181.027289589,1.74928614475,,,,,x,1,1.73404846615,2018_Nov_14_1535,59.989129368,spanish_cond1,001,1027,
images/honeycomb.jpg,honey comb,z,sounds/greatgatsby_english.wav,,,,,,,,,0,0,0,0,0,36,36,59,182.143776526,8.98031976249e-06,185.144882388,3.00111612548,,,,,None,0,,2018_Nov_14_1535,59.989129368,spanish_cond1,001,1027,
images/floorlamp.jpg,floor lamp,z,sounds/greatgatsby_english.wav,,,,,,,,,0,0,0,0,0,37,37,26,186.23591076,1.0263222066e-05,187.429001751,1.19310253697,,,,,z,1,1.18392497071,2018_Nov_14_1535,59.989129368,spanish_cond1,001,1027,
images/mushroom01.jpg,shower head,x,sounds/greatgatsby_english.wav,,,,,,,,,0,0,0,0,0,38,38,222,188.543274077,9.30104579311e-06,189.896305208,1.35304075237,,,,,x,1,1.33393736676,2018_Nov_14_1535,59.989129368,spanish_cond1,001,1027,
images/lock02a.jpg,lock,z,sounds/greatgatsby_english.wav,,,,,,,,,0,0,0,0,0,39,39,65,191.005232961,9.62177182373e-06,192.163571076,1.15834837804,,,,,z,1,1.13388534505,2018_Nov_14_1535,59.989129368,spanish_cond1,001,1027,
images/glasses01b.jpg,calculator,x,sounds/greatgatsby_english.wav,,,,,,,,,0,0,0,0,0,40,40,142,193.254835822,9.30104579311e-06,194.397502637,1.142677399,,,,,x,1,1.13389304247,2018_Nov_14_1535,59.989129368,spanish_cond1,001,1027,
images/kiwi03.jpg,backpack,x,sounds/greatgatsby_english.wav,,,,,,,,,0,0,0,0,0,41,41,125,195.523536937,8.98031976249e-06,196.431392761,0.907866086753,,,,,x,1,0.883838278549,2018_Nov_14_1535,59.989129368,spanish_cond1,001,1027,
images/atm.jpg,atm,z,sounds/greatgatsby_english.wav,,,,,,,,,0,0,0,0,0,42,42,96,197.568286513,9.62177182373e-06,198.498591212,0.930314641546,,,,,z,1,0.917150454676,2018_Nov_14_1535,59.989129368,spanish_cond1,001,1027,
images/screwdriver02b.jpg,cola,x,sounds/greatgatsby_english.wav,,,,,,,,,0,0,0,0,0,43,43,158,199.591919508,9.30104579311e-06,200.599144496,1.00723525135,,,,,x,1,0.983844404411,2018_Nov_14_1535,59.989129368,spanish_cond1,001,1027,
images/backpack01b.jpg,swallow,x,sounds/greatgatsby_english.wav,,,,,,,,,0,0,0,0,0,44,44,228,201.729403396,9.62177000474e-06,203.199844512,1.47045105902,,,,,x,1,1.45064175611,2018_Nov_14_1535,59.989129368,spanish_cond1,001,1027,
images/apple06.jpg,apple,z,sounds/greatgatsby_english.wav,,,,,,,,,0,0,0,0,0,45,45,13,204.325580858,9.94249603536e-06,205.033656636,0.70808636117,,,,,z,1,0.68376156096,2018_Nov_14_1535,59.989129368,spanish_cond1,001,1027,
images/razor04a.jpg,razor,z,sounds/greatgatsby_english.wav,,,,,,,,,0,0,0,0,0,46,46,36,206.131782667,9.62177182373e-06,207.951103762,1.81933167817,,,,,z,1,1.8007315112,2018_Nov_14_1535,59.989129368,spanish_cond1,001,1027,
images/arrow02.jpg,hammer,x,sounds/greatgatsby_english.wav,,,,,,,,,0,0,0,0,0,47,47,184,209.0478449,9.30104579311e-06,210.068323878,1.02048924142,,,,,x,1,1.00051444404,2018_Nov_14_1535,59.989129368,spanish_cond1,001,1027,
images/computerkeyboard01a.jpg,computer keyboard,z,sounds/greatgatsby_english.wav,,,,,,,,,0,0,0,0,0,48,48,61,211.183144966,9.30104579311e-06,212.352271331,1.16913662883,,,,,z,1,1.1505617992,2018_Nov_14_1535,59.989129368,spanish_cond1,001,1027,
images/hammer02a.jpg,flower,x,sounds/greatgatsby_english.wav,,,,,,,,,0,0,0,0,0,49,49,176,213.445363894,9.62177182373e-06,214.569521949,1.12417024249,,,,,x,1,1.100539172,2018_Nov_14_1535,59.989129368,spanish_cond1,001,1027,
images/eraser.jpg,eraser,z,sounds/greatgatsby_english.wav,,,,,,,,,0,0,0,0,0,50,50,110,215.674935831,9.30104579311e-06,216.886797615,1.21187204712,,,,,z,1,1.20057063519,2018_Nov_14_1535,59.989129368,spanish_cond1,001,1027,
images/wallet01.jpg,lamp,x,sounds/greatgatsby_english.wav,,,,,,,,,0,0,0,0,0,51,51,193,217.990540516,8.98031976249e-06,219.470830157,1.48029958347,,,,,x,1,1.46731115429,2018_Nov_14_1535,59.989129368,spanish_cond1,001,1027,
images/doll.jpg,carrot,x,sounds/greatgatsby_english.wav,,,,,,,,,0,0,0,0,0,52,52,146,220.580440414,9.30104579311e-06,221.554713401,0.97428292947,,,,,x,1,0.950507532403,2018_Nov_14_1535,59.989129368,spanish_cond1,001,1027,
images/fireextinguisher02.jpg,fire extinguisher,x,sounds/greatgatsby_english.wav,,,,,,,,,0,0,0,0,0,53,53,175,222.664618085,9.30104579311e-06,224.58884439,1.92423656857,,,,,z,0,1.90075110755,2018_Nov_14_1535,59.989129368,spanish_cond1,001,1027,
images/grasshopper.jpg,cauliflower,x,sounds/greatgatsby_english.wav,,,,,,,,,0,0,0,0,0,54,54,148,225.681865751,9.30104579311e-06,226.822795195,1.14093906564,,,,,x,1,1.11722781372,2018_Nov_14_1535,59.989129368,spanish_cond1,001,1027,
images/mitten01.jpg,mitten,z,sounds/greatgatsby_english.wav,,,,,,,,,0,0,0,0,0,55,55,102,227.942874581,9.62177000474e-06,229.123396973,1.18053265485,,,,,z,1,1.1672401777,2018_Nov_14_1535,59.989129368,spanish_cond1,001,1027,
images/dryingmachine01.jpg,drying machine,z,sounds/greatgatsby_english.wav,,,,,,,,,0,0,0,0,0,56,56,18,230.243384952,9.30104579311e-06,231.724083198,1.48070850876,,,,,z,1,1.46731628591,2018_Nov_14_1535,59.989129368,spanish_cond1,001,1027,
images/globe.jpg,cloud,x,sounds/greatgatsby_english.wav,,,,,,,,,0,0,0,0,0,57,57,154,232.850666901,9.30104579311e-06,235.108308752,2.25765211459,,,,,x,1,2.23417499244,2018_Nov_14_1535,59.989129368,spanish_cond1,001,1027,
images/flashlight05.jpg,flash light,z,sounds/greatgatsby_english.wav,,,,,,,,,0,0,0,0,0,58,58,8,236.209019513,9.94249785435e-06,237.158964813,0.949955563452,,,,,z,1,0.933942049354,2018_Nov_14_1535,59.989129368,spanish_cond1,001,1027,
images/donut.jpg,rhinoceros,x,sounds/greatgatsby_english.wav,,,,,,,,,0,0,0,0,0,59,59,216,238.282588218,9.30104579311e-06,239.876239645,1.59366136945,,,,,x,1,1.58399886591,2018_Nov_14_1535,59.989129368,spanish_cond1,001,1027,
images/pipe.jpg,icecube,x,sounds/greatgatsby_english.wav,,,,,,,,,0,0,0,0,0,60,60,188,240.983299491,9.30104579311e-06,243.76059782,2.77730795024,,,,,z,0,2.76762748607,2018_Nov_14_1535,59.989129368,spanish_cond1,001,1027,
images/sunglasses03a.jpg,sun glasses,z,sounds/greatgatsby_english.wav,,,,,,,,,0,0,0,0,0,61,61,17,244.867362919,9.94249785435e-06,246.144412846,1.27706083108,,,,,z,1,1.26708145054,2018_Nov_14_1535,59.989129368,spanish_cond1,001,1027,
images/coin01b.jpg,arrow,x,sounds/greatgatsby_english.wav,,,,,,,,,0,0,0,0,0,62,62,124,247.245741324,9.30104579311e-06,248.711933145,1.46620208478,,,,,x,1,1.45064560482,2018_Nov_14_1535,59.989129368,spanish_cond1,001,1027,
images/leek.jpg,donut,x,sounds/greatgatsby_english.wav,,,,,,,,,0,0,0,0,0,63,63,169,249.810784017,8.98031976249e-06,252.312876271,2.50210187596,,,,,x,1,2.4842178895,2018_Nov_14_1535,59.989129368,spanish_cond1,001,1027,
images/stapler03a.jpg,candy cane,x,sounds/greatgatsby_english.wav,,,,,,,,,0,0,0,0,0,64,64,145,253.422749845,9.62177182373e-06,255.230323718,1.80758381605,,,,,x,1,1.78406275448,2018_Nov_14_1535,59.989129368,spanish_cond1,001,1027,
images/ceilingfan02.jpg,paper clip,x,sounds/greatgatsby_english.wav,,,,,,,,,0,0,0,0,0,65,65,208,256.327303155,1.0263222066e-05,257.81433413,1.48704091722,,,,,x,1,1.46730185325,2018_Nov_14_1535,59.989129368,spanish_cond1,001,1027,
images/fork01.jpg,cooking pot,x,sounds/greatgatsby_english.wav,,,,,,,,,0,0,0,0,0,66,66,160,258.906684213,9.30104579311e-06,260.998532038,2.09185808914,,,,,x,1,2.06747138886,2018_Nov_14_1535,59.989129368,spanish_cond1,001,1027,
images/bowtie.jpg,bowtie,z,sounds/greatgatsby_english.wav,,,,,,,,,0,0,0,0,0,67,67,89,262.107183967,9.30104579311e-06,263.565850601,1.45867625594,,,,,z,1,1.43395022786,2018_Nov_14_1535,59.989129368,spanish_cond1,001,1027,
images/parrot01.jpg,chameleon,x,sounds/greatgatsby_english.wav,,,,,,,,,0,0,0,0,0,68,68,150,264.677770725,9.62177182373e-06,266.766713739,2.08895327636,,,,,x,1,2.06746304999,2018_Nov_14_1535,59.989129368,spanish_cond1,001,1027,
images/ladybug03.jpg,giraffe,x,sounds/greatgatsby_english.wav,,,,,,,,,0,0,0,0,0,69,69,178,267.86845467,9.62177182373e-06,269.867545412,1.99910100583,,,,,x,1,1.9841186249,2018_Nov_14_1535,59.989129368,spanish_cond1,001,1027,
images/weight01.jpg,weight,z,sounds/greatgatsby_english.wav,,,,,,,,,0,0,0,0,0,70,70,67,270.970479443,9.30104579311e-06,272.351535907,1.38106640658,,,,,z,1,1.36728867142,2018_Nov_14_1535,59.989129368,spanish_cond1,001,1027,
images/bracelet02a.jpg,chess knight,x,sounds/greatgatsby_english.wav,,,,,,,,,0,0,0,0,0,71,71,152,273.458769908,9.94249785435e-06,275.118945621,1.6601907869,,,,,x,1,1.65067998662,2018_Nov_14_1535,59.989129368,spanish_cond1,001,1027,
images/knife04.jpg,tooth brush,x,sounds/greatgatsby_english.wav,,,,,,,,,0,0,0,0,0,72,72,233,276.213964462,9.94249785435e-06,277.152806238,0.938852360012,,,,,x,1,0.917161038626,2018_Nov_14_1535,59.989129368,spanish_cond1,001,1027,
images/electrictoothbrush01a.jpg,banjo,x,sounds/greatgatsby_english.wav,,,,,,,,,0,0,0,0,0,73,73,127,278.245722722,9.62177182373e-06,280.27029865,2.02458587094,,,,,x,1,2.00078128784,2018_Nov_14_1535,59.989129368,spanish_cond1,001,1027,
images/tape01a.jpg,tie,x,sounds/greatgatsby_english.wav,,,,,,,,,0,0,0,0,0,74,74,232,281.394042007,9.30104579311e-06,283.454486937,2.06045487245,,,,,x,1,2.05080134923,2018_Nov_14_1535,59.989129368,spanish_cond1,001,1027,
images/electricguitar02.jpg,electric guitar,z,sounds/greatgatsby_english.wav,,,,,,,,,0,0,0,0,0,75,75,100,284.554964529,9.62177000474e-06,285.605060603,1.05010569516,,,,,z,1,1.03386029637,2018_Nov_14_1535,59.989129368,spanish_cond1,001,1027,
images/gluestick.jpg,squirrel,x,sounds/greatgatsby_english.wav,,,,,,,,,0,0,0,0,0,76,76,226,286.711026133,9.94249603536e-06,288.605851192,1.89483596323,,,,,x,1,1.88408844461,2018_Nov_14_1535,59.989129368,spanish_cond1,001,1027,
images/table02.jpg,table,z,sounds/greatgatsby_english.wav,,,,,,,,,0,0,0,0,0,77,77,49,289.718455744,9.30104397412e-06,291.823379557,2.10493375571,,,,,z,1,2.08414591865,2018_Nov_14_1535,59.989129368,spanish_cond1,001,1027,
images/graduationcap.jpg,graduation cap,z,sounds/greatgatsby_english.wav,,,,,,,,,0,0,0,0,0,78,78,35,292.923648358,9.62177182373e-06,294.190678813,1.2670410391,,,,,z,1,1.25059390384,2018_Nov_14_1535,59.989129368,spanish_cond1,001,1027,
images/diploma01.jpg,glasses,x,sounds/greatgatsby_english.wav,,,,,,,,,0,0,0,0,0,79,79,179,295.319872261,9.62177182373e-06,297.30816,1.98829832238,,,,,x,1,1.96742581374,2018_Nov_14_1535,59.989129368,spanish_cond1,001,1027,
images/paintbrush03a.jpg,paint brush,z,sounds/greatgatsby_english.wav,,,,,,,,,0,0,0,0,0,80,80,0,298.408447723,9.30104397412e-06,299.675458614,1.26702051265,,,,,z,1,1.25058396134,2018_Nov_14_1535,59.989129368,spanish_cond1,001,1027,
images/radish01.jpg,raisin,x,sounds/greatgatsby_english.wav,,,,,,,,,0,0,0,0,0,81,81,214,300.784488357,9.30104579311e-06,302.009409451,1.22493167741,,,,,x,1,1.20056806938,2018_Nov_14_1535,59.989129368,spanish_cond1,001,1027,
images/showerhead01.jpg,skateboard,x,sounds/greatgatsby_english.wav,,,,,,,,,0,0,0,0,0,82,82,223,303.115564209,9.94249785435e-06,304.343372155,1.22781820882,,,,,x,1,1.21722720434,2018_Nov_14_1535,59.989129368,spanish_cond1,001,1027,
images/paperclip04.jpg,eye drops,x,sounds/greatgatsby_english.wav,,,,,,,,,0,0,0,0,0,83,83,174,305.44850893,9.94249603536e-06,307.460855908,2.0123575617,,,,,x,1,2.00078257074,2018_Nov_14_1535,59.989129368,spanish_cond1,001,1027,
images/sock03.jpg,sock,z,sounds/greatgatsby_english.wav,,,,,,,,,0,0,0,0,0,84,84,90,308.565230318,9.62177000474e-06,309.261162458,0.695942402794,,,,,z,1,0.683589010525,2018_Nov_14_1535,59.989129368,spanish_cond1,001,1027,
images/lightbulb03b.jpg,treadmill,x,sounds/greatgatsby_english.wav,,,,,,,,,0,0,0,0,0,85,85,234,310.363298844,9.62177182373e-06,311.528610177,1.16532159648,,,,,x,1,1.1505630821,2018_Nov_14_1535,59.989129368,spanish_cond1,001,1027,
images/lip.jpg,boxing glove,x,sounds/greatgatsby_english.wav,,,,,,,,,0,0,0,0,0,86,86,136,312.631071137,9.30104579311e-06,313.929251436,1.29819088247,,,,,x,1,1.28392211625,2018_Nov_14_1535,59.989129368,spanish_cond1,001,1027,
images/parkingmeter.jpg,ear,x,sounds/greatgatsby_english.wav,,,,,,,,,0,0,0,0,0,87,87,171,315.028946137,9.30104579311e-06,315.963111411,0.934175216946,,,,,x,1,0.917148209597,2018_Nov_14_1535,59.989129368,spanish_cond1,001,1027,
images/fryingpan01.jpg,frying pan,z,sounds/greatgatsby_english.wav,,,,,,,,,0,0,0,0,0,88,88,45,317.062074217,9.62177182373e-06,317.813633024,0.751568749642,,,,,z,1,0.73380567678,2018_Nov_14_1535,59.989129368,spanish_cond1,001,1027,
images/corn01.jpg,corn,z,sounds/greatgatsby_english.wav,,,,,,,,,0,0,0,0,0,89,89,22,318.912396658,8.98031976249e-06,319.797483201,0.885096485519,,,,,x,0,0.867163428031,2018_Nov_14_1535,59.989129368,spanish_cond1,001,1027,
images/feather03b.jpg,feather,z,sounds/greatgatsby_english.wav,,,,,,,,,0,0,0,0,0,90,90,114,320.896495719,8.98031976249e-06,322.314813455,1.4183276784,,,,,z,1,1.40062682633,2018_Nov_14_1535,59.989129368,spanish_cond1,001,1027,
images/antelope.jpg,antelope,z,sounds/greatgatsby_english.wav,,,,,,,,,0,0,0,0,0,91,91,12,323.418117924,9.30104579311e-06,326.082467882,2.66435990043,,,,,z,1,2.6509516413,2018_Nov_14_1535,59.989129368,spanish_cond1,001,1027,
images/triangleruler02.jpg,bottle of red wine,x,sounds/greatgatsby_english.wav,,,,,,,,,0,0,0,0,0,92,92,134,327.191339187,9.62177000474e-06,328.433081703,1.24175277885,,,,,x,1,1.21722912869,2018_Nov_14_1535,59.989129368,spanish_cond1,001,1027,
images/parkbench03.jpg,park bench,z,sounds/greatgatsby_english.wav,,,,,,,,,0,0,0,0,0,93,93,71,329.537369196,9.94249785435e-06,332.150747499,2.61338856658,,,,,z,1,2.60094184313,2018_Nov_14_1535,59.989129368,spanish_cond1,001,1027,
images/lettuce.jpg,mushroom,x,sounds/greatgatsby_english.wav,,,,,,,,,0,0,0,0,0,94,94,205,333.272723337,8.98031976249e-06,336.218513314,2.94580024112,,,,,x,1,2.93437887778,2018_Nov_14_1535,59.989129368,spanish_cond1,001,1027,
images/dice05a.jpg,band aid,x,sounds/greatgatsby_english.wav,,,,,,,,,0,0,0,0,0,95,95,126,337.329441754,8.98031976249e-06,340.319431905,2.99000105519,,,,,None,0,,2018_Nov_14_1535,59.989129368,spanish_cond1,001,1027,
images/comb02a.jpg,diploma,x,sounds/greatgatsby_english.wav,,,,,,,,,0,0,0,0,0,96,96,166,341.421676376,1.0263222066e-05,342.453477292,1.03181342487,,,,,x,1,1.01717550336,2018_Nov_14_1535,59.989129368,spanish_cond1,001,1027,
images/bowlingball.jpg,bowling ball,z,sounds/greatgatsby_english.wav,,,,,,,,,0,0,0,0,0,97,97,20,343.583672367,9.30104579311e-06,344.454023488,0.870361063386,,,,,z,1,0.85044335519,2018_Nov_14_1535,59.989129368,spanish_cond1,001,1027,
images/djmixer01.jpg,light bulb,x,sounds/greatgatsby_english.wav,,,,,,,,,0,0,0,0,0,98,98,196,345.573747189,9.30104579311e-06,347.838250005,2.26451275831,,,,,x,1,2.25085369166,2018_Nov_14_1535,59.989129368,spanish_cond1,001,1027,
images/pepper05a.jpg,lighter,x,sounds/greatgatsby_english.wav,,,,,,,,,0,0,0,0,0,99,99,198,348.957573761,9.62177000474e-06,349.955474291,0.997910471982,,,,,x,1,0.983844725137,2018_Nov_14_1535,59.989129368,spanish_cond1,001,1027,
images/broadsword.jpg,teapot,x,sounds/greatgatsby_english.wav,,,,,,,,,0,0,0,0,0,100,100,231,351.046409011,9.94249785435e-06,351.805961906,0.75956315875,,,,,x,1,0.750449096178,2018_Nov_14_1535,59.989129368,spanish_cond1,001,1027,
images/hanger02a.jpg,hanger,z,sounds/greatgatsby_english.wav,,,,,,,,,0,0,0,0,0,101,101,88,352.89744635,9.94249785435e-06,354.156587915,1.2591515073,,,,,x,0,1.25058428207,2018_Nov_14_1535,59.989129368,spanish_cond1,001,1027,
images/lantern03.jpg,lantern,z,sounds/greatgatsby_english.wav,,,,,,,,,0,0,0,0,0,102,102,5,355.263524282,1.05839480966e-05,356.65725743,1.39374373182,,,,,z,1,1.38392920429,2018_Nov_14_1535,59.989129368,spanish_cond1,001,1027,
images/bowl02b (1).jpg,bowl,z,sounds/greatgatsby_english.wav,,,,,,,,,0,0,0,0,0,103,103,24,357.774063168,9.30104579311e-06,359.424661691,1.65060910624,,,,,z,1,1.63402534182,2018_Nov_14_1535,59.989129368,spanish_cond1,001,1027,
images/button07.jpg,radish,x,sounds/greatgatsby_english.wav,,,,,,,,,0,0,0,0,0,104,104,215,360.534937774,9.94249603536e-06,361.775283209,1.24035569764,,,,,x,1,1.217241637,2018_Nov_14_1535,59.989129368,spanish_cond1,001,1027,
images/masquerademask02b.jpg,mirror,x,sounds/greatgatsby_english.wav,,,,,,,,,0,0,0,0,0,105,105,204,362.877976375,9.30104397412e-06,365.509599802,2.63163336946,,,,,x,1,2.61760803405,2018_Nov_14_1535,59.989129368,spanish_cond1,001,1027,
images/birthdaycandle.jpg,birthday candle,z,sounds/greatgatsby_english.wav,,,,,,,,,0,0,0,0,0,106,106,55,366.604669959,9.62177182373e-06,368.243671681,1.63901166447,,,,,z,1,1.61735241566,2018_Nov_14_1535,59.989129368,spanish_cond1,001,1027,
images/beermug01b.jpg,beer mug,z,sounds/greatgatsby_english.wav,,,,,,,,,0,0,0,0,0,107,107,111,369.358589949,9.30104579311e-06,372.078024548,2.71944454155,,,,,z,1,2.70096079802,2018_Nov_14_1535,59.989129368,spanish_cond1,001,1027,
images/lemon02.jpg,lemon,z,sounds/greatgatsby_english.wav,,,,,,,,,0,0,0,0,0,108,108,14,373.188527064,9.30104579311e-06,374.678698906,1.4901814634,,,,,z,1,1.46730217398,2018_Nov_14_1535,59.989129368,spanish_cond1,001,1027,
images/50dollarbill.jpg,cherry,x,sounds/greatgatsby_english.wav,,,,,,,,,0,0,0,0,0,109,109,151,375.798311956,8.98031976249e-06,376.945978244,1.14767590923,,,,,x,1,1.13387957199,2018_Nov_14_1535,59.989129368,spanish_cond1,001,1027,
images/hat05.jpg,hat,z,sounds/greatgatsby_english.wav,,,,,,,,,0,0,0,0,0,110,110,15,378.047878576,9.30104579311e-06,378.963191593,0.915322959569,,,,,z,1,0.900477849238,2018_Nov_14_1535,59.989129368,spanish_cond1,001,1027,
images/spoon02b.jpg,spoon,z,sounds/greatgatsby_english.wav,,,,,,,,,0,0,0,0,0,111,111,38,380.052684651,9.30104579311e-06,381.130410603,1.07773589456,,,,,z,1,1.06718818806,2018_Nov_14_1535,59.989129368,spanish_cond1,001,1027,
images/ostrich.jpg,ostrich,z,sounds/greatgatsby_english.wav,,,,,,,,,0,0,0,0,0,112,112,76,382.228699563,8.98031976249e-06,383.247645793,1.01895585178,,,,,z,1,1.00051444404,2018_Nov_14_1535,59.989129368,spanish_cond1,001,1027,
images/hand01a.jpg,cupcake,x,sounds/greatgatsby_english.wav,,,,,,,,,0,0,0,0,0,113,113,163,384.357434695,9.62177182373e-06,385.364877456,1.00745302411,,,,,x,1,0.983847611667,2018_Nov_14_1535,59.989129368,spanish_cond1,001,1027,
images/calculator02b.jpg,dice,x,sounds/greatgatsby_english.wav,,,,,,,,,0,0,0,0,0,114,114,165,386.464929124,9.94249785435e-06,387.282063831,0.817145290994,,,,,x,1,0.800473647731,2018_Nov_14_1535,59.989129368,spanish_cond1,001,1027,
images/diaper01a.jpg,camera,x,sounds/greatgatsby_english.wav,,,,,,,,,0,0,0,0,0,115,115,143,388.400855504,8.98031976249e-06,390.749642471,2.34879690974,,,,,x,1,2.33419651313,2018_Nov_14_1535,59.989129368,spanish_cond1,001,1027,
images/cauliflower01.jpg,glue stick,x,sounds/greatgatsby_english.wav,,,,,,,,,0,0,0,0,0,116,116,181,391.864272727,9.62177000474e-06,392.733503553,0.86924076847,,,,,x,1,0.850478314291,2018_Nov_14_1535,59.989129368,spanish_cond1,001,1027,
images/clothespin02a.jpg,clothes pin,z,sounds/greatgatsby_english.wav,,,,,,,,,0,0,0,0,0,117,117,79,393.838739432,1.09046741272e-05,395.984362056,2.1456335279,,,,,z,1,2.13406110274,2018_Nov_14_1535,59.989129368,spanish_cond1,001,1027,
images/hairdryer03a.jpg,hairdryer,z,sounds/greatgatsby_english.wav,,,,,,,,,0,0,0,0,0,118,118,119,397.082119253,9.62177182373e-06,398.334988385,1.25287907454,,,,,z,1,1.2339075072,2018_Nov_14_1535,59.989129368,spanish_cond1,001,1027,
images/bench02.jpg,electric toothbrush,x,sounds/greatgatsby_english.wav,,,,,,,,,0,0,0,0,0,119,119,172,399.441992425,9.62177182373e-06,401.335785068,1.89380322644,,,,,x,1,1.88405316478,2018_Nov_14_1535,59.989129368,spanish_cond1,001,1027,
images/banana04a.jpg,banana,z,sounds/greatgatsby_english.wav,,,,,,,,,0,0,0,0,0,120,120,118,402.441936619,9.62177182373e-06,403.186273645,0.744347289499,,,,,z,1,0.733775528564,2018_Nov_14_1535,59.989129368,spanish_cond1,001,1027,
images/remotecontrol01c.jpg,remote control,z,sounds/greatgatsby_english.wav,,,,,,,,,0,0,0,0,0,121,121,85,404.29425205,9.30104579311e-06,405.136794648,0.842552540484,,,,,z,1,0.833797049259,2018_Nov_14_1535,59.989129368,spanish_cond1,001,1027,
images/blackolive.jpg,tank,x,sounds/greatgatsby_english.wav,,,,,,,,,0,0,0,0,0,122,122,229,406.251703936,9.94249603536e-06,407.470735863,1.2190428326,,,,,x,1,1.20055908906,2018_Nov_14_1535,59.989129368,spanish_cond1,001,1027,
images/cherry01.jpg,highlighter,x,sounds/greatgatsby_english.wav,,,,,,,,,0,0,0,0,0,123,123,187,408.577740545,8.98031976249e-06,409.821386889,1.24365660668,,,,,x,1,1.23393059944,2018_Nov_14_1535,59.989129368,spanish_cond1,001,1027,
images/lily.jpg,kiwi,x,sounds/greatgatsby_english.wav,,,,,,,,,0,0,0,0,0,124,124,190,410.919098543,9.30104579311e-06,412.572104753,1.65301583198,,,,,x,1,1.63400898481,2018_Nov_14_1535,59.989129368,spanish_cond1,001,1027,
images/nailclipper03a.jpg,aquarium,x,sounds/greatgatsby_english.wav,,,,,,,,,0,0,0,0,0,125,125,123,413.670030972,9.62177182373e-06,415.456199612,1.786178582,,,,,x,1,1.7673821309,2018_Nov_14_1535,59.989129368,spanish_cond1,001,1027,
images/ashtray02b.jpg,ashtray,z,sounds/greatgatsby_english.wav,,,,,,,,,0,0,0,0,0,126,126,43,416.569317967,8.98032158148e-06,417.823504961,1.25419661577,,,,,z,1,1.23391167663,2018_Nov_14_1535,59.989129368,spanish_cond1,001,1027,
images/basketball01.jpg,basket ball,z,sounds/greatgatsby_english.wav,,,,,,,,,0,0,0,0,0,127,127,33,418.96083458,9.94249785435e-06,420.190800047,1.22997573069,,,,,z,1,1.21724741006,2018_Nov_14_1535,59.989129368,spanish_cond1,001,1027,
images/saltshaker03c.jpg,salt shaker,z,sounds/greatgatsby_english.wav,,,,,,,,,0,0,0,0,0,128,128,63,421.300544688,9.62177182373e-06,422.62477914,1.32424407355,,,,,z,1,1.30060434346,2018_Nov_14_1535,59.989129368,spanish_cond1,001,1027,
images/magnifyingglass01b.jpg,magnifying glass,z,sounds/greatgatsby_english.wav,,,,,,,,,0,0,0,0,0,129,129,64,423.729485822,8.98031976249e-06,426.72570607,2.9962305107,,,,,None,0,,2018_Nov_14_1535,59.989129368,spanish_cond1,001,1027,
images/hairpin.jpg,hair pin,z,sounds/greatgatsby_english.wav,,,,,,,,,0,0,0,0,0,130,130,28,427.816623791,8.98031976249e-06,429.359808065,1.54319453714,,,,,z,1,1.53390888632,2018_Nov_14_1535,59.989129368,spanish_cond1,001,1027,
images/safe.jpg,safe,z,sounds/greatgatsby_english.wav,,,,,,,,,0,0,0,0,0,131,131,78,430.469056864,9.30104579311e-06,431.327083138,0.858036857158,,,,,z,1,0.833790634746,2018_Nov_14_1535,59.989129368,spanish_cond1,001,1027,
images/licenseplate.jpg,license plate,z,sounds/greatgatsby_english.wav,,,,,,,,,0,0,0,0,0,132,132,40,432.442113018,9.62177182373e-06,433.577679286,1.13557621101,,,,,z,1,1.11719958985,2018_Nov_14_1535,59.989129368,spanish_cond1,001,1027,
images/pingpongpaddle01c (1).jpg,ping pong paddle,z,sounds/greatgatsby_english.wav,,,,,,,,,0,0,0,0,0,133,133,10,434.688384181,9.62177182373e-06,436.328419281,1.64004472199,,,,,z,1,1.61735466074,2018_Nov_14_1535,59.989129368,spanish_cond1,001,1027,
images/coffeepot03b.jpg,coffee pot,z,sounds/greatgatsby_english.wav,,,,,,,,,0,0,0,0,0,134,134,107,437.447975563,9.30104579311e-06,438.562338013,1.1143723927,,,,,z,1,1.10054205853,2018_Nov_14_1535,59.989129368,spanish_cond1,001,1027,
images/lion.jpg,lion,z,sounds/greatgatsby_english.wav,,,,,,,,,0,0,0,0,0,135,135,44,439.673014042,9.30104579311e-06,440.412873096,0.739869637826,,,,,z,1,0.717147183275,2018_Nov_14_1535,59.989129368,spanish_cond1,001,1027,
images/elbow.jpg,elbow,z,sounds/greatgatsby_english.wav,,,,,,,,,0,0,0,0,0,136,136,105,441.522855075,9.94249785435e-06,442.480066416,0.957221604469,,,,,z,1,0.933850001074,2018_Nov_14_1535,59.989129368,spanish_cond1,001,1027,
images/cat.jpg,black olive,x,sounds/greatgatsby_english.wav,,,,,,,,,0,0,0,0,0,137,137,133,443.608432392,9.94249603536e-06,444.897360075,1.28893762494,,,,,x,1,1.26725015226,2018_Nov_14_1535,59.989129368,spanish_cond1,001,1027,
images/tent.jpg,tent,z,sounds/greatgatsby_english.wav,,,,,,,,,0,0,0,0,0,138,138,11,446.022094794,9.62177182373e-06,448.731701075,2.70961622282,,,,,z,1,2.70095983584,2018_Nov_14_1535,59.989129368,spanish_cond1,001,1027,
images/flipflop01b.jpg,flip flop,z,sounds/greatgatsby_english.wav,,,,,,,,,0,0,0,0,0,139,139,27,449.846880413,9.30104579311e-06,450.849124531,1.00225470176,,,,,z,1,0.984041329997,2018_Nov_14_1535,59.989129368,spanish_cond1,001,1027,
images/cola.jpg,comb,x,sounds/greatgatsby_english.wav,,,,,,,,,0,0,0,0,0,140,140,157,451.970422675,8.98031976249e-06,452.91614979,0.945737058155,,,,,x,1,0.933822739389,2018_Nov_14_1535,59.989129368,spanish_cond1,001,1027,
images/gamecontroller01.jpg,game controller,z,sounds/greatgatsby_english.wav,,,,,,,,,0,0,0,0,0,141,141,112,454.034594438,9.62177000474e-06,455.716890603,1.68230610768,,,,,z,1,1.6673506677,2018_Nov_14_1535,59.989129368,spanish_cond1,001,1027,
images/cockroach02.jpg,belt,x,sounds/greatgatsby_english.wav,,,,,,,,,0,0,0,0,0,142,142,129,456.814079153,9.30104579311e-06,458.067512762,1.25344355179,,,,,x,1,1.23390622429,2018_Nov_14_1535,59.989129368,spanish_cond1,001,1027,
images/umbrella01.jpg,umbrella,z,sounds/greatgatsby_english.wav,,,,,,,,,0,0,0,0,0,143,143,53,459.180421363,9.30104579311e-06,460.068059279,0.887648179289,,,,,z,1,0.86715765497,2018_Nov_14_1535,59.989129368,spanish_cond1,001,1027,
images/cocktailshrimp01.jpg,cocktail shrimp,z,sounds/greatgatsby_english.wav,,,,,,,,,0,0,0,0,0,144,144,30,461.181245307,9.30104579311e-06,462.635404783,1.45416973895,,,,,z,1,1.43396466052,2018_Nov_14_1535,59.989129368,spanish_cond1,001,1027,
images/medal01.jpg,medal,z,sounds/greatgatsby_english.wav,,,,,,,,,0,0,0,0,0,145,145,115,463.736340372,9.30104579311e-06,464.585903977,0.849573867781,,,,,z,1,0.833793521277,2018_Nov_14_1535,59.989129368,spanish_cond1,001,1027,
images/butterfly.jpg,butterfly,z,sounds/greatgatsby_english.wav,,,,,,,,,0,0,0,0,0,146,146,91,465.691416322,9.30104579311e-06,466.76982125,1.07841583307,,,,,z,1,1.06718594298,2018_Nov_14_1535,59.989129368,spanish_cond1,001,1027,
images/eyedrops.jpg,bicycle,x,sounds/greatgatsby_english.wav,,,,,,,,,0,0,0,0,0,147,147,131,467.868754548,9.62177000474e-06,468.887066383,1.01832209778,,,,,x,1,1.00051925493,2018_Nov_14_1535,59.989129368,spanish_cond1,001,1027,
images/lightswitch02a.jpg,fork,x,sounds/greatgatsby_english.wav,,,,,,,,,0,0,0,0,0,148,148,177,469.997513734,9.30104579311e-06,471.137670229,1.14016739958,,,,,x,1,1.11722653082,2018_Nov_14_1535,59.989129368,spanish_cond1,001,1027,
images/carrot02.jpg,corkscrew,x,sounds/greatgatsby_english.wav,,,,,,,,,0,0,0,0,0,149,149,161,472.238793122,9.62177182373e-06,473.604985874,1.36620301489,,,,,x,1,1.35061414163,2018_Nov_14_1535,59.989129368,spanish_cond1,001,1027,
images/candycane01a.jpg,lip,x,sounds/greatgatsby_english.wav,,,,,,,,,0,0,0,0,0,150,150,200,474.698466193,8.98031976249e-06,477.072564192,2.37410794152,,,,,x,1,2.35087296728,2018_Nov_14_1535,59.989129368,spanish_cond1,001,1027,
images/crocodile.jpg,triangle ruler,x,sounds/greatgatsby_english.wav,,,,,,,,,0,0,0,0,0,151,151,235,478.224089131,9.30104579311e-06,479.423199181,1.19911999279,,,,,x,1,1.18391150023,2018_Nov_14_1535,59.989129368,spanish_cond1,001,1027,
images/toothbrush03a.jpg,parrot,x,sounds/greatgatsby_english.wav,,,,,,,,,0,0,0,0,0,152,152,210,480.514271813,9.62177182373e-06,481.707135409,1.19287418027,,,,,x,1,1.18390123701,2018_Nov_14_1535,59.989129368,spanish_cond1,001,1027,
images/binder03b.jpg,dj mixer,x,sounds/greatgatsby_english.wav,,,,,,,,,0,0,0,0,0,153,153,167,482.818779068,1.0263222066e-05,483.674321,0.85555315724,,,,,x,1,0.833792238374,2018_Nov_14_1535,59.989129368,spanish_cond1,001,1027,
images/panda.jpg,panda,z,sounds/greatgatsby_english.wav,,,,,,,,,0,0,0,0,0,154,154,83,484.781934739,9.62177182373e-06,486.024954706,1.24303087081,,,,,z,1,1.23392578856,2018_Nov_14_1535,59.989129368,spanish_cond1,001,1027,
images/bus.jpg,microphone,x,sounds/greatgatsby_english.wav,,,,,,,,,0,0,0,0,0,155,155,203,487.143365035,9.62177000474e-06,488.792357042,1.64900227042,,,,,x,1,1.63402341747,2018_Nov_14_1535,59.989129368,spanish_cond1,001,1027,
images/scissors04a.jpg,leek,x,sounds/greatgatsby_english.wav,,,,,,,,,0,0,0,0,0,156,156,194,489.884242393,9.62177000474e-06,491.526416734,1.64218460395,,,,,x,1,1.63401860658,2018_Nov_14_1535,59.989129368,spanish_cond1,001,1027,
images/watermelon01.jpg,orange,x,sounds/greatgatsby_english.wav,,,,,,,,,0,0,0,0,0,157,157,207,492.653962935,9.62177182373e-06,493.827035189,1.17308251727,,,,,x,1,1.15057045879,2018_Nov_14_1535,59.989129368,spanish_cond1,001,1027,
images/skateboard.jpg,key,x,sounds/greatgatsby_english.wav,,,,,,,,,0,0,0,0,0,158,158,189,494.916964434,9.62177182373e-06,495.844214862,0.927261012037,,,,,x,1,0.91714051218,2018_Nov_14_1535,59.989129368,spanish_cond1,001,1027,
images/sportshorts02.jpg,tape,x,sounds/greatgatsby_english.wav,,,,,,,,,0,0,0,0,0,159,159,230,496.950094758,9.62177182373e-06,498.244863177,1.29477900234,,,,,x,1,1.28393334165,2018_Nov_14_1535,59.989129368,spanish_cond1,001,1027,
images/lipstick04.jpg,lipstick,z,sounds/greatgatsby_english.wav,,,,,,,,,0,0,0,0,0,160,160,56,499.342927629,9.62177182373e-06,500.378749484,1.03583179732,,,,,z,1,1.01718288004,2018_Nov_14_1535,59.989129368,spanish_cond1,001,1027,
images/broom02.jpg,broom,z,sounds/greatgatsby_english.wav,,,,,,,,,0,0,0,0,0,161,161,116,501.470884359,1.0263222066e-05,502.579331345,1.10845724839,,,,,z,1,1.08386977382,2018_Nov_14_1535,59.989129368,spanish_cond1,001,1027,
images/candle08a.jpg,screw driver,x,sounds/greatgatsby_english.wav,,,,,,,,,0,0,0,0,0,162,162,221,503.691212019,9.30104579311e-06,505.013333209,1.32213081183,,,,,x,1,1.3005985704,2018_Nov_14_1535,59.989129368,spanish_cond1,001,1027,
images/radio03a.jpg,radio,z,sounds/greatgatsby_english.wav,,,,,,,,,0,0,0,0,0,163,163,37,506.125757514,9.94249603536e-06,507.247259319,1.12151206779,,,,,z,1,1.10054590723,2018_Nov_14_1535,59.989129368,spanish_cond1,001,1027,
images/giraffe.jpg,lettuce,x,sounds/greatgatsby_english.wav,,,,,,,,,0,0,0,0,0,164,164,195,508.34648993,9.94249603536e-06,509.331130696,0.984651671028,,,,,x,1,0.96717500623,2018_Nov_14_1535,59.989129368,spanish_cond1,001,1027,
images/boxingglove02a.jpg,bracelet,x,sounds/greatgatsby_english.wav,,,,,,,,,0,0,0,0,0,165,165,135,510.441947203,9.94249785435e-06,512.281914694,1.83997839592,,,,,x,1,1.81740251301,2018_Nov_14_1535,59.989129368,spanish_cond1,001,1027,
images/camera01a.jpg,bull,x,sounds/greatgatsby_english.wav,,,,,,,,,0,0,0,0,0,166,166,138,513.391261956,9.30104579311e-06,514.716192704,1.3249406898,,,,,x,1,1.3008942795,2018_Nov_14_1535,59.989129368,spanish_cond1,001,1027,
images/gps.jpg,gps,z,sounds/greatgatsby_english.wav,,,,,,,,,0,0,0,0,0,167,167,21,515.832524089,8.98031976249e-06,517.916759811,2.08424534362,,,,,z,1,2.0674781241,2018_Nov_14_1535,59.989129368,spanish_cond1,001,1027,
images/cactus.jpg,cactus,z,sounds/greatgatsby_english.wav,,,,,,,,,0,0,0,0,0,168,168,70,519.027139489,9.62177182373e-06,520.267371066,1.24024248147,,,,,z,1,1.21724259917,2018_Nov_14_1535,59.989129368,spanish_cond1,001,1027,
images/mattress.jpg,cat,x,sounds/greatgatsby_english.wav,,,,,,,,,0,0,0,0,0,169,169,147,521.370098549,9.30104579311e-06,522.184543651,0.814455364443,,,,,x,1,0.800463063782,2018_Nov_14_1535,59.989129368,spanish_cond1,001,1027,
images/dreamcatcher.jpg,dream catcher,z,sounds/greatgatsby_english.wav,,,,,,,,,0,0,0,0,0,170,170,48,523.281101334,9.62177182373e-06,524.26843363,0.987342880484,,,,,z,1,0.967171478247,2018_Nov_14_1535,59.989129368,spanish_cond1,001,1027,
images/desktopcomputer.jpg,desktop computer,z,sounds/greatgatsby_english.wav,,,,,,,,,0,0,0,0,0,171,171,16,525.403526828,8.98031976249e-06,526.218951105,0.815434219317,,,,,z,1,0.80046338451,2018_Nov_14_1535,59.989129368,spanish_cond1,001,1027,
images/belt02a.jpg,snowman,x,sounds/greatgatsby_english.wav,,,,,,,,,0,0,0,0,0,172,172,224,527.321255872,9.94249785435e-06,529.069703319,1.74845738951,,,,,x,1,1.73402826043,2018_Nov_14_1535,59.989129368,spanish_cond1,001,1027,
images/bed.jpg,bed,z,sounds/greatgatsby_english.wav,,,,,,,,,0,0,0,0,0,173,173,103,530.187115871,9.62177182373e-06,531.170261414,0.983156127033,,,,,z,1,0.967171157521,2018_Nov_14_1535,59.989129368,spanish_cond1,001,1027,
images/tissuebox03.jpg,tissue box,z,sounds/greatgatsby_english.wav,,,,,,,,,0,0,0,0,0,174,174,58,532.293875518,9.62177182373e-06,534.587836991,2.29397205645,,,,,z,1,2.28419441238,2018_Nov_14_1535,59.989129368,spanish_cond1,001,1027,
images/toucan.jpg,toucan,z,sounds/greatgatsby_english.wav,,,,,,,,,0,0,0,0,0,175,175,81,535.687118597,9.30104579311e-06,537.321900851,1.63479251773,,,,,z,1,1.61733573792,2018_Nov_14_1535,59.989129368,spanish_cond1,001,1027,
images/flower01.jpg,bus,x,sounds/greatgatsby_english.wav,,,,,,,,,0,0,0,0,0,176,176,140,538.434532986,9.30104579311e-06,539.355776863,0.921253819442,,,,,x,1,0.900485867382,2018_Nov_14_1535,59.989129368,spanish_cond1,001,1027,
images/shotglass.jpg,shot glass,z,sounds/greatgatsby_english.wav,,,,,,,,,0,0,0,0,0,177,177,86,540.462971415,9.30104579311e-06,541.923111463,1.46014999059,,,,,z,1,1.45062379547,2018_Nov_14_1535,59.989129368,spanish_cond1,001,1027,
images/notebook02b.jpg,notebook,z,sounds/greatgatsby_english.wav,,,,,,,,,0,0,0,0,0,178,178,7,543.028373321,9.30104579311e-06,543.856968841,0.828605141425,,,,,z,1,0.81713727285,2018_Nov_14_1535,59.989129368,spanish_cond1,001,1027,
images/plant01.jpg,plant,z,sounds/greatgatsby_english.wav,,,,,,,,,0,0,0,0,0,179,179,47,544.966882184,9.62177000474e-06,545.790811786,0.823940185937,,,,,z,1,0.800465308863,2018_Nov_14_1535,59.989129368,spanish_cond1,001,1027,
images/cupcake.jpg,scissors,x,sounds/greatgatsby_english.wav,,,,,,,,,0,0,0,0,0,180,180,219,546.908210225,8.98032158148e-06,548.274825694,1.36662508992,,,,,x,1,1.35062023542,2018_Nov_14_1535,59.989129368,spanish_cond1,001,1027,
images/bicycle.jpg,hand bag,x,sounds/greatgatsby_english.wav,,,,,,,,,0,0,0,0,0,181,181,186,549.383653701,9.30104579311e-06,551.29228087,1.90863743209,,,,,x,1,1.88404771244,2018_Nov_14_1535,59.989129368,spanish_cond1,001,1027,
images/orange.jpg,bat,x,sounds/greatgatsby_english.wav,,,,,,,,,0,0,0,0,0,182,182,128,552.415624923,9.62177182373e-06,553.35949664,0.943881980635,,,,,x,1,0.933830757533,2018_Nov_14_1535,59.989129368,spanish_cond1,001,1027,
images/chameleon.jpg,50 dollar bill,x,sounds/greatgatsby_english.wav,,,,,,,,,0,0,0,0,0,183,183,120,554.469958104,9.30104579311e-06,556.11022573,1.64027756886,,,,,x,1,1.61735369856,2018_Nov_14_1535,59.989129368,spanish_cond1,001,1027,
images/bull.jpg,button,x,sounds/greatgatsby_english.wav,,,,,,,,,0,0,0,0,0,184,184,141,557.214379801,9.94249785435e-06,558.244126791,1.02975789378,,,,,x,1,1.01719763343,2018_Nov_14_1535,59.989129368,spanish_cond1,001,1027,
images/highlighter03b.jpg,coin,x,sounds/greatgatsby_english.wav,,,,,,,,,0,0,0,0,0,185,185,156,559.344460698,9.30104579311e-06,561.194902129,1.85045073188,,,,,x,1,1.83406774176,2018_Nov_14_1535,59.989129368,spanish_cond1,001,1027,
images/mailbox01.jpg,mail box,z,sounds/greatgatsby_english.wav,,,,,,,,,0,0,0,0,0,186,186,73,562.313047218,9.62177182373e-06,563.295461507,0.982424551683,,,,,z,1,0.967139726403,2018_Nov_14_1535,59.989129368,spanish_cond1,001,1027,
,,,sounds/greatgatsby_english.wav,,,,,,,,,0,0,0,0,,,,,,,,,,,,,,,,2018_Nov_14_1535,59.989129368,spanish_cond1,001,1027,
images/cat.jpg,black olive,x,sounds/animalfarm_spanish.wav,,,,,,,,,0,1,1,1,0,0,0,133,584.451352484,8.98031976249e-06,585.618094575,1.16675331606,,,,574.298601411,x,1,1.15059066451,2018_Nov_14_1535,59.989129368,spanish_cond1,001,1027,
images/medal01.jpg,medal,z,sounds/animalfarm_spanish.wav,,,,,,,,,0,1,1,1,0,1,1,115,586.716917544,1.0263222066e-05,587.601920698,0.885013738285,,,,,z,1,0.867148995374,2018_Nov_14_1535,59.989129368,spanish_cond1,001,1027,
images/flipflop01b.jpg,flip flop,z,sounds/animalfarm_spanish.wav,,,,,,,,,0,1,1,1,0,2,2,27,588.716417212,9.30104579311e-06,590.16925658,1.45284963192,,,,,z,1,1.4339556802,2018_Nov_14_1535,59.989129368,spanish_cond1,001,1027,
images/egg01b (1).jpg,egg,z,sounds/animalfarm_spanish.wav,,,,,,,,,0,1,1,1,0,3,3,19,591.279659351,9.30104397412e-06,592.019772099,0.740122690413,,,,,z,1,0.71709811224,2018_Nov_14_1535,59.989129368,spanish_cond1,001,1027,
images/carrot02.jpg,corkscrew,x,sounds/animalfarm_spanish.wav,,,,,,,,,0,1,1,1,0,4,4,161,593.121289163,9.30104579311e-06,595.654056908,2.53277864891,,,,,x,1,2.517584589,2018_Nov_14_1535,59.989129368,spanish_cond1,001,1027,
images/leaf01a.jpg,leaf,z,sounds/animalfarm_spanish.wav,,,,,,,,,0,1,1,1,0,5,5,68,596.754716352,9.30104579311e-06,599.188336553,2.4336327094,,,,,z,1,2.41756499266,2018_Nov_14_1535,59.989129368,spanish_cond1,001,1027,
images/pineapple01a.jpg,pineapple,z,sounds/animalfarm_spanish.wav,,,,,,,,,0,1,1,1,0,6,6,51,600.299606886,9.30104579311e-06,601.022153487,0.722557505318,,,,,z,1,0.700433524946,2018_Nov_14_1535,59.989129368,spanish_cond1,001,1027,
images/corkscrew02a.jpg,masquerade mask,x,sounds/animalfarm_spanish.wav,,,,,,,,,0,1,1,1,0,7,7,201,602.124002182,9.30104397412e-06,602.872645272,0.748653032188,,,,,x,1,0.73378322598,2018_Nov_14_1535,59.989129368,spanish_cond1,001,1027,
images/button07.jpg,radish,x,sounds/animalfarm_spanish.wav,,,,,,,,,0,1,1,1,0,8,8,215,603.982822572,9.62177182373e-06,604.939852062,0.95703975299,,,,,x,1,0.933832361161,2018_Nov_14_1535,59.989129368,spanish_cond1,001,1027,
images/nametag01a.jpg,name tag,z,sounds/animalfarm_spanish.wav,,,,,,,,,0,1,1,1,0,9,9,108,606.058865997,9.30104579311e-06,607.140438734,1.08158235803,,,,,z,1,1.06719813055,2018_Nov_14_1535,59.989129368,spanish_cond1,001,1027,
images/calculator02b.jpg,dice,x,sounds/animalfarm_spanish.wav,,,,,,,,,0,1,1,1,0,10,10,165,608.240158131,9.30104579311e-06,610.274613694,2.03446550579,,,,,x,1,2.01745453472,2018_Nov_14_1535,59.989129368,spanish_cond1,001,1027,
images/djmixer01.jpg,light bulb,x,sounds/animalfarm_spanish.wav,,,,,,,,,0,1,1,1,0,11,11,196,611.394351828,9.30104579311e-06,612.475188819,1.0808472547,,,,,x,1,1.06719877201,2018_Nov_14_1535,59.989129368,spanish_cond1,001,1027,
images/nailpolish02b.jpg,nail polish,z,sounds/animalfarm_spanish.wav,,,,,,,,,0,1,1,1,0,12,12,94,613.583848446,9.30104579311e-06,614.509059379,0.925220875779,,,,,z,1,0.917133135488,2018_Nov_14_1535,59.989129368,spanish_cond1,001,1027,
images/lock02a.jpg,lock,z,sounds/animalfarm_spanish.wav,,,,,,,,,0,1,1,1,0,13,13,65,615.617568906,9.30104579311e-06,616.509601405,0.892041800824,,,,,z,1,0.883827053151,2018_Nov_14_1535,59.989129368,spanish_cond1,001,1027,
images/ear.jpg,bullet,x,sounds/animalfarm_spanish.wav,,,,,,,,,0,1,1,1,0,14,14,139,617.610980879,9.94249785435e-06,618.526623602,0.915653307051,,,,,x,1,0.900310109691,2018_Nov_14_1535,59.989129368,spanish_cond1,001,1027,
images/atm.jpg,atm,z,sounds/animalfarm_spanish.wav,,,,,,,,,0,1,1,1,0,15,15,96,619.66354654,8.98031976249e-06,620.410641807,0.747105209899,,,,,z,1,0.733786433238,2018_Nov_14_1535,59.989129368,spanish_cond1,001,1027,
images/notebook02b.jpg,notebook,z,sounds/animalfarm_spanish.wav,,,,,,,,,0,1,1,1,0,16,16,7,621.515080683,9.30104579311e-06,622.511475726,0.996404664764,,,,,z,1,0.984138830614,2018_Nov_14_1535,59.989129368,spanish_cond1,001,1027,
images/key03b.jpg,cigar,x,sounds/animalfarm_spanish.wav,,,,,,,,,0,1,1,1,0,17,17,153,623.610696395,9.30104579311e-06,624.778464166,1.16777739326,,,,,x,1,1.15056019557,2018_Nov_14_1535,59.989129368,spanish_cond1,001,1027,
images/gps.jpg,gps,z,sounds/animalfarm_spanish.wav,,,,,,,,,0,1,1,1,0,18,18,21,625.895294922,9.62177000474e-06,626.628958517,0.733674499965,,,,,z,1,0.717107413288,2018_Nov_14_1535,59.989129368,spanish_cond1,001,1027,
images/pipe.jpg,icecube,x,sounds/animalfarm_spanish.wav,,,,,,,,,0,1,1,1,0,19,19,188,627.735607514,9.94249603536e-06,628.712851383,0.977254132469,,,,,x,1,0.967191042517,2018_Nov_14_1535,59.989129368,spanish_cond1,001,1027,
images/lightswitch02a.jpg,fork,x,sounds/animalfarm_spanish.wav,,,,,,,,,0,1,1,1,0,20,20,177,629.822629701,9.62177182373e-06,631.046799013,1.22417925488,,,,,x,1,1.20058410567,2018_Nov_14_1535,59.989129368,spanish_cond1,001,1027,
images/50dollarbill.jpg,cherry,x,sounds/animalfarm_spanish.wav,,,,,,,,,0,1,1,1,0,21,21,151,632.166687247,9.94249603536e-06,633.114024405,0.947347101232,,,,,x,1,0.933844548737,2018_Nov_14_1535,59.989129368,spanish_cond1,001,1027,
images/candy.jpg,candy,z,sounds/animalfarm_spanish.wav,,,,,,,,,0,1,1,1,0,22,22,31,634.214497187,1.0263222066e-05,635.031185444,0.816698840801,,,,,z,1,0.800457932171,2018_Nov_14_1535,59.989129368,spanish_cond1,001,1027,
images/razor04a.jpg,razor,z,sounds/animalfarm_spanish.wav,,,,,,,,,0,1,1,1,0,23,23,36,636.12830119,9.30104579311e-06,637.165077845,1.03678659777,,,,,z,1,1.01718544585,2018_Nov_14_1535,59.989129368,spanish_cond1,001,1027,
images/gamecontroller01.jpg,game controller,z,sounds/animalfarm_spanish.wav,,,,,,,,,0,1,1,1,0,24,24,112,638.284969606,9.30104579311e-06,639.198971497,0.914012474306,,,,,z,1,0.900500300038,2018_Nov_14_1535,59.989129368,spanish_cond1,001,1027,
images/baseball01a.jpg,baseball,z,sounds/animalfarm_spanish.wav,,,,,,,,,0,1,1,1,0,25,25,74,640.329934389,9.94249603536e-06,641.082786042,0.752861594987,,,,,z,1,0.733772962758,2018_Nov_14_1535,59.989129368,spanish_cond1,001,1027,
images/tape01a.jpg,tie,x,sounds/animalfarm_spanish.wav,,,,,,,,,0,1,1,1,0,26,26,232,642.206148697,9.62177182373e-06,643.683473549,1.47733479499,,,,,x,1,1.46729864599,2018_Nov_14_1535,59.989129368,spanish_cond1,001,1027,
images/lemon02.jpg,lemon,z,sounds/animalfarm_spanish.wav,,,,,,,,,0,1,1,1,0,27,27,14,644.794935356,1.0263222066e-05,645.517327046,0.722402274074,,,,,z,1,0.700464314614,2018_Nov_14_1535,59.989129368,spanish_cond1,001,1027,
images/graduationcap.jpg,graduation cap,z,sounds/animalfarm_spanish.wav,,,,,,,,,0,1,1,1,0,28,28,35,646.617332851,9.30104579311e-06,647.651218485,1.03389525547,,,,,z,1,1.01720757593,2018_Nov_14_1535,59.989129368,spanish_cond1,001,1027,
images/lightbulb03b.jpg,treadmill,x,sounds/animalfarm_spanish.wav,,,,,,,,,0,1,1,1,0,29,29,234,648.752017766,9.62177000474e-06,649.768419679,1.01641185543,,,,,x,1,1.00050353937,2018_Nov_14_1535,59.989129368,spanish_cond1,001,1027,
images/weight01.jpg,weight,z,sounds/animalfarm_spanish.wav,,,,,,,,,0,1,1,1,0,30,30,67,650.872694022,9.62177182373e-06,652.185738033,1.31305459489,,,,,z,1,1.30059375951,2018_Nov_14_1535,59.989129368,spanish_cond1,001,1027,
images/tie01.jpg,bench,x,sounds/animalfarm_spanish.wav,,,,,,,,,0,1,1,1,0,31,31,130,653.281932975,9.30104579311e-06,654.76993158,1.48800886742,,,,,x,1,1.4674821011,2018_Nov_14_1535,59.989129368,spanish_cond1,001,1027,
images/backpack01b.jpg,swallow,x,sounds/animalfarm_spanish.wav,,,,,,,,,0,1,1,1,0,32,32,228,655.900236984,9.62177000474e-06,657.3871092,1.48688215799,,,,,x,1,1.4672887035,2018_Nov_14_1535,59.989129368,spanish_cond1,001,1027,
images/hairband.jpg,hairband,z,sounds/animalfarm_spanish.wav,,,,,,,,,0,1,1,1,0,33,33,66,658.496166847,9.62177182373e-06,659.904462866,1.40830660352,,,,,z,1,1.38396223904,2018_Nov_14_1535,59.989129368,spanish_cond1,001,1027,
images/screw03c.jpg,screw,z,sounds/animalfarm_spanish.wav,,,,,,,,,0,1,1,1,0,34,34,84,660.996714486,9.94249785435e-06,662.171720395,1.17501553114,,,,,z,1,1.15055795048,2018_Nov_14_1535,59.989129368,spanish_cond1,001,1027,
images/panda.jpg,panda,z,sounds/animalfarm_spanish.wav,,,,,,,,,0,1,1,1,0,35,35,83,663.279102571,9.62177182373e-06,663.988883647,0.709790697607,,,,,z,1,0.700451485585,2018_Nov_14_1535,59.989129368,spanish_cond1,001,1027,
images/bowtie.jpg,bowtie,z,sounds/animalfarm_spanish.wav,,,,,,,,,0,1,1,1,0,36,36,89,665.098075036,9.94249603536e-06,666.30617567,1.20811217959,,,,,z,1,1.18391919765,2018_Nov_14_1535,59.989129368,spanish_cond1,001,1027,
images/hairdryer03a.jpg,hairdryer,z,sounds/animalfarm_spanish.wav,,,,,,,,,0,1,1,1,0,37,37,119,667.403163125,9.30104579311e-06,668.189983159,0.786830296649,,,,,z,1,0.767121060166,2018_Nov_14_1535,59.989129368,spanish_cond1,001,1027,
images/acousticguitar02.jpg,acoustic guitar,z,sounds/animalfarm_spanish.wav,,,,,,,,,0,1,1,1,0,38,38,97,669.30281254,9.30104579311e-06,671.857627932,2.55482533438,,,,,z,1,2.53425270428,2018_Nov_14_1535,59.989129368,spanish_cond1,001,1027,
images/teapot.jpg,light switch,x,sounds/animalfarm_spanish.wav,,,,,,,,,0,1,1,1,0,39,39,197,672.97296635,1.0263222066e-05,674.358288466,1.38533237928,,,,,x,1,1.36728418126,2018_Nov_14_1535,59.989129368,spanish_cond1,001,1027,
images/scissors04a.jpg,leek,x,sounds/animalfarm_spanish.wav,,,,,,,,,0,1,1,1,0,40,40,194,675.450392552,9.62177182373e-06,678.376066293,2.92568368298,,,,,x,1,2.91758343439,2018_Nov_14_1535,59.989129368,spanish_cond1,001,1027,
images/scooter.jpg,pen,x,sounds/animalfarm_spanish.wav,,,,,,,,,0,1,1,1,0,41,41,212,679.467227766,9.30104579311e-06,680.293203277,0.825985774531,,,,,x,1,0.817144649542,2018_Nov_14_1535,59.989129368,spanish_cond1,001,1027,
images/seagull.jpg,seagull,z,sounds/animalfarm_spanish.wav,,,,,,,,,0,1,1,1,0,42,42,50,681.399094399,9.30104579311e-06,682.227045901,0.827962086372,,,,,z,1,0.817132782689,2018_Nov_14_1535,59.989129368,spanish_cond1,001,1027,
images/glasses01b.jpg,calculator,x,sounds/animalfarm_spanish.wav,,,,,,,,,0,1,1,1,0,43,43,142,683.318040918,9.94249785435e-06,684.227884278,0.909853944719,,,,,x,1,0.900786387374,2018_Nov_14_1535,59.989129368,spanish_cond1,001,1027,
images/knife04.jpg,tooth brush,x,sounds/animalfarm_spanish.wav,,,,,,,,,0,1,1,1,0,44,44,233,685.324055808,9.62177182373e-06,686.211446123,0.887400258312,,,,,x,1,0.867156692791,2018_Nov_14_1535,59.989129368,spanish_cond1,001,1027,
images/dresser02.jpg,dresser,z,sounds/animalfarm_spanish.wav,,,,,,,,,0,1,1,1,0,45,45,87,687.33169389,9.30104579311e-06,688.412020607,1.08033698009,,,,,z,1,1.06719877201,2018_Nov_14_1535,59.989129368,spanish_cond1,001,1027,
images/cactus.jpg,cactus,z,sounds/animalfarm_spanish.wav,,,,,,,,,0,1,1,1,0,46,46,70,689.522952896,9.62177000474e-06,690.329206021,0.806263388293,,,,,z,1,0.783801363021,2018_Nov_14_1535,59.989129368,spanish_cond1,001,1027,
images/daisy.jpg,daisy,z,sounds/animalfarm_spanish.wav,,,,,,,,,0,1,1,1,0,47,47,6,691.431082299,9.30104579311e-06,692.279714516,0.848642159588,,,,,z,1,0.833809236836,2018_Nov_14_1535,59.989129368,spanish_cond1,001,1027,
images/apple06.jpg,apple,z,sounds/animalfarm_spanish.wav,,,,,,,,,0,1,1,1,0,48,48,13,693.404923909,8.98031976249e-06,694.163554719,0.758641072327,,,,,z,1,0.750457435048,2018_Nov_14_1535,59.989129368,spanish_cond1,001,1027,
images/lily.jpg,kiwi,x,sounds/animalfarm_spanish.wav,,,,,,,,,0,1,1,1,0,49,49,190,695.261496333,9.94249785435e-06,696.130739347,0.869253597501,,,,,x,1,0.850471579051,2018_Nov_14_1535,59.989129368,spanish_cond1,001,1027,
images/paintbrush03a.jpg,paint brush,z,sounds/animalfarm_spanish.wav,,,,,,,,,0,1,1,1,0,50,50,0,697.229143768,9.30104579311e-06,699.464988779,2.23585495372,,,,,z,1,2.21748763362,2018_Nov_14_1535,59.989129368,spanish_cond1,001,1027,
images/dolphin01.jpg,dolphin,z,sounds/animalfarm_spanish.wav,,,,,,,,,0,1,1,1,0,51,51,99,700.563248233,9.30104579311e-06,701.332125587,0.768887296663,,,,,z,1,0.750458717952,2018_Nov_14_1535,59.989129368,spanish_cond1,001,1027,
images/diaper01a.jpg,camera,x,sounds/animalfarm_spanish.wav,,,,,,,,,0,1,1,1,0,52,52,143,702.450358876,8.98031976249e-06,703.399339754,0.948990499784,,,,,x,1,0.933842303657,2018_Nov_14_1535,59.989129368,spanish_cond1,001,1027,
images/raisin.jpg,ruler,x,sounds/animalfarm_spanish.wav,,,,,,,,,0,1,1,1,0,53,53,218,704.502582965,9.30104579311e-06,706.366792829,1.86421980744,,,,,x,1,1.85074708244,2018_Nov_14_1535,59.989129368,spanish_cond1,001,1027,
images/magnifyingglass01b.jpg,magnifying glass,z,sounds/animalfarm_spanish.wav,,,,,,,,,0,1,1,1,0,54,54,64,707.471528697,9.30104579311e-06,708.900801461,1.42928270657,,,,,z,1,1.41730392193,2018_Nov_14_1535,59.989129368,spanish_cond1,001,1027,
images/cherry01.jpg,highlighter,x,sounds/animalfarm_spanish.wav,,,,,,,,,0,1,1,1,0,55,55,187,710.007414216,9.62177000474e-06,710.96801178,0.960607826541,,,,,x,1,0.950469366044,2018_Nov_14_1535,59.989129368,spanish_cond1,001,1027,
images/aloe02.jpg,broad sword,x,sounds/animalfarm_spanish.wav,,,,,,,,,0,1,1,1,0,56,56,137,712.088204382,9.62177182373e-06,713.58537959,1.49718515078,,,,,x,1,1.48398119393,2018_Nov_14_1535,59.989129368,spanish_cond1,001,1027,
images/puma.jpg,puma,z,sounds/animalfarm_spanish.wav,,,,,,,,,0,1,1,1,0,57,57,4,714.682491166,9.30104579311e-06,715.352503216,0.670022312888,,,,,z,1,0.650415387907,2018_Nov_14_1535,59.989129368,spanish_cond1,001,1027,
images/croissant02b.jpg,croissant,z,sounds/animalfarm_spanish.wav,,,,,,,,,0,1,1,1,0,58,58,39,716.461912378,9.30104579311e-06,717.319695541,0.857793426341,,,,,z,1,0.833798332162,2018_Nov_14_1535,59.989129368,spanish_cond1,001,1027,
images/lettuce.jpg,mushroom,x,sounds/animalfarm_spanish.wav,,,,,,,,,0,1,1,1,0,59,59,205,718.441202478,9.62177182373e-06,719.503617946,1.06242573195,,,,,x,1,1.05053931632,2018_Nov_14_1535,59.989129368,spanish_cond1,001,1027,
images/bowl02b (1).jpg,bowl,z,sounds/animalfarm_spanish.wav,,,,,,,,,0,1,1,1,0,60,60,24,720.619195947,1.37912047649e-05,721.570831793,0.951648995215,,,,,z,1,0.933831078257,2018_Nov_14_1535,59.989129368,spanish_cond1,001,1027,
images/tissuebox03.jpg,tissue box,z,sounds/animalfarm_spanish.wav,,,,,,,,,0,1,1,1,0,61,61,58,722.694455839,9.62177182373e-06,723.85492261,1.16047671387,,,,,z,1,1.15070708794,2018_Nov_14_1535,59.989129368,spanish_cond1,001,1027,
images/dice05a.jpg,band aid,x,sounds/animalfarm_spanish.wav,,,,,,,,,0,1,1,1,0,62,62,126,724.965826355,9.30104579311e-06,725.838624292,0.872808200573,,,,,x,1,0.850477993565,2018_Nov_14_1535,59.989129368,spanish_cond1,001,1027,
images/fireextinguisher02.jpg,fire extinguisher,x,sounds/animalfarm_spanish.wav,,,,,,,,,0,1,1,1,0,63,63,175,726.947220735,9.30104397412e-06,728.039215454,1.09200690586,,,,,z,0,1.08387907486,2018_Nov_14_1535,59.989129368,spanish_cond1,001,1027,
images/straw.jpg,straw,z,sounds/animalfarm_spanish.wav,,,,,,,,,0,1,1,1,0,64,64,109,729.128639876,9.62177182373e-06,731.890247982,2.76161933129,,,,,z,1,2.75099657497,2018_Nov_14_1535,59.989129368,spanish_cond1,001,1027,
images/bus.jpg,microphone,x,sounds/animalfarm_spanish.wav,,,,,,,,,0,1,1,1,0,65,65,203,733.007276946,9.30104579311e-06,734.324244074,1.31697771181,,,,,x,1,1.30061556886,2018_Nov_14_1535,59.989129368,spanish_cond1,001,1027,
images/cake.jpg,cake,z,sounds/animalfarm_spanish.wav,,,,,,,,,0,1,1,1,0,66,66,23,735.436406666,9.62177182373e-06,736.741518489,1.30512176512,,,,,z,1,1.28391826754,2018_Nov_14_1535,59.989129368,spanish_cond1,001,1027,
images/swallow.jpg,mattress,x,sounds/animalfarm_spanish.wav,,,,,,,,,0,1,1,1,0,67,67,202,737.842369085,9.30104579311e-06,740.525863161,2.68350401821,,,,,x,1,2.66762681254,2018_Nov_14_1535,59.989129368,spanish_cond1,001,1027,
images/headphones02b.jpg,headphones,z,sounds/animalfarm_spanish.wav,,,,,,,,,0,1,1,1,0,68,68,101,741.631791808,9.62177182373e-06,742.593087591,0.961306046418,,,,,z,1,0.950515229821,2018_Nov_14_1535,59.989129368,spanish_cond1,001,1027,
images/icecube02 (2).jpg,aloe,x,sounds/animalfarm_spanish.wav,,,,,,,,,0,1,1,1,0,69,69,122,743.70137261,8.98031976249e-06,745.543852987,1.84248999897,,,,,x,1,1.8340632516,2018_Nov_14_1535,59.989129368,spanish_cond1,001,1027,
images/leek.jpg,donut,x,sounds/animalfarm_spanish.wav,,,,,,,,,0,1,1,1,0,70,70,169,746.643559555,9.62177182373e-06,748.227907371,1.58435775799,,,,,x,1,1.56733203354,2018_Nov_14_1535,59.989129368,spanish_cond1,001,1027,
images/chessknight02b (1).jpg,cockroach,x,sounds/animalfarm_spanish.wav,,,,,,,,,0,1,1,1,0,71,71,155,749.336302719,9.30104579311e-06,750.745389007,1.40909623022,,,,,x,1,1.40059828174,2018_Nov_14_1535,59.989129368,spanish_cond1,001,1027,
images/eraser.jpg,eraser,z,sounds/animalfarm_spanish.wav,,,,,,,,,0,1,1,1,0,72,72,110,751.851537671,9.62177182373e-06,753.02917738,1.17764933069,,,,,z,1,1.16722478286,2018_Nov_14_1535,59.989129368,spanish_cond1,001,1027,
images/ladder.jpg,ladder,z,sounds/animalfarm_spanish.wav,,,,,,,,,0,1,1,1,0,73,73,113,754.120691972,9.30104579311e-06,756.230033461,2.10935143167,,,,,z,1,2.10081018522,2018_Nov_14_1535,59.989129368,spanish_cond1,001,1027,
images/sportshorts02.jpg,tape,x,sounds/animalfarm_spanish.wav,,,,,,,,,0,1,1,1,0,74,74,230,757.337562209,9.62177182373e-06,758.580653055,1.2431017512,,,,,x,1,1.23390397921,2018_Nov_14_1535,59.989129368,spanish_cond1,001,1027,
images/blueberry02.jpg,blueberry,z,sounds/animalfarm_spanish.wav,,,,,,,,,0,1,1,1,0,75,75,46,759.691444866,9.30104579311e-06,760.54784955,0.856414305777,,,,,z,1,0.833764014511,2018_Nov_14_1535,59.989129368,spanish_cond1,001,1027,
images/bandaid01.jpg,door handle,x,sounds/animalfarm_spanish.wav,,,,,,,,,0,1,1,1,0,76,76,170,761.653136425,9.62177182373e-06,762.981832492,1.32870665111,,,,,x,1,1.31724519705,2018_Nov_14_1535,59.989129368,spanish_cond1,001,1027,
images/dragonfly02.jpg,dragon fly,z,sounds/animalfarm_spanish.wav,,,,,,,,,0,1,1,1,0,77,77,29,764.077615943,9.62177182373e-06,765.615688811,1.53808409364,,,,,z,1,1.51715096784,2018_Nov_14_1535,59.989129368,spanish_cond1,001,1027,
images/ruler02b.jpg,watermelon,x,sounds/animalfarm_spanish.wav,,,,,,,,,0,1,1,1,0,78,78,238,766.716961804,8.98031976249e-06,768.049841738,1.33288987658,,,,,x,1,1.31726861003,2018_Nov_14_1535,59.989129368,spanish_cond1,001,1027,
images/bed.jpg,bed,z,sounds/animalfarm_spanish.wav,,,,,,,,,0,1,1,1,0,79,79,103,769.167490023,8.98031976249e-06,770.117045962,0.949566202436,,,,,z,1,0.933830116081,2018_Nov_14_1535,59.989129368,spanish_cond1,001,1027,
images/giraffe.jpg,lettuce,x,sounds/animalfarm_spanish.wav,,,,,,,,,0,1,1,1,0,80,80,195,771.216442709,9.30104579311e-06,772.434489047,1.21805595958,,,,,x,1,1.20071784829,2018_Nov_14_1535,59.989129368,spanish_cond1,001,1027,
images/mushroom01.jpg,shower head,x,sounds/animalfarm_spanish.wav,,,,,,,,,0,1,1,1,0,81,81,222,773.548850856,9.62177182373e-06,775.101722008,1.55288173656,,,,,x,1,1.53400285895,2018_Nov_14_1535,59.989129368,spanish_cond1,001,1027,
images/charcoalbarbecue.jpg,charcoal barbecue,z,sounds/animalfarm_spanish.wav,,,,,,,,,0,1,1,1,0,82,82,77,776.216649577,9.30104579311e-06,777.102262752,0.885623758591,,,,,z,1,0.867165993837,2018_Nov_14_1535,59.989129368,spanish_cond1,001,1027,
images/candle08a.jpg,screw driver,x,sounds/animalfarm_spanish.wav,,,,,,,,,0,1,1,1,0,83,83,221,778.214879492,9.30104579311e-06,779.369503603,1.15463341211,,,,,x,1,1.13388117561,2018_Nov_14_1535,59.989129368,spanish_cond1,001,1027,
images/drink.jpg,drink,z,sounds/animalfarm_spanish.wav,,,,,,,,,0,1,1,1,0,84,84,117,780.467804751,9.94249785435e-06,781.186654667,0.71885985858,,,,,z,1,0.700429034785,2018_Nov_14_1535,59.989129368,spanish_cond1,001,1027,
images/lollipop03b.jpg,lollipop,z,sounds/animalfarm_spanish.wav,,,,,,,,,0,1,1,1,0,85,85,42,782.27772762,8.98031976249e-06,784.654262493,2.37654513621,,,,,z,1,2.36756962715,2018_Nov_14_1535,59.989129368,spanish_cond1,001,1027,
images/swan.jpg,swan,z,sounds/animalfarm_spanish.wav,,,,,,,,,0,1,1,1,0,86,86,54,785.744728632,9.62177000474e-06,786.921507513,1.17678914433,,,,,z,1,1.16721516109,2018_Nov_14_1535,59.989129368,spanish_cond1,001,1027,
images/mailbox01.jpg,mail box,z,sounds/animalfarm_spanish.wav,,,,,,,,,0,1,1,1,0,87,87,73,788.039114746,9.62177182373e-06,789.072080859,1.03297637631,,,,,z,1,1.0171748619,2018_Nov_14_1535,59.989129368,spanish_cond1,001,1027,
images/mirror02.jpg,8 ball,x,sounds/animalfarm_spanish.wav,,,,,,,,,0,1,1,1,0,88,88,121,790.171824952,9.94249785435e-06,791.572901436,1.4011053491,,,,,x,1,1.38395133436,2018_Nov_14_1535,59.989129368,spanish_cond1,001,1027,
images/kiwi03.jpg,backpack,x,sounds/animalfarm_spanish.wav,,,,,,,,,0,1,1,1,0,89,89,125,792.699523626,9.30104579311e-06,794.0234056,1.32389223744,,,,,x,1,1.30058157193,2018_Nov_14_1535,59.989129368,spanish_cond1,001,1027,
images/cockroach02.jpg,belt,x,sounds/animalfarm_spanish.wav,,,,,,,,,0,1,1,1,0,90,90,129,795.121054392,9.30104579311e-06,795.973924037,0.852879908427,,,,,x,1,0.833801218694,2018_Nov_14_1535,59.989129368,spanish_cond1,001,1027,
images/computermouse02a.jpg,world map,x,sounds/animalfarm_spanish.wav,,,,,,,,,0,1,1,1,0,91,91,239,797.074206629,9.30104579311e-06,798.174518086,1.10032107851,,,,,x,1,1.08388164067,2018_Nov_14_1535,59.989129368,spanish_cond1,001,1027,
images/ostrich.jpg,ostrich,z,sounds/animalfarm_spanish.wav,,,,,,,,,0,1,1,1,0,92,92,76,799.273282682,9.30104579311e-06,800.108359427,0.8350873288,,,,,z,1,0.817139838655,2018_Nov_14_1535,59.989129368,spanish_cond1,001,1027,
images/handfan01b.jpg,handfan,z,sounds/animalfarm_spanish.wav,,,,,,,,,0,1,1,1,0,93,93,69,801.221116324,9.30104579311e-06,803.059128672,1.8380222898,,,,,z,1,1.8173874389,2018_Nov_14_1535,59.989129368,spanish_cond1,001,1027,
images/shotglass.jpg,shot glass,z,sounds/animalfarm_spanish.wav,,,,,,,,,0,1,1,1,0,94,94,86,804.167440952,9.30104579311e-06,806.52672014,2.35928945143,,,,,z,1,2.35087585381,2018_Nov_14_1535,59.989129368,spanish_cond1,001,1027,
images/battery03b.jpg,battery,z,sounds/animalfarm_spanish.wav,,,,,,,,,0,1,1,1,0,95,95,34,807.634816251,9.62177182373e-06,808.643951482,1.00914517297,,,,,z,1,1.00050867098,2018_Nov_14_1535,59.989129368,spanish_cond1,001,1027,
images/ladybug03.jpg,giraffe,x,sounds/animalfarm_spanish.wav,,,,,,,,,0,1,1,1,0,96,96,178,809.746356636,9.30104397412e-06,810.761183144,1.01483645073,,,,,x,1,1.00052534872,2018_Nov_14_1535,59.989129368,spanish_cond1,001,1027,
images/grasshopper.jpg,cauliflower,x,sounds/animalfarm_spanish.wav,,,,,,,,,0,1,1,1,0,97,97,148,811.852869966,9.94249785435e-06,812.961811189,1.10895180743,,,,,x,1,1.10058760158,2018_Nov_14_1535,59.989129368,spanish_cond1,001,1027,
images/pen03c.jpg,pepper,x,sounds/animalfarm_spanish.wav,,,,,,,,,0,1,1,1,0,98,98,211,814.054546463,9.94249785435e-06,815.21238585,1.15784964956,,,,,x,1,1.13390939948,2018_Nov_14_1535,59.989129368,spanish_cond1,001,1027,
images/lamp04b.jpg,parking meter,x,sounds/animalfarm_spanish.wav,,,,,,,,,0,1,1,1,0,99,99,209,816.33218428,8.98031976249e-06,818.146476074,1.81430173683,,,,,x,1,1.80072830395,2018_Nov_14_1535,59.989129368,spanish_cond1,001,1027,
images/highlighter03b.jpg,coin,x,sounds/animalfarm_spanish.wav,,,,,,,,,0,1,1,1,0,100,100,156,819.246408754,8.98031976249e-06,820.597130659,1.35073152724,,,,,x,1,1.33394185692,2018_Nov_14_1535,59.989129368,spanish_cond1,001,1027,
images/dreamcatcher.jpg,dream catcher,z,sounds/animalfarm_spanish.wav,,,,,,,,,0,1,1,1,0,101,101,48,821.694401316,9.94249785435e-06,823.097796005,1.40340527318,,,,,z,1,1.3839567867,2018_Nov_14_1535,59.989129368,spanish_cond1,001,1027,
images/ant.jpg,ant,z,sounds/animalfarm_spanish.wav,,,,,,,,,0,1,1,1,0,102,102,98,824.191249705,9.30104579311e-06,825.348379004,1.15713924211,,,,,z,1,1.13387540255,2018_Nov_14_1535,59.989129368,spanish_cond1,001,1027,
images/printer03a.jpg,printer,z,sounds/animalfarm_spanish.wav,,,,,,,,,0,1,1,1,0,103,103,72,826.455205362,9.30104579311e-06,827.332252595,0.877057495536,,,,,z,1,0.8671605415,2018_Nov_14_1535,59.989129368,spanish_cond1,001,1027,
images/crocodile.jpg,triangle ruler,x,sounds/animalfarm_spanish.wav,,,,,,,,,0,1,1,1,0,104,104,235,828.427897813,9.30104579311e-06,829.382788704,0.954900833214,,,,,x,1,0.93382851245,2018_Nov_14_1535,59.989129368,spanish_cond1,001,1027,
images/feather03b.jpg,feather,z,sounds/animalfarm_spanish.wav,,,,,,,,,0,1,1,1,0,105,105,114,830.482232277,9.62177182373e-06,831.700091311,1.21786929722,,,,,z,1,1.20057608752,2018_Nov_14_1535,59.989129368,spanish_cond1,001,1027,
images/triangleruler02.jpg,bottle of red wine,x,sounds/animalfarm_spanish.wav,,,,,,,,,0,1,1,1,0,106,106,134,832.809391426,9.94249603536e-06,834.850908728,2.04152852743,,,,,x,1,2.01745261037,2018_Nov_14_1535,59.989129368,spanish_cond1,001,1027,
images/boxingglove02a.jpg,bracelet,x,sounds/animalfarm_spanish.wav,,,,,,,,,0,1,1,1,0,107,107,135,835.96106454,9.30104579311e-06,837.034818304,1.07376338589,,,,,x,1,1.05052520439,2018_Nov_14_1535,59.989129368,spanish_cond1,001,1027,
images/bicycle.jpg,hand bag,x,sounds/animalfarm_spanish.wav,,,,,,,,,0,1,1,1,0,108,108,186,838.143537906,9.62177000474e-06,839.052030691,0.908503368742,,,,,x,1,0.90047624561,2018_Nov_14_1535,59.989129368,spanish_cond1,001,1027,
images/broom02.jpg,broom,z,sounds/animalfarm_spanish.wav,,,,,,,,,0,1,1,1,0,109,109,116,840.143961905,9.62177182373e-06,842.80303785,2.65908620754,,,,,z,1,2.65097345065,2018_Nov_14_1535,59.989129368,spanish_cond1,001,1027,
images/remotecontrol01c.jpg,remote control,z,sounds/animalfarm_spanish.wav,,,,,,,,,0,1,1,1,0,110,110,85,843.911008237,9.30104579311e-06,845.787153909,1.87615593556,,,,,z,1,1.86742161223,2018_Nov_14_1535,59.989129368,spanish_cond1,001,1027,
images/electrictoothbrush01a.jpg,banjo,x,sounds/animalfarm_spanish.wav,,,,,,,,,0,1,1,1,0,111,111,127,846.879998871,9.62177182373e-06,848.104433424,1.22444449505,,,,,x,1,1.20056903156,2018_Nov_14_1535,59.989129368,spanish_cond1,001,1027,
images/radio03a.jpg,radio,z,sounds/animalfarm_spanish.wav,,,,,,,,,0,1,1,1,0,112,112,37,849.217208602,9.62177182373e-06,850.571760935,1.35456259588,,,,,z,1,1.33395212014,2018_Nov_14_1535,59.989129368,spanish_cond1,001,1027,
images/microphone01.jpg,diaper,x,sounds/animalfarm_spanish.wav,,,,,,,,,0,1,1,1,0,113,113,164,851.669242949,9.30104579311e-06,853.389169862,1.71993685552,,,,,x,1,1.70070325527,2018_Nov_14_1535,59.989129368,spanish_cond1,001,1027,
images/dryingmachine01.jpg,drying machine,z,sounds/animalfarm_spanish.wav,,,,,,,,,0,1,1,1,0,114,114,18,854.508899016,9.62177182373e-06,855.623095972,1.11420753969,,,,,z,1,1.10053243675,2018_Nov_14_1535,59.989129368,spanish_cond1,001,1027,
images/eyedrops.jpg,bicycle,x,sounds/animalfarm_spanish.wav,,,,,,,,,0,1,1,1,0,115,115,131,856.722297717,9.30104579311e-06,858.057071537,1.33478568627,,,,,z,0,1.31725834681,2018_Nov_14_1535,59.989129368,spanish_cond1,001,1027,
images/bullet (2).jpg,rubber glove,x,sounds/animalfarm_spanish.wav,,,,,,,,,0,1,1,1,0,116,116,217,859.160047583,9.62177182373e-06,861.874753402,2.71471576165,,,,,x,1,2.70096721253,2018_Nov_14_1535,59.989129368,spanish_cond1,001,1027,
images/snowman.jpg,globe,x,sounds/animalfarm_spanish.wav,,,,,,,,,0,1,1,1,0,117,117,180,862.983915926,9.62177000474e-06,864.225377486,1.24147182312,,,,,x,1,1.21724195772,2018_Nov_14_1535,59.989129368,spanish_cond1,001,1027,
images/comb02a.jpg,diploma,x,sounds/animalfarm_spanish.wav,,,,,,,,,0,1,1,1,0,118,118,166,865.327687385,9.94249785435e-06,868.12641404,2.79873755945,,,,,x,1,2.78432286303,2018_Nov_14_1535,59.989129368,spanish_cond1,001,1027,
images/doorhandle.jpg,doll,x,sounds/animalfarm_spanish.wav,,,,,,,,,0,1,1,1,0,119,119,168,869.227669392,9.30104579311e-06,870.343674279,1.11601482907,,,,,x,1,1.10054526578,2018_Nov_14_1535,59.989129368,spanish_cond1,001,1027,
images/tent.jpg,tent,z,sounds/animalfarm_spanish.wav,,,,,,,,,0,1,1,1,0,120,120,11,871.468277501,9.62177182373e-06,872.410889408,0.942622170038,,,,,z,1,0.933843586561,2018_Nov_14_1535,59.989129368,spanish_cond1,001,1027,
images/cupcake.jpg,scissors,x,sounds/animalfarm_spanish.wav,,,,,,,,,0,1,1,1,0,121,121,219,873.528115938,9.30104579311e-06,875.394839972,1.86673493848,,,,,x,1,1.85056298588,2018_Nov_14_1535,59.989129368,spanish_cond1,001,1027,
images/parkingmeter.jpg,ear,x,sounds/animalfarm_spanish.wav,,,,,,,,,0,1,1,1,0,122,122,171,876.494951296,9.62177000474e-06,877.929184725,1.43424401261,,,,,z,0,1.41746107753,2018_Nov_14_1535,59.989129368,spanish_cond1,001,1027,
images/safe.jpg,safe,z,sounds/animalfarm_spanish.wav,,,,,,,,,0,1,1,1,0,123,123,78,879.038319346,9.62177000474e-06,879.846202078,0.807893637089,,,,,z,1,0.783800400844,2018_Nov_14_1535,59.989129368,spanish_cond1,001,1027,
images/donut.jpg,rhinoceros,x,sounds/animalfarm_spanish.wav,,,,,,,,,0,1,1,1,0,124,124,216,880.970446088,1.0263223885e-05,883.847256625,2.87682144141,,,,,x,1,2.86767915498,2018_Nov_14_1535,59.989129368,spanish_cond1,001,1027,
images/plant01.jpg,plant,z,sounds/animalfarm_spanish.wav,,,,,,,,,0,1,1,1,0,125,125,47,884.95767928,9.94249785435e-06,885.797790456,0.840121439584,,,,,z,1,0.817150743329,2018_Nov_14_1535,59.989129368,spanish_cond1,001,1027,
images/bat.jpg,hand,x,sounds/animalfarm_spanish.wav,,,,,,,,,0,1,1,1,0,126,126,185,886.894581628,9.62177000474e-06,888.165063092,1.27049108559,,,,,x,1,1.2505759432,2018_Nov_14_1535,59.989129368,spanish_cond1,001,1027,
images/lipstick04.jpg,lipstick,z,sounds/animalfarm_spanish.wav,,,,,,,,,0,1,1,1,0,127,127,56,889.262822534,9.30104579311e-06,890.182265215,0.919452303115,,,,,z,1,0.900489395366,2018_Nov_14_1535,59.989129368,spanish_cond1,001,1027,
images/bowlingball.jpg,bowling ball,z,sounds/animalfarm_spanish.wav,,,,,,,,,0,1,1,1,0,128,128,20,891.312877554,9.62177182373e-06,893.033028975,1.72016168425,,,,,z,1,1.70070421745,2018_Nov_14_1535,59.989129368,spanish_cond1,001,1027,
images/toothbrush03a.jpg,parrot,x,sounds/animalfarm_spanish.wav,,,,,,,,,0,1,1,1,0,129,129,210,894.123898267,9.62177000474e-06,895.066894083,0.943006078714,,,,,x,1,0.933827871,2018_Nov_14_1535,59.989129368,spanish_cond1,001,1027,
images/camera01a.jpg,bull,x,sounds/animalfarm_spanish.wav,,,,,,,,,0,1,1,1,0,130,130,138,896.175853908,9.62177182373e-06,897.984340246,1.8084962807,,,,,x,1,1.78405537778,2018_Nov_14_1535,59.989129368,spanish_cond1,001,1027,
images/fork01.jpg,cooking pot,x,sounds/animalfarm_spanish.wav,,,,,,,,,0,1,1,1,0,131,131,160,899.077912935,3.97699877794e-05,900.501687819,1.42379220309,,,,,x,1,1.40061912892,2018_Nov_14_1535,59.989129368,spanish_cond1,001,1027,
images/candycane01a.jpg,lip,x,sounds/animalfarm_spanish.wav,,,,,,,,,0,1,1,1,0,132,132,200,901.59439102,9.94249785435e-06,903.185548805,1.59116836849,,,,,x,1,1.56714312609,2018_Nov_14_1535,59.989129368,spanish_cond1,001,1027,
images/birthdaycandle.jpg,birthday candle,z,sounds/animalfarm_spanish.wav,,,,,,,,,0,1,1,1,0,133,133,55,904.279874558,9.30104579311e-06,906.353243772,2.07337947721,,,,,z,1,2.05080295286,2018_Nov_14_1535,59.989129368,spanish_cond1,001,1027,
images/pingpongpaddle01c (1).jpg,ping pong paddle,z,sounds/animalfarm_spanish.wav,,,,,,,,,0,1,1,1,0,134,134,10,907.462746907,9.62177182373e-06,909.970861748,2.50812574629,,,,,z,1,2.48424707554,2018_Nov_14_1535,59.989129368,spanish_cond1,001,1027,
images/volleyball.jpg,volley ball,z,sounds/animalfarm_spanish.wav,,,,,,,,,0,1,1,1,0,135,135,2,911.101495576,9.62177182373e-06,912.905002006,1.80351669329,,,,,z,1,1.78408392237,2018_Nov_14_1535,59.989129368,spanish_cond1,001,1027,
images/hammer02a.jpg,flower,x,sounds/animalfarm_spanish.wav,,,,,,,,,0,1,1,1,0,136,136,176,913.99870074,9.30104579311e-06,914.855488371,0.85679789373,,,,,x,1,0.833809878288,2018_Nov_14_1535,59.989129368,spanish_cond1,001,1027,
images/lighter02b.jpg,stapler,x,sounds/animalfarm_spanish.wav,,,,,,,,,0,1,1,1,0,137,137,227,915.955519513,9.62177182373e-06,917.089414801,1.13390587149,,,,,x,1,1.11720857018,2018_Nov_14_1535,59.989129368,spanish_cond1,001,1027,
images/ceilingfan02.jpg,paper clip,x,sounds/animalfarm_spanish.wav,,,,,,,,,0,1,1,1,0,138,138,208,918.185725525,9.62177182373e-06,919.373351991,1.18763640865,,,,,x,1,1.16721291601,2018_Nov_14_1535,59.989129368,spanish_cond1,001,1027,
images/electricguitar02.jpg,electric guitar,z,sounds/animalfarm_spanish.wav,,,,,,,,,0,1,1,1,0,139,139,100,920.47331546,9.62177182373e-06,921.207200677,0.733895800706,,,,,z,1,0.717131146988,2018_Nov_14_1535,59.989129368,spanish_cond1,001,1027,
images/tulip02.jpg,sport shorts,x,sounds/animalfarm_spanish.wav,,,,,,,,,0,1,1,1,0,140,140,225,922.300579327,9.62177182373e-06,923.841214794,1.54064572991,,,,,x,1,1.51732255609,2018_Nov_14_1535,59.989129368,spanish_cond1,001,1027,
images/cocktailshrimp01.jpg,cocktail shrimp,z,sounds/animalfarm_spanish.wav,,,,,,,,,0,1,1,1,0,141,141,30,924.953921337,9.30104579311e-06,925.741711245,0.787800171203,,,,,z,1,0.767120097989,2018_Nov_14_1535,59.989129368,spanish_cond1,001,1027,
images/gorilla.jpg,gorilla,z,sounds/animalfarm_spanish.wav,,,,,,,,,0,1,1,1,0,142,142,80,926.854871294,1.0263222066e-05,927.942307217,1.08744682769,,,,,z,1,1.06721512902,2018_Nov_14_1535,59.989129368,spanish_cond1,001,1027,
images/orange.jpg,bat,x,sounds/animalfarm_spanish.wav,,,,,,,,,0,1,1,1,0,143,143,128,929.064996669,9.62177000474e-06,930.492987172,1.42800108662,,,,,x,1,1.41730167685,2018_Nov_14_1535,59.989129368,spanish_cond1,001,1027,
images/antelope.jpg,antelope,z,sounds/animalfarm_spanish.wav,,,,,,,,,0,1,1,1,0,144,144,12,931.597001407,9.30104579311e-06,932.743572416,1.1465815931,,,,,z,1,1.1338859865,2018_Nov_14_1535,59.989129368,spanish_cond1,001,1027,
images/wallet01.jpg,lamp,x,sounds/animalfarm_spanish.wav,,,,,,,,,0,1,1,1,0,145,145,193,933.847017363,9.30104579311e-06,935.927753326,2.08074590538,,,,,x,1,2.06746657798,2018_Nov_14_1535,59.989129368,spanish_cond1,001,1027,
images/floorlamp.jpg,floor lamp,z,sounds/animalfarm_spanish.wav,,,,,,,,,0,1,1,1,0,146,146,26,937.018517099,9.30104579311e-06,938.628464599,1.6099574429,,,,,z,1,1.60067403716,2018_Nov_14_1535,59.989129368,spanish_cond1,001,1027,
images/chameleon.jpg,50 dollar bill,x,sounds/animalfarm_spanish.wav,,,,,,,,,0,1,1,1,0,147,147,120,939.736951034,9.94249785435e-06,940.645676666,0.90873621561,,,,,x,1,0.90050094149,2018_Nov_14_1535,59.989129368,spanish_cond1,001,1027,
images/flashlight05.jpg,flash light,z,sounds/animalfarm_spanish.wav,,,,,,,,,0,1,1,1,0,148,148,8,941.746379087,9.30104579311e-06,943.779832382,2.03346323794,,,,,z,1,2.01744587513,2018_Nov_14_1535,59.989129368,spanish_cond1,001,1027,
images/screwdriver02b.jpg,cola,x,sounds/animalfarm_spanish.wav,,,,,,,,,0,1,1,1,0,149,149,158,944.871685019,9.94249603536e-06,945.830372661,0.958697584198,,,,,x,1,0.95049213757,2018_Nov_14_1535,59.989129368,spanish_cond1,001,1027,
images/plate01b.jpg,plate,z,sounds/animalfarm_spanish.wav,,,,,,,,,0,1,1,1,0,150,150,3,946.927684691,8.98031976249e-06,948.06430326,1.13662819134,,,,,z,1,1.11720696655,2018_Nov_14_1535,59.989129368,spanish_cond1,001,1027,
images/hat05.jpg,hat,z,sounds/animalfarm_spanish.wav,,,,,,,,,0,1,1,1,0,151,151,15,949.166617328,9.30104579311e-06,951.231840751,2.06523336484,,,,,z,1,2.05082123422,2018_Nov_14_1535,59.989129368,spanish_cond1,001,1027,
images/barrel01.jpg,barrel,z,sounds/animalfarm_spanish.wav,,,,,,,,,0,1,1,1,0,152,152,9,952.36005342,9.62177182373e-06,953.515768961,1.15572580389,,,,,z,1,1.13390170206,2018_Nov_14_1535,59.989129368,spanish_cond1,001,1027,
images/mattress.jpg,cat,x,sounds/animalfarm_spanish.wav,,,,,,,,,0,1,1,1,0,153,153,147,954.618833206,9.94249785435e-06,955.56628294,0.947459996683,,,,,x,1,0.93382498447,2018_Nov_14_1535,59.989129368,spanish_cond1,001,1027,
images/umbrella01.jpg,umbrella,z,sounds/animalfarm_spanish.wav,,,,,,,,,0,1,1,1,0,154,154,53,956.67840897,9.62177182373e-06,957.950274044,1.27187533776,,,,,z,1,1.25058684787,2018_Nov_14_1535,59.989129368,spanish_cond1,001,1027,
images/lip.jpg,boxing glove,x,sounds/animalfarm_spanish.wav,,,,,,,,,0,1,1,1,0,155,155,136,959.051399503,9.30104579311e-06,960.267554842,1.21616560223,,,,,x,1,1.20057320099,2018_Nov_14_1535,59.989129368,spanish_cond1,001,1027,
images/axe01.jpg,axe,z,sounds/animalfarm_spanish.wav,,,,,,,,,0,1,1,1,0,156,156,104,961.369742223,9.30104579311e-06,962.134732382,0.765000101028,,,,,z,1,0.750472509157,2018_Nov_14_1535,59.989129368,spanish_cond1,001,1027,
images/cookingpot.jpg,grasshopper,x,sounds/animalfarm_spanish.wav,,,,,,,,,0,1,1,1,0,157,157,183,963.247390175,9.94249603536e-06,965.535613223,2.28823331128,,,,,x,1,2.26751827896,2018_Nov_14_1535,59.989129368,spanish_cond1,001,1027,
images/lion.jpg,lion,z,sounds/animalfarm_spanish.wav,,,,,,,,,0,1,1,1,0,158,158,44,966.646369754,9.62177182373e-06,967.486145451,0.839786281214,,,,,z,1,0.817152667683,2018_Nov_14_1535,59.989129368,spanish_cond1,001,1027,
images/cheetah.jpg,cheetah,z,sounds/animalfarm_spanish.wav,,,,,,,,,0,1,1,1,0,159,159,82,968.587435442,9.30104579311e-06,970.336889005,1.74946350606,,,,,z,1,1.73404205163,2018_Nov_14_1535,59.989129368,spanish_cond1,001,1027,
images/pouch01b.jpg,pouch,z,sounds/animalfarm_spanish.wav,,,,,,,,,0,1,1,1,0,160,160,25,971.447429688,9.62177182373e-06,972.754293635,1.30690403791,,,,,z,1,1.2839439256,2018_Nov_14_1535,59.989129368,spanish_cond1,001,1027,
images/skateboard.jpg,key,x,sounds/animalfarm_spanish.wav,,,,,,,,,0,1,1,1,0,161,161,189,973.844139491,9.30104579311e-06,975.671648072,1.82751884344,,,,,x,1,1.8173948156,2018_Nov_14_1535,59.989129368,spanish_cond1,001,1027,
images/8ball.jpg,nail clipper,x,sounds/animalfarm_spanish.wav,,,,,,,,,0,1,1,1,0,162,162,206,976.787609981,9.62177000474e-06,978.889205944,2.10160654716,,,,,x,1,2.08417734977,2018_Nov_14_1535,59.989129368,spanish_cond1,001,1027,
images/globe.jpg,cloud,x,sounds/animalfarm_spanish.wav,,,,,,,,,0,1,1,1,0,163,163,154,980.015002907,9.94249785435e-06,981.889977931,1.87498528671,,,,,x,1,1.85076247727,2018_Nov_14_1535,59.989129368,spanish_cond1,001,1027,
images/treadmill.jpg,lily,x,sounds/animalfarm_spanish.wav,,,,,,,,,0,1,1,1,0,164,164,199,982.994543493,9.62177182373e-06,985.557586141,2.56305259036,,,,,x,1,2.55091408432,2018_Nov_14_1535,59.989129368,spanish_cond1,001,1027,
images/envelope02a.jpg,grand piano,x,sounds/animalfarm_spanish.wav,,,,,,,,,0,1,1,1,0,165,165,182,986.678844836,9.94249785435e-06,988.491713891,1.81287899757,,,,,x,1,1.80073086975,2018_Nov_14_1535,59.989129368,spanish_cond1,001,1027,
images/butterfly.jpg,butterfly,z,sounds/animalfarm_spanish.wav,,,,,,,,,0,1,1,1,0,166,166,91,989.597306417,9.30104579311e-06,990.425551704,0.828255229673,,,,,z,1,0.817121557291,2018_Nov_14_1535,59.989129368,spanish_cond1,001,1027,
images/thumbtack02a.jpg,thumb tack,z,sounds/animalfarm_spanish.wav,,,,,,,,,0,1,1,1,0,167,167,60,991.534263609,9.62177000474e-06,992.509443608,0.975190903961,,,,,z,1,0.96717500623,2018_Nov_14_1535,59.989129368,spanish_cond1,001,1027,
images/parrot01.jpg,chameleon,x,sounds/animalfarm_spanish.wav,,,,,,,,,0,1,1,1,0,168,168,150,993.621172259,1.0263222066e-05,995.176812237,1.55565088236,,,,,x,1,1.53397303146,2018_Nov_14_1535,59.989129368,spanish_cond1,001,1027,
images/honeycomb.jpg,honey comb,z,sounds/animalfarm_spanish.wav,,,,,,,,,0,1,1,1,0,169,169,59,996.287852931,9.30104579311e-06,997.160683582,0.872840593869,,,,,z,1,0.850479597195,2018_Nov_14_1535,59.989129368,spanish_cond1,001,1027,
images/showerhead01.jpg,skateboard,x,sounds/animalfarm_spanish.wav,,,,,,,,,0,1,1,1,0,170,170,223,998.267041039,9.62177000474e-06,999.261065919,0.994035143198,,,,,x,1,0.983674419784,2018_Nov_14_1535,59.989129368,spanish_cond1,001,1027,
images/grandpiano.jpg,tulip,x,sounds/animalfarm_spanish.wav,,,,,,,,,0,1,1,1,0,171,171,236,1000.37395528,9.62177182373e-06,1001.86192405,1.48797903993,,,,,x,1,1.46729479728,2018_Nov_14_1535,59.989129368,spanish_cond1,001,1027,
images/puzzle.jpg,puzzle,z,sounds/animalfarm_spanish.wav,,,,,,,,,0,1,1,1,0,172,172,57,1002.98040751,8.98031976249e-06,1004.41287823,1.43248066264,,,,,z,1,1.41756210613,2018_Nov_14_1535,59.989129368,spanish_cond1,001,1027,
images/arrow02.jpg,hammer,x,sounds/animalfarm_spanish.wav,,,,,,,,,0,1,1,1,0,173,173,184,1005.50940833,9.94249785435e-06,1007.74682907,2.23743196205,,,,,x,1,2.21750655644,2018_Nov_14_1535,59.989129368,spanish_cond1,001,1027,
images/clothespin02a.jpg,clothes pin,z,sounds/animalfarm_spanish.wav,,,,,,,,,0,1,1,1,0,174,174,79,1008.850147,9.30104579311e-06,1010.2308125,1.38067544193,,,,,z,1,1.36727391804,2018_Nov_14_1535,59.989129368,spanish_cond1,001,1027,
images/cigar.jpg,crocodile,x,sounds/animalfarm_spanish.wav,,,,,,,,,0,1,1,1,0,175,175,162,1011.3272698,9.62177182373e-06,1012.83149905,1.50423951283,,,,,x,1,1.48396708199,2018_Nov_14_1535,59.989129368,spanish_cond1,001,1027,
images/bull.jpg,button,x,sounds/animalfarm_spanish.wav,,,,,,,,,0,1,1,1,0,176,176,141,1013.93601137,9.30104579311e-06,1016.88276994,2.94676819132,,,,,x,1,2.93454565515,2018_Nov_14_1535,59.989129368,spanish_cond1,001,1027,
images/parkbench03.jpg,park bench,z,sounds/animalfarm_spanish.wav,,,,,,,,,0,1,1,1,0,177,177,71,1017.98664017,9.62177182373e-06,1019.51661696,1.5299870523,,,,,z,1,1.51731902811,2018_Nov_14_1535,59.989129368,spanish_cond1,001,1027,
images/basketball01.jpg,basket ball,z,sounds/animalfarm_spanish.wav,,,,,,,,,0,1,1,1,0,178,178,33,1020.6540986,9.30104579311e-06,1021.50049568,0.846407342822,,,,,z,1,0.833825914573,2018_Nov_14_1535,59.989129368,spanish_cond1,001,1027,
images/banana04a.jpg,banana,z,sounds/animalfarm_spanish.wav,,,,,,,,,0,1,1,1,0,179,179,118,1022.60607185,9.94249785435e-06,1023.36764243,0.761580844208,,,,,z,1,0.750453265613,2018_Nov_14_1535,59.989129368,spanish_cond1,001,1027,
images/apricot.jpg,apricot,z,sounds/animalfarm_spanish.wav,,,,,,,,,0,1,1,1,0,180,180,32,1024.48321915,1.47533828567e-05,1026.46845647,1.98525142811,,,,,z,1,1.9674315868,2018_Nov_14_1535,59.989129368,spanish_cond1,001,1027,
images/beermug01b.jpg,beer mug,z,sounds/animalfarm_spanish.wav,,,,,,,,,0,1,1,1,0,181,181,111,1027.58421888,9.62177182373e-06,1028.73573003,1.1515210898,,,,,z,1,1.1338298595,2018_Nov_14_1535,59.989129368,spanish_cond1,001,1027,
images/handbag02a.jpg,candle,x,sounds/animalfarm_spanish.wav,,,,,,,,,0,1,1,1,0,182,182,144,1029.85018164,9.94249785435e-06,1031.803212,1.95304094481,,,,,x,1,1.93409824278,2018_Nov_14_1535,59.989129368,spanish_cond1,001,1027,
images/spoon02b.jpg,spoon,z,sounds/animalfarm_spanish.wav,,,,,,,,,0,1,1,1,0,183,183,38,1032.89338308,8.98031976249e-06,1034.5872847,1.69391156758,,,,,z,1,1.6840277633,2018_Nov_14_1535,59.989129368,spanish_cond1,001,1027,
images/radish01.jpg,raisin,x,sounds/animalfarm_spanish.wav,,,,,,,,,0,1,1,1,0,184,184,214,1035.69637923,9.62177182373e-06,1037.1046188,1.40825015579,,,,,x,1,1.38395325872,2018_Nov_14_1535,59.989129368,spanish_cond1,001,1027,
images/stapler03a.jpg,candy cane,x,sounds/animalfarm_spanish.wav,,,,,,,,,0,1,1,1,0,185,185,145,1038.21429673,9.30104579311e-06,1039.40523245,1.19094565656,,,,,x,1,1.1672302352,2018_Nov_14_1535,59.989129368,spanish_cond1,001,1027,
images/peach01.jpg,peach,z,sounds/animalfarm_spanish.wav,,,,,,,,,0,1,1,1,0,186,186,106,1040.53264074,9.62177000474e-06,1042.13930401,1.60667385306,,,,,z,1,1.58401394002,2018_Nov_14_1535,59.989129368,spanish_cond1,001,1027,
images/coin01b.jpg,arrow,x,sounds/animalfarm_spanish.wav,,,,,,,,,0,1,1,1,0,187,187,124,1043.24058566,9.94249603536e-06,1044.13982262,0.899247866131,,,,,x,1,0.88381422412,2018_Nov_14_1535,59.989129368,spanish_cond1,001,1027,
images/binder03b.jpg,dj mixer,x,sounds/animalfarm_spanish.wav,,,,,,,,,0,1,1,1,0,188,188,167,1045.25142555,9.62177182373e-06,1046.60714275,1.35572747166,,,,,x,1,1.33394089474,2018_Nov_14_1535,59.989129368,spanish_cond1,001,1027,
images/tank.jpg,wallet,x,sounds/animalfarm_spanish.wav,,,,,,,,,0,1,1,1,0,189,189,237,1047.70984554,9.62177182373e-06,1050.2581223,2.54828702001,,,,,x,1,2.53426681621,2018_Nov_14_1535,59.989129368,spanish_cond1,001,1027,
images/squirrel.jpg,binder,x,sounds/animalfarm_spanish.wav,,,,,,,,,0,1,1,1,0,190,190,132,1051.35966759,9.30104579311e-06,1052.49203911,1.13238146218,,,,,x,1,1.11721145671,2018_Nov_14_1535,59.989129368,spanish_cond1,001,1027,
images/banjo.jpg,knife,x,sounds/animalfarm_spanish.wav,,,,,,,,,0,1,1,1,0,191,191,191,1053.58718752,8.98031976249e-06,1055.90960185,2.32242459658,,,,,x,1,2.30084873645,2018_Nov_14_1535,59.989129368,spanish_cond1,001,1027,
,,,sounds/animalfarm_spanish.wav,,,,,,,,,0,1,1,1,,,,,,,,,,,,,,,,2018_Nov_14_1535,59.989129368,spanish_cond1,001,1027,
