images,name,corrAns,sounds,trials_3.thisRepN,trials_3.thisTrialN,trials_3.thisN,trials_3.thisIndex,trials_4.thisRepN,trials_4.thisTrialN,trials_4.thisN,trials_4.thisIndex,trials_2.thisRepN,trials_2.thisTrialN,trials_2.thisN,trials_2.thisIndex,trials.thisRepN,trials.thisTrialN,trials.thisN,trials.thisIndex,begin_global,begin_routine,end_global,end_routine,key_resp_2.keys,key_resp_2.corr,key_resp_2.rt,begin_book,key_resp_1.keys,key_resp_1.corr,key_resp_1.rt,date,frameRate,expName,session,participant,
images\volleyball.jpg,volley ball,z,,0,0,0,0,,,,,,,,,,,,,,,,,,,,,,,,2018_Nov_14_1534,59.9827049621,spanish_cond2,001,1028,
images\puma.jpg,puma,z,,,,,,0,0,0,0,,,,,,,,,48.1461048218,9.94245056063e-06,49.3251851635,1.17909092573,z,1,1.16705789987,,,,,2018_Nov_14_1534,59.9827049621,spanish_cond2,001,1028,
images\coffeepot03b.jpg,coffee pot,z,sounds\animalfarm_english.wav,,,,,,,,,0,0,0,1,0,0,0,107,91.524339792,9.30111855268e-06,93.3538722462,1.82954271743,,,,81.3224105565,z,1,1.81741571857,2018_Nov_14_1534,59.9827049621,spanish_cond2,001,1028,
images\arrow02.jpg,hammer,x,sounds\animalfarm_english.wav,,,,,,,,,0,0,0,1,0,1,1,184,94.457403159,9.62184276432e-06,95.3877685725,0.930375676835,,,,,x,1,0.917185468832,2018_Nov_14_1534,59.9827049621,spanish_cond2,001,1028,
images\apple06.jpg,apple,z,sounds\animalfarm_english.wav,,,,,,,,,0,0,0,1,0,2,2,13,96.5147022741,1.05840153992e-05,97.4049521491,0.890261100489,,,,,z,1,0.86707768857,2018_Nov_14_1534,59.9827049621,spanish_cond2,001,1028,
images\flower01.jpg,bus,x,sounds\animalfarm_english.wav,,,,,,,,,0,0,0,1,0,3,3,140,98.5207261639,9.62184276432e-06,99.4221745337,0.901458633132,,,,,x,1,0.883820907446,2018_Nov_14_1534,59.9827049621,spanish_cond2,001,1028,
images\nailclipper03a.jpg,aquarium,x,sounds\animalfarm_english.wav,,,,,,,,,0,0,0,1,0,4,4,123,100.522753798,9.94245056063e-06,101.57275189,1.05000867555,,,,,x,1,1.03387387539,2018_Nov_14_1534,59.9827049621,spanish_cond2,001,1028,
images\broom02.jpg,broom,z,sounds\animalfarm_english.wav,,,,,,,,,0,0,0,1,0,5,5,116,102.667912156,9.30100213736e-06,103.623300669,0.955398777151,,,,,z,1,0.933846260887,2018_Nov_14_1534,59.9827049621,spanish_cond2,001,1028,
images\corn01.jpg,corn,z,sounds\animalfarm_english.wav,,,,,,,,,0,0,0,1,0,6,6,22,104.724029713,9.30111855268e-06,105.807223023,1.08320357266,,,,,z,1,1.06720989221,2018_Nov_14_1534,59.9827049621,spanish_cond2,001,1028,
images\doll.jpg,carrot,x,sounds\animalfarm_english.wav,,,,,,,,,0,0,0,1,0,7,7,146,106.919325678,9.62184276432e-06,107.741062548,0.821747133275,,,,,x,1,0.800460499479,2018_Nov_14_1534,59.9827049621,spanish_cond2,001,1028,
images\eyedrops.jpg,bicycle,x,sounds\animalfarm_english.wav,,,,,,,,,0,0,0,1,0,8,8,131,108.842030534,9.94245056063e-06,109.824957929,0.982938299538,,,,,x,1,0.967159826891,2018_Nov_14_1534,59.9827049621,spanish_cond2,001,1028,
images\knife04.jpg,tooth brush,x,sounds\animalfarm_english.wav,,,,,,,,,0,0,0,1,0,9,9,233,110.922187844,9.62184276432e-06,112.158910799,1.23673289781,,,,,x,1,1.2172189207,2018_Nov_14_1534,59.9827049621,spanish_cond2,001,1028,
images\dragonfly02.jpg,dragon fly,z,sounds\animalfarm_english.wav,,,,,,,,,0,0,0,1,0,10,10,29,113.256524304,9.30111855268e-06,114.309501626,1.05298790638,,,,,z,1,1.03386778163,2018_Nov_14_1534,59.9827049621,spanish_cond2,001,1028,
images\leek.jpg,donut,x,sounds\animalfarm_english.wav,,,,,,,,,0,0,0,1,0,11,11,169,115.410675518,9.621726349e-06,116.476757414,1.06609248021,,,,,x,1,1.05054749653,2018_Nov_14_1534,59.9827049621,spanish_cond2,001,1028,
images\handbag02a.jpg,candle,x,sounds\animalfarm_english.wav,,,,,,,,,0,0,0,1,0,12,12,144,117.593005784,9.62184276432e-06,118.727382911,1.13438707031,,,,,x,1,1.11725128198,2018_Nov_14_1534,59.9827049621,spanish_cond2,001,1028,
images\hat05.jpg,hat,z,sounds\animalfarm_english.wav,,,,,,,,,0,0,0,1,0,13,13,15,119.830917032,9.94245056063e-06,120.777940671,0.947034223704,,,,,z,1,0.933877050644,2018_Nov_14_1534,59.9827049621,spanish_cond2,001,1028,
images\blueberry02.jpg,blueberry,z,sounds\animalfarm_english.wav,,,,,,,,,0,0,0,1,0,14,14,46,121.890933023,9.621726349e-06,122.96182133,1.07089857047,,,,,z,1,1.05053210177,2018_Nov_14_1534,59.9827049621,spanish_cond2,001,1028,
images\parkingmeter.jpg,ear,x,sounds\animalfarm_english.wav,,,,,,,,,0,0,0,1,0,15,15,171,124.063063216,9.30111855268e-06,125.629213588,1.56616063474,,,,,x,1,1.55067370262,2018_Nov_14_1534,59.9827049621,spanish_cond2,001,1028,
images\chessknight02b (1).jpg,cockroach,x,sounds\animalfarm_english.wav,,,,,,,,,0,0,0,1,0,16,16,155,126.73750633,9.94256697595e-06,127.546398736,0.808903310215,,,,,x,1,0.800474932184,2018_Nov_14_1534,59.9827049621,spanish_cond2,001,1028,
images\donut.jpg,rhinoceros,x,sounds\animalfarm_english.wav,,,,,,,,,0,0,0,1,0,17,17,216,128.672499831,9.94256697595e-06,129.730325259,1.05783601187,,,,,x,1,1.03386938537,2018_Nov_14_1534,59.9827049621,spanish_cond2,001,1028,
images\cupcake.jpg,scissors,x,sounds\animalfarm_english.wav,,,,,,,,,0,0,0,1,0,18,18,219,130.848682727,9.94256697595e-06,131.714176667,0.86550388264,,,,,x,1,0.850477834814,2018_Nov_14_1534,59.9827049621,spanish_cond2,001,1028,
images\tulip02.jpg,sport shorts,x,sounds\animalfarm_english.wav,,,,,,,,,0,0,0,1,0,19,19,225,132.809284334,9.94256697595e-06,133.964776827,1.15550275682,,,,,x,1,1.13388705743,2018_Nov_14_1534,59.9827049621,spanish_cond2,001,1028,
images\microphone01.jpg,diaper,x,sounds\animalfarm_english.wav,,,,,,,,,0,0,0,1,0,20,20,164,135.06401802,9.30100213736e-06,136.698848495,1.63484073826,,,,,x,1,1.61735247134,2018_Nov_14_1534,59.9827049621,spanish_cond2,001,1028,
images\bandaid01.jpg,door handle,x,sounds\animalfarm_english.wav,,,,,,,,,0,0,0,1,0,21,21,170,137.805916382,9.62184276432e-06,139.032824137,1.22691801807,,,,,x,1,1.21724297525,2018_Nov_14_1534,59.9827049621,spanish_cond2,001,1028,
images\mushroom01.jpg,shower head,x,sounds\animalfarm_english.wav,,,,,,,,,0,0,0,1,0,22,22,222,140.149948411,9.94256697595e-06,141.233244995,1.0833071674,,,,,x,1,1.0669982126,2018_Nov_14_1534,59.9827049621,spanish_cond2,001,1028,
images\broadsword.jpg,teapot,x,sounds\animalfarm_english.wav,,,,,,,,,0,0,0,1,0,23,23,231,142.326902335,9.62184276432e-06,143.150582809,0.823690737365,,,,,x,1,0.800468838424,2018_Nov_14_1534,59.9827049621,spanish_cond2,001,1028,
images\licenseplate.jpg,license plate,z,sounds\animalfarm_english.wav,,,,,,,,,0,0,0,1,0,24,24,40,144.268296899,9.62184276432e-06,145.151131572,0.88284525671,,,,,x,0,0.867154663079,2018_Nov_14_1534,59.9827049621,spanish_cond2,001,1028,
images\lighter02b.jpg,stapler,x,sounds\animalfarm_english.wav,,,,,,,,,0,0,0,1,0,25,25,227,146.253327941,9.94245056063e-06,148.585399749,2.33208207134,,,,,x,1,2.31756148883,2018_Nov_14_1534,59.9827049621,spanish_cond2,001,1028,
images\gamecontroller01.jpg,game controller,z,sounds\animalfarm_english.wav,,,,,,,,,0,0,0,1,0,26,26,112,149.706222965,9.30111855268e-06,150.769310235,1.06309785473,,,,,z,1,1.05054621375,2018_Nov_14_1534,59.9827049621,spanish_cond2,001,1028,
images\highheelshoe02a.jpg,high heel shoe,z,sounds\animalfarm_english.wav,,,,,,,,,0,0,0,1,0,27,27,75,151.876507055,9.94256697595e-06,152.886540029,1.01004387869,,,,,z,1,1.00048846682,2018_Nov_14_1534,59.9827049621,spanish_cond2,001,1028,
images\masquerademask02b.jpg,mirror,x,sounds\animalfarm_english.wav,,,,,,,,,0,0,0,1,0,28,28,204,153.991571301,9.94245056063e-06,154.937077904,0.945516544743,,,,,x,1,0.93383631832,2018_Nov_14_1534,59.9827049621,spanish_cond2,001,1028,
images\grasshopper.jpg,cauliflower,x,sounds\animalfarm_english.wav,,,,,,,,,0,0,0,1,0,29,29,148,156.032237528,9.621726349e-06,156.887670911,0.855444288231,,,,,x,1,0.833878622274,2018_Nov_14_1534,59.9827049621,spanish_cond2,001,1028,
images\triangleruler02.jpg,bottle of red wine,x,sounds\animalfarm_english.wav,,,,,,,,,0,0,0,1,0,30,30,134,157.997624377,9.621726349e-06,159.321603287,1.32398885279,,,,,x,1,1.3006030625,2018_Nov_14_1534,59.9827049621,spanish_cond2,001,1028,
images\tie01.jpg,bench,x,sounds\animalfarm_english.wav,,,,,,,,,0,0,0,1,0,31,31,130,160.420172878,9.62184276432e-06,161.122085917,0.701923302026,,,,,x,1,0.683771772077,2018_Nov_14_1534,59.9827049621,spanish_cond2,001,1028,
images\flipflop01b.jpg,flip flop,z,sounds\animalfarm_english.wav,,,,,,,,,0,0,0,1,0,32,32,27,162.239484412,9.62184276432e-06,163.155979998,0.916505528148,,,,,z,1,0.900504150311,2018_Nov_14_1534,59.9827049621,spanish_cond2,001,1028,
images\cocktailshrimp01.jpg,cocktail shrimp,z,sounds\animalfarm_english.wav,,,,,,,,,0,0,0,1,0,33,33,30,164.270984269,9.30111855268e-06,165.539945393,1.26897138765,,,,,z,1,1.25059887709,2018_Nov_14_1534,59.9827049621,spanish_cond2,001,1028,
images\lamp04b.jpg,parking meter,x,sounds\animalfarm_english.wav,,,,,,,,,0,0,0,1,0,34,34,209,166.661290431,9.62184276432e-06,167.440451788,0.779171299888,,,,,x,1,0.767134745955,2018_Nov_14_1534,59.9827049621,spanish_cond2,001,1028,
images\cloud.jpg,ceiling fan,x,sounds\animalfarm_english.wav,,,,,,,,,0,0,0,1,0,35,35,149,168.547018059,9.94256697595e-06,169.357634692,0.810627216473,,,,,x,1,0.800477818702,2018_Nov_14_1534,59.9827049621,spanish_cond2,001,1028,
images\flamingo.jpg,flamingo,z,sounds\animalfarm_english.wav,,,,,,,,,0,0,0,1,0,36,36,52,170.456640791,9.30100213736e-06,171.358160042,0.9015288722,,,,,z,1,0.883802625933,2018_Nov_14_1534,59.9827049621,spanish_cond2,001,1028,
images\saltshaker03c.jpg,salt shaker,z,sounds\animalfarm_english.wav,,,,,,,,,0,0,0,1,0,37,37,63,172.469471785,9.94256697595e-06,173.758810283,1.28934876109,,,,,z,1,1.26726159337,2018_Nov_14_1534,59.9827049621,spanish_cond2,001,1028,
images\sportshorts02.jpg,tape,x,sounds\animalfarm_english.wav,,,,,,,,,0,0,0,1,0,38,38,230,174.865482715,9.30111855268e-06,176.042743894,1.17727112223,,,,,x,1,1.1672150559,2018_Nov_14_1534,59.9827049621,spanish_cond2,001,1028,
images\hand01a.jpg,cupcake,x,sounds\animalfarm_english.wav,,,,,,,,,0,0,0,1,0,39,39,163,177.153254783,9.62184276432e-06,177.959956946,0.806712746504,,,,,x,1,0.783813177957,2018_Nov_14_1534,59.9827049621,spanish_cond2,001,1028,
images\seagull.jpg,seagull,z,sounds\animalfarm_english.wav,,,,,,,,,0,0,0,1,0,40,40,50,179.068025821,9.94256697595e-06,180.227219501,1.15920394345,,,,,z,1,1.15056805522,2018_Nov_14_1534,59.9827049621,spanish_cond2,001,1028,
images\lip.jpg,boxing glove,x,sounds\animalfarm_english.wav,,,,,,,,,0,0,0,1,0,41,41,136,181.330383823,1.02632911876e-05,182.11113791,0.78076434962,,,,,x,1,0.767204664298,2018_Nov_14_1534,59.9827049621,spanish_cond2,001,1028,
images\nailpolish02b.jpg,nail polish,z,sounds\animalfarm_english.wav,,,,,,,,,0,0,0,1,0,42,42,94,183.220476542,9.62184276432e-06,184.111591738,0.891125779715,,,,,z,1,0.867144720512,2018_Nov_14_1534,59.9827049621,spanish_cond2,001,1028,
images\fork01.jpg,cooking pot,x,sounds\animalfarm_english.wav,,,,,,,,,0,0,0,1,0,43,43,160,185.206440578,9.30111855268e-06,185.912116383,0.705685747438,,,,,x,1,0.683805448352,2018_Nov_14_1534,59.9827049621,spanish_cond2,001,1028,
images\tissuebox03.jpg,tissue box,z,sounds\animalfarm_english.wav,,,,,,,,,0,0,0,1,0,44,44,58,187.038428195,9.30111855268e-06,187.845924156,0.80750622449,,,,,z,1,0.783787519787,2018_Nov_14_1534,59.9827049621,spanish_cond2,001,1028,
images\honeycomb.jpg,honey comb,z,sounds\animalfarm_english.wav,,,,,,,,,0,0,0,1,0,45,45,59,188.959921986,9.62184276432e-06,189.746468398,0.786556674517,,,,,z,1,0.767150461557,2018_Nov_14_1534,59.9827049621,spanish_cond2,001,1028,
images\beermug01b.jpg,beer mug,z,sounds\animalfarm_english.wav,,,,,,,,,0,0,0,1,0,46,46,111,190.864325532,1.02632911876e-05,192.213799653,1.34948502516,,,,,x,0,1.33396794461,2018_Nov_14_1534,59.9827049621,spanish_cond2,001,1028,
images\hairdryer03a.jpg,hairdryer,z,sounds\animalfarm_english.wav,,,,,,,,,0,0,0,1,0,47,47,119,193.313198643,9.94245056063e-06,194.080940204,0.767752144951,,,,,z,1,0.750450540916,2018_Nov_14_1534,59.9827049621,spanish_cond2,001,1028,
images\camera01a.jpg,bull,x,sounds\animalfarm_english.wav,,,,,,,,,0,0,0,1,0,48,48,138,195.192384087,9.30111855268e-06,196.164846168,0.972471703077,,,,,x,1,0.95052020275,2018_Nov_14_1534,59.9827049621,spanish_cond2,001,1028,
images\plate01b.jpg,plate,z,sounds\animalfarm_english.wav,,,,,,,,,0,0,0,1,0,49,49,3,197.263540522,9.621726349e-06,198.56547877,1.3019504355,,,,,z,1,1.28393553523,2018_Nov_14_1534,59.9827049621,spanish_cond2,001,1028,
images\lemon02.jpg,lemon,z,sounds\animalfarm_english.wav,,,,,,,,,0,0,0,1,0,50,50,14,199.678427502,9.30111855268e-06,200.682722033,1.00430447364,,,,,z,1,0.983860068256,2018_Nov_14_1534,59.9827049621,spanish_cond2,001,1028,
images\radish01.jpg,raisin,x,sounds\animalfarm_english.wav,,,,,,,,,0,0,0,1,0,51,51,214,201.794728471,9.62184276432e-06,202.899982649,1.10526412004,,,,,x,1,1.08388030599,2018_Nov_14_1534,59.9827049621,spanish_cond2,001,1028,
images\kiwi03.jpg,backpack,x,sounds\animalfarm_english.wav,,,,,,,,,0,0,0,1,0,52,52,125,204.029013903,9.94256697595e-06,204.883871582,0.854867942398,,,,,x,1,0.833836607053,2018_Nov_14_1534,59.9827049621,spanish_cond2,001,1028,
images\aloe02.jpg,broad sword,x,sounds\animalfarm_english.wav,,,,,,,,,0,0,0,1,0,53,53,137,206.005096989,9.30111855268e-06,206.934404646,0.929317278555,,,,,x,1,0.917145377956,2018_Nov_14_1534,59.9827049621,spanish_cond2,001,1028,
images\eraser.jpg,eraser,z,sounds\animalfarm_english.wav,,,,,,,,,0,0,0,1,0,54,54,110,208.042478974,9.62184276432e-06,209.201669447,1.15920073621,,,,,z,1,1.15056709305,2018_Nov_14_1534,59.9827049621,spanish_cond2,001,1028,
images\pingpongpaddle01c (1).jpg,ping pong paddle,z,sounds\animalfarm_english.wav,,,,,,,,,0,0,0,1,0,55,55,10,210.312618128,9.62184276432e-06,211.852396101,1.53978823707,,,,,z,1,1.51733736508,2018_Nov_14_1534,59.9827049621,spanish_cond2,001,1028,
images\stapler03a.jpg,candy cane,x,sounds\animalfarm_english.wav,,,,,,,,,0,0,0,1,0,56,56,145,212.964328772,9.62184276432e-06,213.969630064,1.00531219703,,,,,x,1,0.983864237671,2018_Nov_14_1534,59.9827049621,spanish_cond2,001,1028,
images\computerkeyboard01a.jpg,computer keyboard,z,sounds\animalfarm_english.wav,,,,,,,,,0,0,0,1,0,57,57,61,215.087360833,9.62184276432e-06,216.320254311,1.23290342046,,,,,z,1,1.21718139574,2018_Nov_14_1534,59.9827049621,spanish_cond2,001,1028,
images\candle08a.jpg,screw driver,x,sounds\animalfarm_english.wav,,,,,,,,,0,0,0,1,0,58,58,221,217.433053905,9.94245056063e-06,218.42082684,0.987783839111,,,,,x,1,0.967188692186,2018_Nov_14_1534,59.9827049621,spanish_cond2,001,1028,
images\lion.jpg,lion,z,sounds\animalfarm_english.wav,,,,,,,,,0,0,0,1,0,59,59,44,219.53420246,9.62184276432e-06,220.371342232,0.837150355801,,,,,z,1,0.817144704517,2018_Nov_14_1534,59.9827049621,spanish_cond2,001,1028,
images\medal01.jpg,medal,z,sounds\animalfarm_english.wav,,,,,,,,,0,0,0,1,0,60,60,115,221.473775938,9.30111855268e-06,222.872036766,1.39827076974,,,,,x,0,1.38398527994,2018_Nov_14_1534,59.9827049621,spanish_cond2,001,1028,
images\gorilla.jpg,gorilla,z,sounds\animalfarm_english.wav,,,,,,,,,0,0,0,1,0,61,61,80,223.984080728,9.30111855268e-06,224.739174109,0.755103323725,,,,,z,1,0.73377948557,2018_Nov_14_1534,59.9827049621,spanish_cond2,001,1028,
images\battery03b.jpg,battery,z,sounds\animalfarm_english.wav,,,,,,,,,0,0,0,1,0,62,62,34,225.848990946,9.94256697595e-06,226.606355714,0.757375351968,,,,,z,1,0.733781089191,2018_Nov_14_1534,59.9827049621,spanish_cond2,001,1028,
images\ceilingfan02.jpg,paper clip,x,sounds\animalfarm_english.wav,,,,,,,,,0,0,0,1,0,63,63,208,227.706148877,9.94256697595e-06,229.173707527,1.46756923443,,,,,x,1,1.45064320136,2018_Nov_14_1534,59.9827049621,spanish_cond2,001,1028,
images\electricguitar02.jpg,electric guitar,z,sounds\animalfarm_english.wav,,,,,,,,,0,0,0,1,0,64,64,100,230.276445283,9.30111855268e-06,230.990867306,0.714431965724,,,,,z,1,0.700452449149,2018_Nov_14_1534,59.9827049621,spanish_cond2,001,1028,
images\antelope.jpg,antelope,z,sounds\animalfarm_english.wav,,,,,,,,,0,0,0,1,0,65,65,12,232.095276369,9.62184276432e-06,232.874696552,0.77943044703,,,,,x,0,0.767122558318,2018_Nov_14_1534,59.9827049621,spanish_cond2,001,1028,
images\banjo.jpg,knife,x,sounds\animalfarm_english.wav,,,,,,,,,0,0,0,1,0,66,66,191,233.972352072,9.62184276432e-06,235.091970959,1.11962947086,,,,,x,1,1.10054911627,2018_Nov_14_1534,59.9827049621,spanish_cond2,001,1028,
images\paperclip04.jpg,eye drops,x,sounds\animalfarm_english.wav,,,,,,,,,0,0,0,1,0,67,67,174,236.19832138,9.30111855268e-06,237.77602465,1.57771353272,,,,,x,1,1.56734507845,2018_Nov_14_1534,59.9827049621,spanish_cond2,001,1028,
images\parrot01.jpg,chameleon,x,sounds\animalfarm_english.wav,,,,,,,,,0,0,0,1,0,68,68,150,238.890647897,1.02632911876e-05,239.993268908,1.10263223643,,,,,x,1,1.08386619412,2018_Nov_14_1534,59.9827049621,spanish_cond2,001,1028,
images\mattress.jpg,cat,x,sounds\animalfarm_english.wav,,,,,,,,,0,0,0,1,0,69,69,147,241.096661908,9.62184276432e-06,241.893798716,0.797147071455,,,,,x,1,0.783805801184,2018_Nov_14_1534,59.9827049621,spanish_cond2,001,1028,
images\lipstick04.jpg,lipstick,z,sounds\animalfarm_english.wav,,,,,,,,,0,0,0,1,0,70,70,56,242.994115947,1.02632911876e-05,243.911011158,0.916906115948,,,,,z,1,0.900506395381,2018_Nov_14_1534,59.9827049621,spanish_cond2,001,1028,
images\puzzle.jpg,puzzle,z,sounds\animalfarm_english.wav,,,,,,,,,0,0,0,1,0,71,71,57,245.031621412,1.02632911876e-05,246.09492838,1.06331723172,,,,,z,1,1.05054717581,2018_Nov_14_1534,59.9827049621,spanish_cond2,001,1028,
images\thumbtack02a.jpg,thumb tack,z,sounds\animalfarm_english.wav,,,,,,,,,0,0,0,1,0,72,72,60,247.206480669,9.94256697595e-06,248.145464651,0.938994566561,,,,,z,1,0.91715275473,2018_Nov_14_1534,59.9827049621,spanish_cond2,001,1028,
images\hairband.jpg,hairband,z,sounds\animalfarm_english.wav,,,,,,,,,0,0,0,1,0,73,73,66,249.255518184,9.30111855268e-06,250.212523161,0.957015239983,,,,,z,1,0.933668578276,2018_Nov_14_1534,59.9827049621,spanish_cond2,001,1028,
images\doorhandle.jpg,doll,x,sounds\animalfarm_english.wav,,,,,,,,,0,0,0,1,0,74,74,168,251.316250358,9.621726349e-06,252.49663285,1.18039275554,,,,,x,1,1.16722563992,2018_Nov_14_1534,59.9827049621,spanish_cond2,001,1028,
images\cookingpot.jpg,grasshopper,x,sounds\animalfarm_english.wav,,,,,,,,,0,0,0,1,0,75,75,183,253.6108337,9.30100213736e-06,255.114016111,1.50319235353,,,,,x,1,1.48398595338,2018_Nov_14_1534,59.9827049621,spanish_cond2,001,1028,
images\glasses01b.jpg,calculator,x,sounds\animalfarm_english.wav,,,,,,,,,0,0,0,1,0,76,76,142,256.207272543,9.30100213736e-06,257.43132134,1.22405905987,,,,,x,1,1.20056678832,2018_Nov_14_1534,59.9827049621,spanish_cond2,001,1028,
images\magnifyingglass01b.jpg,magnifying glass,z,sounds\animalfarm_english.wav,,,,,,,,,0,0,0,1,0,77,77,64,258.538440223,9.94256697595e-06,260.398772066,1.86034242716,,,,,z,1,1.8507546219,2018_Nov_14_1534,59.9827049621,spanish_cond2,001,1028,
images\plant01.jpg,plant,z,sounds\animalfarm_english.wav,,,,,,,,,0,0,0,1,0,78,78,47,261.510351295,1.02632911876e-05,262.332641419,0.822300707689,,,,,z,1,0.800490327063,2018_Nov_14_1534,59.9827049621,spanish_cond2,001,1028,
images\ostrich.jpg,ostrich,z,sounds\animalfarm_english.wav,,,,,,,,,0,0,0,1,0,79,79,76,263.432420149,9.621726349e-06,264.333153299,0.900743091712,,,,,z,1,0.883821869618,2018_Nov_14_1534,59.9827049621,spanish_cond2,001,1028,
images\apricot.jpg,apricot,z,sounds\animalfarm_english.wav,,,,,,,,,0,0,0,1,0,80,80,32,265.449405838,9.62184276432e-06,266.450405864,1.0010102893,,,,,z,1,0.983857181738,2018_Nov_14_1534,59.9827049621,spanish_cond2,001,1028,
images\razor04a.jpg,razor,z,sounds\animalfarm_english.wav,,,,,,,,,0,0,0,1,0,81,81,36,267.551641014,1.02631747723e-05,268.717668099,1.16603734728,,,,,z,1,1.15056260279,2018_Nov_14_1534,59.9827049621,spanish_cond2,001,1028,
images\cactus.jpg,cactus,z,sounds\animalfarm_english.wav,,,,,,,,,0,0,0,1,0,82,82,70,269.831124221,9.94245056063e-06,270.968267938,1.1371543007,,,,,z,1,1.11720926675,2018_Nov_14_1534,59.9827049621,spanish_cond2,001,1028,
images\showerhead01.jpg,skateboard,x,sounds\animalfarm_english.wav,,,,,,,,,0,0,0,1,0,83,83,223,272.077722032,1.02632911876e-05,274.119121119,2.04140967096,,,,,x,1,2.01746838191,2018_Nov_14_1534,59.9827049621,spanish_cond2,001,1028,
images\bowl02b (1).jpg,bowl,z,sounds\animalfarm_english.wav,,,,,,,,,0,0,0,1,0,84,84,24,275.237478587,9.62184276432e-06,277.036565414,1.7990967693,,,,,z,1,1.78405981674,2018_Nov_14_1534,59.9827049621,spanish_cond2,001,1028,
images\elbow.jpg,elbow,z,sounds\animalfarm_english.wav,,,,,,,,,0,0,0,1,0,85,85,105,278.148756591,9.62184276432e-06,279.020468139,0.871721170493,,,,,z,1,0.850503492868,2018_Nov_14_1534,59.9827049621,spanish_cond2,001,1028,
images\hanger02a.jpg,hanger,z,sounds\animalfarm_english.wav,,,,,,,,,0,0,0,1,0,86,86,88,280.112813386,9.94256697595e-06,280.887606125,0.774803322391,,,,,z,1,0.750452144537,2018_Nov_14_1534,59.9827049621,spanish_cond2,001,1028,
images\handfan01b.jpg,handfan,z,sounds\animalfarm_english.wav,,,,,,,,,0,0,0,1,0,87,87,69,282.002613281,9.621726349e-06,282.871470041,0.868866702425,,,,,z,1,0.850475910353,2018_Nov_14_1534,59.9827049621,spanish_cond2,001,1028,
images\snowman.jpg,globe,x,sounds\animalfarm_english.wav,,,,,,,,,0,0,0,1,0,88,88,180,283.983546718,1.02632911876e-05,285.088741882,1.10520606849,,,,,x,1,1.08387934382,2018_Nov_14_1534,59.9827049621,spanish_cond2,001,1028,
images\remotecontrol01c.jpg,remote control,z,sounds\animalfarm_english.wav,,,,,,,,,0,0,0,1,0,89,89,85,286.199451621,9.30100213736e-06,287.089289363,0.889847683604,,,,,z,1,0.867168775061,2018_Nov_14_1534,59.9827049621,spanish_cond2,001,1028,
images\carrot02.jpg,corkscrew,x,sounds\animalfarm_english.wav,,,,,,,,,0,0,0,1,0,90,90,161,288.190980907,9.62184276432e-06,290.173431061,1.98246105819,,,,,x,1,1.96744174568,2018_Nov_14_1534,59.9827049621,spanish_cond2,001,1028,
images\lightbulb03b.jpg,treadmill,x,sounds\animalfarm_english.wav,,,,,,,,,0,0,0,1,0,91,91,234,291.276164006,9.30100213736e-06,292.273995893,0.997842150507,,,,,x,1,0.983845956274,2018_Nov_14_1534,59.9827049621,spanish_cond2,001,1028,
images\diaper01a.jpg,camera,x,sounds\animalfarm_english.wav,,,,,,,,,0,0,0,1,0,92,92,143,293.395073445,9.621726349e-06,295.074771667,1.67970880575,,,,,x,1,1.66738872952,2018_Nov_14_1534,59.9827049621,spanish_cond2,001,1028,
images\boxingglove02a.jpg,bracelet,x,sounds\animalfarm_english.wav,,,,,,,,,0,0,0,1,0,93,93,135,296.186144348,1.02632911876e-05,297.091966789,0.90583302523,,,,,x,1,0.883839188959,2018_Nov_14_1534,59.9827049621,spanish_cond2,001,1028,
images\ant.jpg,ant,z,sounds\animalfarm_english.wav,,,,,,,,,0,0,0,1,0,94,94,98,298.186794141,9.30111855268e-06,299.159500295,0.972716417629,,,,,z,1,0.950833232026,2018_Nov_14_1534,59.9827049621,spanish_cond2,001,1028,
images\pouch01b.jpg,pouch,z,sounds\animalfarm_english.wav,,,,,,,,,0,0,0,1,0,95,95,25,300.272862765,9.62184276432e-06,301.276428284,1.00357610313,,,,,z,1,0.983859747415,2018_Nov_14_1534,59.9827049621,spanish_cond2,001,1028,
images\notebook02b.jpg,notebook,z,sounds\animalfarm_english.wav,,,,,,,,,0,0,0,1,0,96,96,7,302.383441007,9.94245056063e-06,303.160254965,0.776824862929,,,,,z,1,0.767128652195,2018_Nov_14_1534,59.9827049621,spanish_cond2,001,1028,
images\daisy.jpg,daisy,z,sounds\animalfarm_english.wav,,,,,,,,,0,0,0,1,0,97,97,6,304.262852884,9.30111855268e-06,306.077705033,1.81486273382,,,,,z,1,1.80073792813,2018_Nov_14_1534,59.9827049621,spanish_cond2,001,1028,
images\straw.jpg,straw,z,sounds\animalfarm_english.wav,,,,,,,,,0,0,0,1,0,98,98,109,307.169949893,9.94256697595e-06,308.09493255,0.92499324074,,,,,z,1,0.900513772271,2018_Nov_14_1534,59.9827049621,spanish_cond2,001,1028,
images\drink.jpg,drink,z,sounds\animalfarm_english.wav,,,,,,,,,0,0,0,1,0,99,99,117,309.194489017,9.30100213736e-06,310.028945909,0.834466835018,,,,,z,1,0.817319500609,2018_Nov_14_1534,59.9827049621,spanish_cond2,001,1028,
images\axe01.jpg,axe,z,sounds\animalfarm_english.wav,,,,,,,,,0,0,0,1,0,100,100,104,311.132390546,9.621726349e-06,312.012651066,0.880270783091,,,,,z,1,0.8671732652,2018_Nov_14_1534,59.9827049621,spanish_cond2,001,1028,
images\bed.jpg,bed,z,sounds\animalfarm_english.wav,,,,,,,,,0,0,0,1,0,101,101,103,313.133694301,9.30111855268e-06,313.896475822,0.762791785179,,,,,z,1,0.750458238414,2018_Nov_14_1534,59.9827049621,spanish_cond2,001,1028,
images\raisin.jpg,ruler,x,sounds\animalfarm_english.wav,,,,,,,,,0,0,0,1,0,102,102,218,315.002275877,1.02631747723e-05,315.880342305,0.87807669153,,,,,x,1,0.867152738734,2018_Nov_14_1534,59.9827049621,spanish_cond2,001,1028,
images\desktopcomputer.jpg,desktop computer,z,sounds\animalfarm_english.wav,,,,,,,,,0,0,0,1,0,103,103,16,317.017387238,9.94256697595e-06,318.09760292,1.08022626641,,,,,z,1,1.06720668497,2018_Nov_14_1534,59.9827049621,spanish_cond2,001,1028,
images\tape01a.jpg,tie,x,sounds\animalfarm_english.wav,,,,,,,,,0,0,0,1,0,104,104,232,319.224405124,9.30111855268e-06,320.264879235,1.04048405366,,,,,x,1,1.01722430892,2018_Nov_14_1534,59.9827049621,spanish_cond2,001,1028,
images\tent.jpg,tent,z,sounds\animalfarm_english.wav,,,,,,,,,0,0,0,1,0,105,105,11,321.392584926,9.30111855268e-06,322.33207694,0.939502276946,,,,,z,1,0.917147302418,2018_Nov_14_1534,59.9827049621,spanish_cond2,001,1028,
images\8ball.jpg,nail clipper,x,sounds\animalfarm_english.wav,,,,,,,,,0,0,0,1,0,106,106,206,323.449034115,9.62184276432e-06,324.332617364,0.883592870785,,,,,x,1,0.867163964198,2018_Nov_14_1534,59.9827049621,spanish_cond2,001,1028,
images\parkbench03.jpg,park bench,z,sounds\animalfarm_english.wav,,,,,,,,,0,0,0,1,0,107,107,71,325.437881805,1.05838989839e-05,326.249794494,0.811923273141,,,,,z,1,0.800472687115,2018_Nov_14_1534,59.9827049621,spanish_cond2,001,1028,
images\key03b.jpg,cigar,x,sounds\animalfarm_english.wav,,,,,,,,,0,0,0,1,0,108,108,153,327.352131341,8.98039434105e-06,328.583768854,1.23164937901,,,,,x,1,1.21726382244,2018_Nov_14_1534,59.9827049621,spanish_cond2,001,1028,
images\lollipop03b.jpg,lollipop,z,sounds\animalfarm_english.wav,,,,,,,,,0,0,0,1,0,109,109,42,329.67839543,9.94245056063e-06,330.751013096,1.07262824976,,,,,z,1,1.05054749653,2018_Nov_14_1534,59.9827049621,spanish_cond2,001,1028,
images\bullet (2).jpg,rubber glove,x,sounds\animalfarm_english.wav,,,,,,,,,0,0,0,1,0,110,110,217,331.856765362,1.02632911876e-05,333.134979773,1.27822499559,,,,,x,1,1.26722952072,2018_Nov_14_1534,59.9827049621,spanish_cond2,001,1028,
images\toucan.jpg,toucan,z,sounds\animalfarm_english.wav,,,,,,,,,0,0,0,1,0,111,111,81,334.234651061,9.30111855268e-06,335.302238769,1.06759765092,,,,,z,1,1.05054268567,2018_Nov_14_1534,59.9827049621,spanish_cond2,001,1028,
images\button07.jpg,radish,x,sounds\animalfarm_english.wav,,,,,,,,,0,0,0,1,0,112,112,215,336.415563073,9.94245056063e-06,337.702878106,1.28732529609,,,,,x,1,1.26726415916,2018_Nov_14_1534,59.9827049621,spanish_cond2,001,1028,
images\globe.jpg,cloud,x,sounds\animalfarm_english.wav,,,,,,,,,0,0,0,1,0,113,113,154,338.831648609,9.62184276432e-06,340.487159545,1.65552184009,,,,,x,1,1.63423007459,2018_Nov_14_1534,59.9827049621,spanish_cond2,001,1028,
images\cockroach02.jpg,belt,x,sounds\animalfarm_english.wav,,,,,,,,,0,0,0,1,0,114,114,129,341.587348805,9.94245056063e-06,342.654198201,1.06685965857,,,,,x,1,1.05052825296,2018_Nov_14_1534,59.9827049621,spanish_cond2,001,1028,
images\lettuce.jpg,mushroom,x,sounds\animalfarm_english.wav,,,,,,,,,0,0,0,1,0,115,115,205,343.777422698,9.94245056063e-06,344.821459762,1.04404764844,,,,,x,1,1.0338488589,2018_Nov_14_1534,59.9827049621,spanish_cond2,001,1028,
images\atm.jpg,atm,z,sounds\animalfarm_english.wav,,,,,,,,,0,0,0,1,0,116,116,96,345.959720891,9.94245056063e-06,347.805589561,1.84587829257,,,,,x,0,1.83407298266,2018_Nov_14_1534,59.9827049621,spanish_cond2,001,1028,
images\gluestick.jpg,squirrel,x,sounds\animalfarm_english.wav,,,,,,,,,0,0,0,1,0,117,117,226,348.914453198,9.94256697595e-06,350.539650966,1.62520835211,,,,,x,1,1.60067917092,2018_Nov_14_1534,59.9827049621,spanish_cond2,001,1028,
images\cauliflower01.jpg,glue stick,x,sounds\animalfarm_english.wav,,,,,,,,,0,0,0,1,0,118,118,181,351.661284017,9.94245056063e-06,353.107021061,1.44574730773,,,,,x,1,1.4339310932,2018_Nov_14_1534,59.9827049621,spanish_cond2,001,1028,
images\watermelon01.jpg,orange,x,sounds\animalfarm_english.wav,,,,,,,,,0,0,0,1,0,119,119,207,354.237001667,9.94245056063e-06,355.107560524,0.870569761377,,,,,x,1,0.850487456541,2018_Nov_14_1534,59.9827049621,spanish_cond2,001,1028,
images\crocodile.jpg,triangle ruler,x,sounds\animalfarm_english.wav,,,,,,,,,0,0,0,1,0,120,120,235,356.206129152,9.94256697595e-06,357.441509225,1.23539065639,,,,,x,1,1.2172461825,2018_Nov_14_1534,59.9827049621,spanish_cond2,001,1028,
images\cherry01.jpg,highlighter,x,sounds\animalfarm_english.wav,,,,,,,,,0,0,0,1,0,121,121,187,358.549624605,9.94256697595e-06,359.425433759,0.875819416717,,,,,x,1,0.867201809888,2018_Nov_14_1534,59.9827049621,spanish_cond2,001,1028,
images\tank.jpg,wallet,x,sounds\animalfarm_english.wav,,,,,,,,,0,0,0,1,0,122,122,237,360.530247579,1.05840153992e-05,361.726081723,1.19584504922,,,,,x,1,1.18398168776,2018_Nov_14_1534,59.9827049621,spanish_cond2,001,1028,
images\bull.jpg,button,x,sounds\animalfarm_english.wav,,,,,,,,,0,0,0,1,0,123,123,141,362.832326626,9.62184276432e-06,363.626519162,0.794203441474,,,,,x,1,0.783809329267,2018_Nov_14_1534,59.9827049621,spanish_cond2,001,1028,
images\ladder.jpg,ladder,z,sounds\animalfarm_english.wav,,,,,,,,,0,0,0,1,0,124,124,113,364.719800931,9.94256697595e-06,365.927178031,1.20738768391,,,,,z,1,1.18395731261,2018_Nov_14_1534,59.9827049621,spanish_cond2,001,1028,
images\bowtie.jpg,bowtie,z,sounds\animalfarm_english.wav,,,,,,,,,0,0,0,1,0,125,125,89,367.037063182,9.62184276432e-06,367.977677419,0.940624179202,,,,,z,1,0.917168791173,2018_Nov_14_1534,59.9827049621,spanish_cond2,001,1028,
images\swan.jpg,swan,z,sounds\animalfarm_english.wav,,,,,,,,,0,0,0,1,0,126,126,54,369.070273795,1.02632911876e-05,370.144930641,1.07466775121,,,,,z,1,1.05053947843,2018_Nov_14_1534,59.9827049621,spanish_cond2,001,1028,
images\wallet01.jpg,lamp,x,sounds\animalfarm_english.wav,,,,,,,,,0,0,0,1,0,127,127,193,371.25092698,9.62184276432e-06,372.112130559,0.861213520984,,,,,x,1,0.850487777265,2018_Nov_14_1534,59.9827049621,spanish_cond2,001,1028,
images\sock03.jpg,sock,z,sounds\animalfarm_english.wav,,,,,,,,,0,0,0,1,0,128,128,90,373.218047358,9.94245056063e-06,374.162674848,0.944637753535,,,,,z,1,0.933838563506,2018_Nov_14_1534,59.9827049621,spanish_cond2,001,1028,
images\paintbrush03a.jpg,paint brush,z,sounds\animalfarm_english.wav,,,,,,,,,0,0,0,1,0,129,129,0,375.264043742,9.30100213736e-06,376.296589167,1.0325553678,,,,,z,1,1.0171967264,2018_Nov_14_1534,59.9827049621,spanish_cond2,001,1028,
images\highlighter03b.jpg,coin,x,sounds\animalfarm_english.wav,,,,,,,,,0,0,0,1,0,130,130,156,377.399548224,9.621726349e-06,378.847263511,1.447725871,,,,,x,1,1.43396476947,2018_Nov_14_1534,59.9827049621,spanish_cond2,001,1028,
images\blackolive.jpg,tank,x,sounds\animalfarm_english.wav,,,,,,,,,0,0,0,1,0,131,131,229,379.962687613,8.98027792573e-06,381.247912791,1.28523511998,,,,,x,1,1.26726095204,2018_Nov_14_1534,59.9827049621,spanish_cond2,001,1028,
images\comb02a.jpg,diploma,x,sounds\animalfarm_english.wav,,,,,,,,,0,0,0,1,0,132,132,166,382.351320224,9.94256697595e-06,383.231766123,0.880456484039,,,,,x,1,0.867134457338,2018_Nov_14_1534,59.9827049621,spanish_cond2,001,1028,
images\cheetah.jpg,cheetah,z,sounds\animalfarm_english.wav,,,,,,,,,0,0,0,1,0,133,133,82,384.334745386,9.621726349e-06,385.46572249,1.13098768762,,,,,z,1,1.11722979334,2018_Nov_14_1534,59.9827049621,spanish_cond2,001,1028,
images\lychee02a.jpg,lychee,z,sounds\animalfarm_english.wav,,,,,,,,,0,0,0,1,0,134,134,62,386.590492569,9.621726349e-06,388.433189252,1.84270630509,,,,,z,1,1.83408773609,2018_Nov_14_1534,59.9827049621,spanish_cond2,001,1028,
images\weight01.jpg,weight,z,sounds\animalfarm_english.wav,,,,,,,,,0,0,0,1,0,135,135,67,389.538809379,9.94256697595e-06,392.267535815,2.72873701982,,,,,z,1,2.71764436469,2018_Nov_14_1534,59.9827049621,spanish_cond2,001,1028,
images\headphones02b.jpg,headphones,z,sounds\animalfarm_english.wav,,,,,,,,,0,0,0,1,0,136,136,101,393.374322104,9.621726349e-06,394.201396188,0.827084346907,,,,,z,1,0.817136686295,2018_Nov_14_1534,59.9827049621,spanish_cond2,001,1028,
images\beachumbrella01.jpg,beach umbrella,z,sounds\animalfarm_english.wav,,,,,,,,,0,0,0,1,0,137,137,92,395.307553211,9.94256697595e-06,396.318635282,1.01109265513,,,,,z,1,1.00053176493,2018_Nov_14_1534,59.9827049621,spanish_cond2,001,1028,
images\coin01b.jpg,arrow,x,sounds\animalfarm_english.wav,,,,,,,,,0,0,0,1,0,138,138,124,397.422378516,9.94256697595e-06,398.26914907,0.846781459055,,,,,x,1,0.833797799074,2018_Nov_14_1534,59.9827049621,spanish_cond2,001,1028,
images\diploma01.jpg,glasses,x,sounds\animalfarm_english.wav,,,,,,,,,0,0,0,1,0,139,139,179,399.40037602,9.621726349e-06,400.603143956,1.20277819911,,,,,x,1,1.18393935182,2018_Nov_14_1534,59.9827049621,spanish_cond2,001,1028,
images\sunglasses03a.jpg,sun glasses,z,sounds\animalfarm_english.wav,,,,,,,,,0,0,0,1,0,140,140,17,401.712599974,9.94256697595e-06,402.703682167,0.991092776996,,,,,z,1,0.967190295924,2018_Nov_14_1534,59.9827049621,spanish_cond2,001,1028,
images\pepper05a.jpg,lighter,x,sounds\animalfarm_english.wav,,,,,,,,,0,0,0,1,0,141,141,198,403.826027873,9.62184276432e-06,405.25465575,1.42863846046,,,,,x,1,1.41759423504,2018_Nov_14_1534,59.9827049621,spanish_cond2,001,1028,
images\cake.jpg,cake,z,sounds\animalfarm_english.wav,,,,,,,,,0,0,0,1,0,142,142,23,406.368953138,8.98039434105e-06,407.304923572,0.935980055947,,,,,z,1,0.917182582431,2018_Nov_14_1534,59.9827049621,spanish_cond2,001,1028,
images\squirrel.jpg,binder,x,sounds\animalfarm_english.wav,,,,,,,,,0,0,0,1,0,143,143,132,408.407290568,9.62184276432e-06,409.688898268,1.28161828453,,,,,x,1,1.26727570535,2018_Nov_14_1534,59.9827049621,spanish_cond2,001,1028,
images\belt02a.jpg,snowman,x,sounds\animalfarm_english.wav,,,,,,,,,0,0,0,1,0,144,144,224,410.791396762,9.30111855268e-06,411.606078926,0.814692107146,,,,,x,1,0.800482308841,2018_Nov_14_1534,59.9827049621,spanish_cond2,001,1028,
images\cat.jpg,black olive,x,sounds\animalfarm_english.wav,,,,,,,,,0,0,0,1,0,145,145,133,412.735821874,9.62184276432e-06,414.523520335,1.78770872497,,,,,x,1,1.76740351494,2018_Nov_14_1534,59.9827049621,spanish_cond2,001,1028,
images\charcoalbarbecue.jpg,charcoal barbecue,z,sounds\animalfarm_english.wav,,,,,,,,,0,0,0,1,0,146,146,77,415.644285179,9.62184276432e-06,417.341011745,1.69673715066,,,,,x,0,1.68410468649,2018_Nov_14_1534,59.9827049621,spanish_cond2,001,1028,
images\clothespin02a.jpg,clothes pin,z,sounds\animalfarm_english.wav,,,,,,,,,0,0,0,1,0,147,147,79,418.447100133,9.62184276432e-06,419.291465878,0.844376329216,,,,,z,1,0.833817684092,2018_Nov_14_1534,59.9827049621,spanish_cond2,001,1028,
images\table02.jpg,table,z,sounds\animalfarm_english.wav,,,,,,,,,0,0,0,1,0,148,148,49,420.407063173,1.09047396109e-05,421.825493542,1.41844223661,,,,,z,1,1.40064222319,2018_Nov_14_1534,59.9827049621,spanish_cond2,001,1028,
images\butterfly.jpg,butterfly,z,sounds\animalfarm_english.wav,,,,,,,,,0,0,0,1,0,149,149,91,422.933635223,9.621726349e-06,423.675984848,0.74236052949,,,,,z,1,0.733792314655,2018_Nov_14_1534,59.9827049621,spanish_cond2,001,1028,
images\ladybug03.jpg,giraffe,x,sounds\animalfarm_english.wav,,,,,,,,,0,0,0,1,0,150,150,178,424.779965098,9.62184276432e-06,426.610139327,1.83018481231,,,,,x,1,1.81743464153,2018_Nov_14_1534,59.9827049621,spanish_cond2,001,1028,
images\scooter.jpg,pen,x,sounds\animalfarm_english.wav,,,,,,,,,0,0,0,1,0,151,151,212,427.703874283,9.30111855268e-06,428.894058184,1.19019448548,,,,,x,1,1.16724007262,2018_Nov_14_1534,59.9827049621,spanish_cond2,001,1028,
images\worldmap.jpg,scooter,x,sounds\animalfarm_english.wav,,,,,,,,,0,0,0,1,0,152,152,220,430.025877516,8.98027792573e-06,431.328038669,1.30217077478,,,,,x,1,1.28392912075,2018_Nov_14_1534,59.9827049621,spanish_cond2,001,1028,
images\chameleon.jpg,50 dollar bill,x,sounds\animalfarm_english.wav,,,,,,,,,0,0,0,1,0,153,153,120,432.441302356,9.62184276432e-06,433.578667695,1.1373762436,,,,,x,1,1.11724294315,2018_Nov_14_1534,59.9827049621,spanish_cond2,001,1028,
images\djmixer01.jpg,light bulb,x,sounds\animalfarm_english.wav,,,,,,,,,0,0,0,1,0,154,154,196,434.755418919,9.30111855268e-06,435.962718082,1.20731744473,,,,,x,1,1.18392812635,2018_Nov_14_1534,59.9827049621,spanish_cond2,001,1028,
images\flashlight05.jpg,flash light,z,sounds\animalfarm_english.wav,,,,,,,,,0,0,0,1,0,155,155,8,437.066729123,9.94256697595e-06,437.996480986,0.929762447369,,,,,z,1,0.917156603537,2018_Nov_14_1534,59.9827049621,spanish_cond2,001,1028,
images\radio03a.jpg,radio,z,sounds\animalfarm_english.wav,,,,,,,,,0,0,0,1,0,156,156,37,439.111683145,9.94245056063e-06,441.697478671,2.58580578899,,,,,z,1,2.56759845268,2018_Nov_14_1534,59.9827049621,spanish_cond2,001,1028,
images\spoon02b.jpg,spoon,z,sounds\animalfarm_english.wav,,,,,,,,,0,0,0,1,0,157,157,38,442.790199489,9.62184276432e-06,443.748054071,0.957864845172,,,,,z,1,0.933843695093,2018_Nov_14_1534,59.9827049621,spanish_cond2,001,1028,
images\mailbox01.jpg,mail box,z,sounds\animalfarm_english.wav,,,,,,,,,0,0,0,1,0,158,158,73,444.868231984,9.621726349e-06,446.715507362,1.84728564147,,,,,z,1,1.83408356667,2018_Nov_14_1534,59.9827049621,spanish_cond2,001,1028,
images\mitten01.jpg,mitten,z,sounds\animalfarm_english.wav,,,,,,,,,0,0,0,1,0,159,159,102,447.83749193,9.94256697595e-06,449.849690771,2.01220910484,,,,,z,1,2.00080181682,2018_Nov_14_1534,59.9827049621,spanish_cond2,001,1028,
images\redfox.jpg,red fox,z,sounds\animalfarm_english.wav,,,,,,,,,0,0,0,1,0,160,160,1,450.963774877,1.02632911876e-05,451.683527378,0.71976340632,,,,,z,1,0.700446996838,2018_Nov_14_1534,59.9827049621,spanish_cond2,001,1028,
images\acousticguitar02.jpg,acoustic guitar,z,sounds\animalfarm_english.wav,,,,,,,,,0,0,0,1,0,161,161,97,452.797496664,1.02631747723e-05,453.667390975,0.869904574123,,,,,z,1,0.850499002729,2018_Nov_14_1534,59.9827049621,spanish_cond2,001,1028,
images\pineapple01a.jpg,pineapple,z,sounds\animalfarm_english.wav,,,,,,,,,0,0,0,1,0,162,162,51,454.781418632,9.62184276432e-06,456.301481533,1.52008727624,,,,,z,1,1.50066887564,2018_Nov_14_1534,59.9827049621,spanish_cond2,001,1028,
images\leaf01a.jpg,leaf,z,sounds\animalfarm_english.wav,,,,,,,,,0,0,0,1,0,163,163,68,457.405372943,8.98039434105e-06,458.30221279,0.896851393511,,,,,z,1,0.884064018377,2018_Nov_14_1534,59.9827049621,spanish_cond2,001,1028,
images\bus.jpg,microphone,x,sounds\animalfarm_english.wav,,,,,,,,,0,0,0,1,0,164,164,203,459.421578303,3.23933782056e-05,462.036287986,2.61472219136,,,,,x,1,2.60094216687,2018_Nov_14_1534,59.9827049621,spanish_cond2,001,1028,
images\parkfountain.jpg,park fountain,z,sounds\animalfarm_english.wav,,,,,,,,,0,0,0,1,0,165,165,93,463.157547069,9.62184276432e-06,464.436923794,1.27938698861,,,,,z,1,1.26725485816,2018_Nov_14_1534,59.9827049621,spanish_cond2,001,1028,
images\barrel01.jpg,barrel,z,sounds\animalfarm_english.wav,,,,,,,,,0,0,0,1,0,166,166,9,465.567755609,9.62184276432e-06,466.470821404,0.903076058137,,,,,z,1,0.883834698703,2018_Nov_14_1534,59.9827049621,spanish_cond2,001,1028,
images\lily.jpg,kiwi,x,sounds\animalfarm_english.wav,,,,,,,,,0,0,0,1,0,167,167,190,467.571061339,8.98039434105e-06,469.154693884,1.58364280791,,,,,x,1,1.56717028248,2018_Nov_14_1534,59.9827049621,spanish_cond2,001,1028,
images\ashtray02b.jpg,ashtray,z,sounds\animalfarm_english.wav,,,,,,,,,0,0,0,1,0,168,168,43,470.268680488,9.94256697595e-06,471.338808994,1.07013876888,,,,,x,0,1.0505523074,2018_Nov_14_1534,59.9827049621,spanish_cond2,001,1028,
images\icecube02 (2).jpg,aloe,x,sounds\animalfarm_english.wav,,,,,,,,,0,0,0,1,0,169,169,122,472.450729156,9.62184276432e-06,473.789459893,1.33874100004,,,,,x,1,1.31728245667,2018_Nov_14_1534,59.9827049621,spanish_cond2,001,1028,
images\aquarium.jpg,computer mouse,x,sounds\animalfarm_english.wav,,,,,,,,,0,0,0,1,0,170,170,159,474.925807566,9.30111855268e-06,477.923728294,2.99793099181,,,,,None,0,,2018_Nov_14_1534,59.9827049621,spanish_cond2,001,1028,
images\corkscrew02a.jpg,masquerade mask,x,sounds\animalfarm_english.wav,,,,,,,,,0,0,0,1,0,171,171,201,479.028225557,9.30100213736e-06,480.274534393,1.24631909933,,,,,x,1,1.2338620727,2018_Nov_14_1534,59.9827049621,spanish_cond2,001,1028,
images\swallow.jpg,mattress,x,sounds\animalfarm_english.wav,,,,,,,,,0,0,0,1,0,172,172,202,481.376754816,9.30100213736e-06,482.8585563,1.48181174684,,,,,x,1,1.46731746406,2018_Nov_14_1534,59.9827049621,spanish_cond2,001,1028,
images\volleyball.jpg,volley ball,z,sounds\animalfarm_english.wav,,,,,,,,,0,0,0,1,0,173,173,2,483.992033468,8.98027792573e-06,484.742414732,0.75039184792,,,,,z,1,0.733804823016,2018_Nov_14_1534,59.9827049621,spanish_cond2,001,1028,
images\dreamcatcher.jpg,dream catcher,z,sounds\animalfarm_english.wav,,,,,,,,,0,0,0,1,0,174,174,48,485.842127073,9.62184276432e-06,487.026349626,1.1842328168,,,,,z,1,1.16724744928,2018_Nov_14_1534,59.9827049621,spanish_cond2,001,1028,
images\bottleofredwine02.jpg,pipe,x,sounds\animalfarm_english.wav,,,,,,,,,0,0,0,1,0,175,175,213,488.125234491,9.30100213736e-06,489.227160808,1.1019359387,,,,,x,1,1.08410866349,2018_Nov_14_1534,59.9827049621,spanish_cond2,001,1028,
images\printer03a.jpg,printer,z,sounds\animalfarm_english.wav,,,,,,,,,0,0,0,1,0,176,176,72,490.336739986,9.621726349e-06,491.260825249,0.92409520573,,,,,x,0,0.90050479176,2018_Nov_14_1534,59.9827049621,spanish_cond2,001,1028,
images\dryingmachine01.jpg,drying machine,z,sounds\animalfarm_english.wav,,,,,,,,,0,0,0,1,0,177,177,18,492.382679601,1.02632911876e-05,493.328042518,0.945373500697,,,,,z,1,0.933853316936,2018_Nov_14_1534,59.9827049621,spanish_cond2,001,1028,
images\puma.jpg,puma,z,sounds\animalfarm_english.wav,,,,,,,,,0,0,0,1,0,178,178,4,494.427364213,8.98039434105e-06,495.261888458,0.834533546236,,,,,z,1,0.817144383793,2018_Nov_14_1534,59.9827049621,spanish_cond2,001,1028,
images\rhinoceros01.jpg,envelope,x,sounds\animalfarm_english.wav,,,,,,,,,0,0,0,1,0,179,179,173,496.375379219,8.98039434105e-06,497.162389401,0.787020124728,,,,,x,1,0.76712448278,2018_Nov_14_1534,59.9827049621,spanish_cond2,001,1028,
images\screwdriver02b.jpg,cola,x,sounds\animalfarm_english.wav,,,,,,,,,0,0,0,1,0,180,180,158,498.25686235,9.62184276432e-06,499.146275448,0.889423362212,,,,,x,1,0.867170057958,2018_Nov_14_1534,59.9827049621,spanish_cond2,001,1028,
images\candy.jpg,candy,z,sounds\animalfarm_english.wav,,,,,,,,,0,0,0,1,0,181,181,31,500.249002941,8.6595537141e-06,501.696960056,1.44796673674,,,,,x,0,1.43398369232,2018_Nov_14_1534,59.9827049621,spanish_cond2,001,1028,
images\dice05a.jpg,band aid,x,sounds\animalfarm_english.wav,,,,,,,,,0,0,0,1,0,182,182,126,502.810476475,9.30111855268e-06,505.247946467,2.43747993454,,,,,x,1,2.41760032892,2018_Nov_14_1534,59.9827049621,spanish_cond2,001,1028,
images\bowlingball.jpg,bowling ball,z,sounds\animalfarm_english.wav,,,,,,,,,0,0,0,1,0,183,183,20,506.380954412,9.30111855268e-06,507.148415979,0.767470867606,,,,,z,1,0.750463370001,2018_Nov_14_1534,59.9827049621,spanish_cond2,001,1028,
images\pen03c.jpg,pepper,x,sounds\animalfarm_english.wav,,,,,,,,,0,0,0,1,0,184,184,211,508.243405297,9.621726349e-06,509.032249715,0.788854040089,,,,,x,1,0.767132500885,2018_Nov_14_1534,59.9827049621,spanish_cond2,001,1028,
images\gps.jpg,gps,z,sounds\animalfarm_english.wav,,,,,,,,,0,0,0,1,0,185,185,21,510.150860879,9.30111855268e-06,511.73297382,1.58212288388,,,,,z,1,1.56734443712,2018_Nov_14_1534,59.9827049621,spanish_cond2,001,1028,
images\ear.jpg,bullet,x,sounds\animalfarm_english.wav,,,,,,,,,0,0,0,1,0,186,186,139,512.837799186,9.62184276432e-06,514.050291236,1.21250199247,,,,,x,1,1.20057737222,2018_Nov_14_1534,59.9827049621,spanish_cond2,001,1028,
images\bat.jpg,hand,x,sounds\animalfarm_english.wav,,,,,,,,,0,0,0,1,0,187,187,185,515.14961229,8.98034777492e-05,516.46758046,1.31803840958,,,,,x,1,1.30059087486,2018_Nov_14_1534,59.9827049621,spanish_cond2,001,1028,
images\mirror02.jpg,8 ball,x,sounds\animalfarm_english.wav,,,,,,,,,0,0,0,1,0,188,188,121,517.57205014,1.05840153992e-05,519.06830357,1.4962649768,,,,,x,1,1.48401000793,2018_Nov_14_1534,59.9827049621,spanish_cond2,001,1028,
images\bicycle.jpg,hand bag,x,sounds\animalfarm_english.wav,,,,,,,,,0,0,0,1,0,189,189,186,520.178129387,9.94256697595e-06,521.302232675,1.12411355146,,,,,x,1,1.10057124647,2018_Nov_14_1534,59.9827049621,spanish_cond2,001,1028,
images\bracelet02a.jpg,chess knight,x,sounds\animalfarm_english.wav,,,,,,,,,0,0,0,1,0,190,190,152,522.412425724,9.62184276432e-06,523.602840548,1.19042476732,,,,,x,1,1.16724552505,2018_Nov_14_1534,59.9827049621,spanish_cond2,001,1028,
images\dresser02.jpg,dresser,z,sounds\animalfarm_english.wav,,,,,,,,,0,0,0,1,0,191,191,87,524.725694285,9.94256697595e-06,526.0701702,1.34448649886,,,,,x,0,1.33394196583,2018_Nov_14_1534,59.9827049621,spanish_cond2,001,1028,
images\graduationcap.jpg,graduation cap,z,sounds\animalfarm_english.wav,,,,,,,,,0,0,0,1,0,192,192,35,527.174231916,9.62184276432e-06,528.204073614,1.02985196223,,,,,z,1,1.01720089593,2018_Nov_14_1534,59.9827049621,spanish_cond2,001,1028,
images\safe.jpg,safe,z,sounds\animalfarm_english.wav,,,,,,,,,0,0,0,1,0,193,193,78,529.316178515,9.621726349e-06,530.38799244,1.07182418788,,,,,z,1,1.05054108205,2018_Nov_14_1534,59.9827049621,spanish_cond2,001,1028,
images\dolphin01.jpg,dolphin,z,sounds\animalfarm_english.wav,,,,,,,,,0,0,0,1,0,194,194,99,531.489878024,9.62184276432e-06,532.455209709,0.965341626899,,,,,z,1,0.95050769439,2018_Nov_14_1534,59.9827049621,spanish_cond2,001,1028,
images\egg01b (1).jpg,egg,z,sounds\animalfarm_english.wav,,,,,,,,,0,0,0,1,0,195,195,19,533.569026649,9.30111855268e-06,534.2890569,0.720039872802,,,,,z,1,0.700446676114,2018_Nov_14_1534,59.9827049621,spanish_cond2,001,1028,
images\panda.jpg,panda,z,sounds\animalfarm_english.wav,,,,,,,,,0,0,0,1,0,196,196,83,535.399856122,9.621726349e-06,536.356288922,0.956443384173,,,,,z,1,0.933850109577,2018_Nov_14_1534,59.9827049621,spanish_cond2,001,1028,
images\rubberglove02a.jpg,lady bug,x,sounds\animalfarm_english.wav,,,,,,,,,0,0,0,1,0,197,197,192,537.461936311,9.62184276432e-06,539.623820247,2.16189484077,,,,,x,1,2.15070596768,2018_Nov_14_1534,59.9827049621,spanish_cond2,001,1028,
images\feather03b.jpg,feather,z,sounds\animalfarm_english.wav,,,,,,,,,0,0,0,1,0,198,198,114,540.725318393,9.30100213736e-06,541.657698612,0.932390482165,,,,,z,1,0.917152113281,2018_Nov_14_1534,59.9827049621,spanish_cond2,001,1028,
images\binder03b.jpg,dj mixer,x,sounds\animalfarm_english.wav,,,,,,,,,0,0,0,1,0,199,199,167,542.771720176,9.62184276432e-06,543.791625761,1.01991616853,,,,,x,1,1.00055197068,2018_Nov_14_1534,59.9827049621,spanish_cond2,001,1028,
images\cola.jpg,comb,x,sounds\animalfarm_english.wav,,,,,,,,,0,0,0,1,0,200,200,157,544.912731537,1.05840153992e-05,546.59238646,1.67966550775,,,,,x,1,1.66740636947,2018_Nov_14_1534,59.9827049621,spanish_cond2,001,1028,
images\ruler02b.jpg,watermelon,x,sounds\animalfarm_english.wav,,,,,,,,,0,0,0,1,0,201,201,238,547.696137392,9.621726349e-06,548.509551403,0.813424915774,,,,,x,1,0.800477177254,2018_Nov_14_1534,59.9827049621,spanish_cond2,001,1028,
images\screw03c.jpg,screw,z,sounds\animalfarm_english.wav,,,,,,,,,0,0,0,1,0,202,202,84,549.604486197,9.94245056063e-06,550.460053324,0.855578031391,,,,,z,1,0.833783366368,2018_Nov_14_1534,59.9827049621,spanish_cond2,001,1028,
images\backpack01b.jpg,swallow,x,sounds\animalfarm_english.wav,,,,,,,,,0,0,0,1,0,203,203,228,551.59203783,9.62184276432e-06,553.07744332,1.48541575333,,,,,x,1,1.46731586044,2018_Nov_14_1534,59.9827049621,spanish_cond2,001,1028,
images\lock02a.jpg,lock,z,sounds\animalfarm_english.wav,,,,,,,,,0,0,0,1,0,204,204,65,554.188883034,9.30100213736e-06,555.111322328,0.922449556878,,,,,z,1,0.900512168533,2018_Nov_14_1534,59.9827049621,spanish_cond2,001,1028,
images\hairpin.jpg,hair pin,z,sounds\animalfarm_english.wav,,,,,,,,,0,0,0,1,0,205,205,28,556.202898472,9.62184276432e-06,557.028488553,0.825600665063,,,,,z,1,0.817148553208,2018_Nov_14_1534,59.9827049621,spanish_cond2,001,1028,
images\envelope02a.jpg,grand piano,x,sounds\animalfarm_english.wav,,,,,,,,,0,0,0,1,0,206,206,182,558.152634177,9.94256697595e-06,561.146096483,2.99347256939,,,,,None,0,,2018_Nov_14_1534,59.9827049621,spanish_cond2,001,1028,
,,,sounds\animalfarm_english.wav,,,,,,,,,0,0,0,1,,,,,,,,,,,,,,,,2018_Nov_14_1534,59.9827049621,spanish_cond2,001,1028,
images\aloe02.jpg,broad sword,x,sounds\greatgatsby_spanish.wav,,,,,,,,,0,1,1,0,0,0,0,137,582.292485148,9.621726349e-06,585.286187999,2.9937560918,,,,572.149362123,None,0,,2018_Nov_14_1534,59.9827049621,spanish_cond2,001,1028,
images\bottleofredwine02.jpg,pipe,x,sounds\greatgatsby_spanish.wav,,,,,,,,,0,1,1,0,0,1,1,213,586.384224542,9.621726349e-06,587.486691284,1.10247732536,,,,,x,1,1.08388447552,2018_Nov_14_1534,59.9827049621,spanish_cond2,001,1028,
images\spoon02b.jpg,spoon,z,sounds\greatgatsby_spanish.wav,,,,,,,,,0,1,1,0,0,2,2,38,588.5770724,9.94256697595e-06,589.40386264,0.826800503884,,,,,z,1,0.817135403515,2018_Nov_14_1534,59.9827049621,spanish_cond2,001,1028,
images\leek.jpg,donut,x,sounds\greatgatsby_spanish.wav,,,,,,,,,0,1,1,0,0,3,3,169,590.505376182,9.62184276432e-06,591.254409111,0.749042871292,,,,,x,1,0.733833688428,2018_Nov_14_1534,59.9827049621,spanish_cond2,001,1028,
images\lock02a.jpg,lock,z,sounds\greatgatsby_spanish.wav,,,,,,,,,0,1,1,0,0,4,4,65,592.36375961,9.94256697595e-06,593.138188644,0.774439938948,,,,,z,1,0.750441881246,2018_Nov_14_1534,59.9827049621,spanish_cond2,001,1028,
images\boxingglove02a.jpg,bracelet,x,sounds\greatgatsby_spanish.wav,,,,,,,,,0,1,1,0,0,5,5,135,594.248651424,9.62184276432e-06,595.088711092,0.840070251958,,,,,x,1,0.817137327744,2018_Nov_14_1534,59.9827049621,spanish_cond2,001,1028,
images\ladybug03.jpg,giraffe,x,sounds\greatgatsby_spanish.wav,,,,,,,,,0,1,1,0,0,6,6,178,596.191437943,9.94256697595e-06,597.172613528,0.981186169316,,,,,x,1,0.967178749619,2018_Nov_14_1534,59.9827049621,spanish_cond2,001,1028,
images\coffeepot03b.jpg,coffee pot,z,sounds\greatgatsby_spanish.wav,,,,,,,,,0,1,1,0,0,7,7,107,598.294303348,9.621726349e-06,599.106484485,0.812191721401,,,,,z,1,0.800466593239,2018_Nov_14_1534,59.9827049621,spanish_cond2,001,1028,
images\handfan01b.jpg,handfan,z,sounds\greatgatsby_spanish.wav,,,,,,,,,0,1,1,0,0,8,8,69,600.220637547,9.94256697595e-06,601.057003726,0.836376762833,,,,,z,1,0.817154647084,2018_Nov_14_1534,59.9827049621,spanish_cond2,001,1028,
images\key03b.jpg,cigar,x,sounds\greatgatsby_spanish.wav,,,,,,,,,0,1,1,0,0,9,9,153,602.156965271,9.94256697595e-06,602.974177328,0.817223282647,,,,,x,1,0.800472366391,2018_Nov_14_1534,59.9827049621,spanish_cond2,001,1028,
images\pingpongpaddle01c (1).jpg,ping pong paddle,z,sounds\greatgatsby_spanish.wav,,,,,,,,,0,1,1,0,0,10,10,10,604.084189807,9.30111855268e-06,605.058062445,0.97388258006,,,,,z,1,0.950487488648,2018_Nov_14_1534,59.9827049621,spanish_cond2,001,1028,
images\computermouse02a.jpg,world map,x,sounds\greatgatsby_spanish.wav,,,,,,,,,0,1,1,0,0,11,11,239,606.158846654,9.30111855268e-06,607.075291885,0.916455174098,,,,,x,1,0.900511527085,2018_Nov_14_1534,59.9827049621,spanish_cond2,001,1028,
images\ostrich.jpg,ostrich,z,sounds\greatgatsby_spanish.wav,,,,,,,,,0,1,1,0,0,12,12,76,608.175547216,9.62184276432e-06,609.042470635,0.866933682468,,,,,z,1,0.850483928574,2018_Nov_14_1534,59.9827049621,spanish_cond2,001,1028,
images\corn01.jpg,corn,z,sounds\greatgatsby_spanish.wav,,,,,,,,,0,1,1,0,0,13,13,22,610.142365469,9.62184276432e-06,611.176392972,1.03403776686,,,,,x,0,1.01720955549,2018_Nov_14_1534,59.9827049621,spanish_cond2,001,1028,
images\broom02.jpg,broom,z,sounds\greatgatsby_spanish.wav,,,,,,,,,0,1,1,0,0,14,14,116,612.269567619,9.62184276432e-06,614.34389123,2.07433419535,,,,,z,1,2.05080087075,2018_Nov_14_1534,59.9827049621,spanish_cond2,001,1028,
images\bat.jpg,hand,x,sounds\greatgatsby_spanish.wav,,,,,,,,,0,1,1,0,0,15,15,185,615.44220456,9.621726349e-06,616.327750015,0.885555397603,,,,,x,1,0.867143116891,2018_Nov_14_1534,59.9827049621,spanish_cond2,001,1028,
images\cherry01.jpg,highlighter,x,sounds\greatgatsby_spanish.wav,,,,,,,,,0,1,1,0,0,16,16,187,617.436161427,8.98039434105e-06,618.328293326,0.892141521326,,,,,x,1,0.883806795464,2018_Nov_14_1534,59.9827049621,spanish_cond2,001,1028,
images\tape01a.jpg,tie,x,sounds\greatgatsby_spanish.wav,,,,,,,,,0,1,1,0,0,17,17,232,619.454118596,9.30100213736e-06,620.86229437,1.40818603686,,,,,x,1,1.38394101965,2018_Nov_14_1534,59.9827049621,spanish_cond2,001,1028,
images\pepper05a.jpg,lighter,x,sounds\greatgatsby_spanish.wav,,,,,,,,,0,1,1,0,0,18,18,198,621.983620485,9.30111855268e-06,622.679474996,0.695864773938,,,,,x,1,0.68375830166,2018_Nov_14_1534,59.9827049621,spanish_cond2,001,1028,
images\microphone01.jpg,diaper,x,sounds\greatgatsby_spanish.wav,,,,,,,,,0,1,1,0,0,19,19,164,623.77841663,1.02632911876e-05,624.863380351,1.08497430501,,,,,x,1,1.06719610107,2018_Nov_14_1534,59.9827049621,spanish_cond2,001,1028,
images\magnifyingglass01b.jpg,magnifying glass,z,sounds\greatgatsby_spanish.wav,,,,,,,,,0,1,1,0,0,20,20,64,625.970348171,9.94245056063e-06,627.797514304,1.82717671618,,,,,z,1,1.81741443567,2018_Nov_14_1534,59.9827049621,spanish_cond2,001,1028,
images\mirror02.jpg,8 ball,x,sounds\greatgatsby_spanish.wav,,,,,,,,,0,1,1,0,0,21,21,121,628.899057031,9.30111855268e-06,630.115005553,1.21595846466,,,,,x,1,1.20077558141,2018_Nov_14_1534,59.9827049621,spanish_cond2,001,1028,
images\bus.jpg,microphone,x,sounds\greatgatsby_spanish.wav,,,,,,,,,0,1,1,0,0,22,22,203,631.232756207,9.62184276432e-06,631.998656476,0.7659108527,,,,,x,1,0.750470425934,2018_Nov_14_1534,59.9827049621,spanish_cond2,001,1028,
images\table02.jpg,table,z,sounds\greatgatsby_spanish.wav,,,,,,,,,0,1,1,0,0,23,23,49,633.111819775,9.30111855268e-06,634.499303221,1.3874937098,,,,,z,1,1.36727702036,2018_Nov_14_1534,59.9827049621,spanish_cond2,001,1028,
images\candycane01a.jpg,lip,x,sounds\greatgatsby_spanish.wav,,,,,,,,,0,1,1,0,0,24,24,200,635.593385845,9.94245056063e-06,636.466502497,0.87312723638,,,,,x,1,0.850473665283,2018_Nov_14_1534,59.9827049621,spanish_cond2,001,1028,
images\banana04a.jpg,banana,z,sounds\greatgatsby_spanish.wav,,,,,,,,,0,1,1,0,0,25,25,118,637.571699586,9.621726349e-06,638.500399465,0.928709822125,,,,,z,1,0.917176488554,2018_Nov_14_1534,59.9827049621,spanish_cond2,001,1028,
images\50dollarbill.jpg,cherry,x,sounds\greatgatsby_spanish.wav,,,,,,,,,0,1,1,0,0,26,26,151,639.620261784,8.98039434105e-06,640.534284887,0.914032725035,,,,,x,1,0.900446098763,2018_Nov_14_1534,59.9827049621,spanish_cond2,001,1028,
images\pouch01b.jpg,pouch,z,sounds\greatgatsby_spanish.wav,,,,,,,,,0,1,1,0,0,27,27,25,641.64653636,9.30111855268e-06,643.051605253,1.40507883625,,,,,z,1,1.38394262327,2018_Nov_14_1534,59.9827049621,spanish_cond2,001,1028,
images\beachumbrella01.jpg,beach umbrella,z,sounds\greatgatsby_spanish.wav,,,,,,,,,0,1,1,0,0,28,28,92,644.157464642,9.62184276432e-06,644.86876856,0.711313860375,,,,,z,1,0.700442185975,2018_Nov_14_1534,59.9827049621,spanish_cond2,001,1028,
images\fork01.jpg,cooking pot,x,sounds\greatgatsby_spanish.wav,,,,,,,,,0,1,1,0,0,29,29,160,645.962748551,9.94256697595e-06,646.83600472,0.873266752576,,,,,x,1,0.850522094988,2018_Nov_14_1534,59.9827049621,spanish_cond2,001,1028,
images\cupcake.jpg,scissors,x,sounds\greatgatsby_spanish.wav,,,,,,,,,0,1,1,0,0,30,30,219,647.955049827,9.30111855268e-06,649.736732096,1.78169189137,,,,,x,1,1.76738170558,2018_Nov_14_1534,59.9827049621,spanish_cond2,001,1028,
images\bracelet02a.jpg,chess knight,x,sounds\greatgatsby_spanish.wav,,,,,,,,,0,1,1,0,0,31,31,152,650.845095719,9.30111855268e-06,652.087378473,1.24229269591,,,,,x,1,1.23390505021,2018_Nov_14_1534,59.9827049621,spanish_cond2,001,1028,
images\chameleon.jpg,50 dollar bill,x,sounds\greatgatsby_spanish.wav,,,,,,,,,0,1,1,0,0,32,32,120,653.196854056,9.94245056063e-06,655.304906895,2.10806342307,,,,,x,1,2.08415196161,2018_Nov_14_1534,59.9827049621,spanish_cond2,001,1028,
images\cake.jpg,cake,z,sounds\greatgatsby_spanish.wav,,,,,,,,,0,1,1,0,0,33,33,23,656.418741154,9.94256697595e-06,657.172073104,0.75334253395,,,,,z,1,0.733787503792,2018_Nov_14_1534,59.9827049621,spanish_cond2,001,1028,
images\notebook02b.jpg,notebook,z,sounds\greatgatsby_spanish.wav,,,,,,,,,0,1,1,0,0,34,34,7,658.278950479,9.94245056063e-06,659.923093576,1.64415335993,,,,,z,1,1.63431057706,2018_Nov_14_1534,59.9827049621,spanish_cond2,001,1028,
images\leaf01a.jpg,leaf,z,sounds\greatgatsby_spanish.wav,,,,,,,,,0,1,1,0,0,35,35,68,661.026295423,9.94256697595e-06,661.789982036,0.763698158902,,,,,z,1,0.750462407712,2018_Nov_14_1534,59.9827049621,spanish_cond2,001,1028,
images\hammer02a.jpg,flower,x,sounds\greatgatsby_spanish.wav,,,,,,,,,0,1,1,0,0,36,36,176,662.885342756,9.62184276432e-06,663.64048136,0.755148866912,,,,,x,1,0.733787824516,2018_Nov_14_1534,59.9827049621,spanish_cond2,001,1028,
images\nailpolish02b.jpg,nail polish,z,sounds\greatgatsby_spanish.wav,,,,,,,,,0,1,1,0,0,37,37,94,664.748784045,9.62184276432e-06,665.841062901,1.09228944057,,,,,x,0,1.08386843919,2018_Nov_14_1534,59.9827049621,spanish_cond2,001,1028,
images\cocktailshrimp01.jpg,cocktail shrimp,z,sounds\greatgatsby_spanish.wav,,,,,,,,,0,1,1,0,0,38,38,30,666.95528075,9.94256697595e-06,667.708238091,0.752967283595,,,,,z,1,0.733785900171,2018_Nov_14_1534,59.9827049621,spanish_cond2,001,1028,
images\grandpiano.jpg,tulip,x,sounds\greatgatsby_spanish.wav,,,,,,,,,0,1,1,0,0,39,39,236,668.822633622,9.30100213736e-06,670.042210846,1.21958684619,,,,,x,1,1.20055011055,2018_Nov_14_1534,59.9827049621,spanish_cond2,001,1028,
images\plate01b.jpg,plate,z,sounds\greatgatsby_spanish.wav,,,,,,,,,0,1,1,0,0,40,40,3,671.141309636,9.30111855268e-06,672.392843432,1.25154373795,,,,,z,1,1.2339326326,2018_Nov_14_1534,59.9827049621,spanish_cond2,001,1028,
images\basketball01.jpg,basket ball,z,sounds\greatgatsby_spanish.wav,,,,,,,,,0,1,1,0,0,41,41,33,673.530521158,9.621726349e-06,674.360023144,0.829512569122,,,,,z,1,0.817122253706,2018_Nov_14_1534,59.9827049621,spanish_cond2,001,1028,
images\lip.jpg,boxing glove,x,sounds\greatgatsby_spanish.wav,,,,,,,,,0,1,1,0,0,42,42,136,675.462871229,8.98027792573e-06,676.493939708,1.03107842116,,,,,x,1,1.01719608495,2018_Nov_14_1534,59.9827049621,spanish_cond2,001,1028,
images\volleyball.jpg,volley ball,z,sounds\greatgatsby_spanish.wav,,,,,,,,,0,1,1,0,0,43,43,2,677.625455953,9.62184276432e-06,680.378358771,2.75291404303,,,,,x,0,2.73436673637,2018_Nov_14_1534,59.9827049621,spanish_cond2,001,1028,
images\bandaid01.jpg,door handle,x,sounds\greatgatsby_spanish.wav,,,,,,,,,0,1,1,0,0,44,44,170,681.485635772,1.02632911876e-05,684.029270805,2.54364625888,,,,,x,1,2.53424575808,2018_Nov_14_1534,59.9827049621,spanish_cond2,001,1028,
images\skateboard.jpg,key,x,sounds\greatgatsby_spanish.wav,,,,,,,,,0,1,1,0,0,45,45,189,685.120481642,1.02631747723e-05,685.87981054,0.759340123972,,,,,x,1,0.750474916189,2018_Nov_14_1534,59.9827049621,spanish_cond2,001,1028,
images\squirrel.jpg,binder,x,sounds\greatgatsby_spanish.wav,,,,,,,,,0,1,1,0,0,46,46,132,686.983265441,9.62184276432e-06,687.680277134,0.697022276698,,,,,x,1,0.683768885559,2018_Nov_14_1534,59.9827049621,spanish_cond2,001,1028,
images\marker01a.jpg,marker,z,sounds\greatgatsby_spanish.wav,,,,,,,,,0,1,1,0,0,47,47,95,688.779338078,9.94256697595e-06,689.447423105,0.668095611269,,,,,z,1,0.650432227412,2018_Nov_14_1534,59.9827049621,spanish_cond2,001,1028,
images\doll.jpg,carrot,x,sounds\greatgatsby_spanish.wav,,,,,,,,,0,1,1,0,0,48,48,146,690.558268833,9.30100213736e-06,691.314583862,0.756324971793,,,,,x,1,0.733786862344,2018_Nov_14_1534,59.9827049621,spanish_cond2,001,1028,
images\feather03b.jpg,feather,z,sounds\greatgatsby_spanish.wav,,,,,,,,,0,1,1,0,0,49,49,114,692.415312906,9.621726349e-06,693.165065225,0.749762261286,,,,,z,1,0.733770505292,2018_Nov_14_1534,59.9827049621,spanish_cond2,001,1028,
images\acousticguitar02.jpg,acoustic guitar,z,sounds\greatgatsby_spanish.wav,,,,,,,,,0,1,1,0,0,50,50,97,694.27770638,9.62184276432e-06,695.332342501,1.0546460636,,,,,z,1,1.03388670448,2018_Nov_14_1534,59.9827049621,spanish_cond2,001,1028,
images\teapot.jpg,light switch,x,sounds\greatgatsby_spanish.wav,,,,,,,,,0,1,1,0,0,51,51,197,696.449087035,9.62184276432e-06,697.616281565,1.16720447189,,,,,x,1,1.15056516859,2018_Nov_14_1534,59.9827049621,spanish_cond2,001,1028,
images\daisy.jpg,daisy,z,sounds\greatgatsby_spanish.wav,,,,,,,,,0,1,1,0,0,52,52,6,698.71834836,9.621726349e-06,699.866893591,1.14855549484,,,,,z,1,1.13390950824,2018_Nov_14_1534,59.9827049621,spanish_cond2,001,1028,
images\eraser.jpg,eraser,z,sounds\greatgatsby_spanish.wav,,,,,,,,,0,1,1,0,0,53,53,110,700.973017259,9.621726349e-06,703.967820524,2.99481448997,,,,,None,0,,2018_Nov_14_1534,59.9827049621,spanish_cond2,001,1028,
images\clothespin02a.jpg,clothes pin,z,sounds\greatgatsby_spanish.wav,,,,,,,,,0,1,1,0,0,54,54,79,705.07242106,9.94256697595e-06,705.868496584,0.796086107381,,,,,z,1,0.783804839011,2018_Nov_14_1534,59.9827049621,spanish_cond2,001,1028,
images\chessknight02b (1).jpg,cockroach,x,sounds\greatgatsby_spanish.wav,,,,,,,,,0,1,1,0,0,55,55,155,706.977524432,9.62184276432e-06,707.802347656,0.824833165971,,,,,x,1,0.80046819686,2018_Nov_14_1534,59.9827049621,spanish_cond2,001,1028,
images\bowtie.jpg,bowtie,z,sounds\greatgatsby_spanish.wav,,,,,,,,,0,1,1,0,0,56,56,89,708.913169008,9.62184276432e-06,710.136312393,1.22315364832,,,,,z,1,1.20058442827,2018_Nov_14_1534,59.9827049621,spanish_cond2,001,1028,
images\lightbulb03b.jpg,treadmill,x,sounds\greatgatsby_spanish.wav,,,,,,,,,0,1,1,0,0,57,57,234,711.239083183,9.94245056063e-06,712.436932454,1.197860496,,,,,x,1,1.18390727916,2018_Nov_14_1534,59.9827049621,spanish_cond2,001,1028,
images\screw03c.jpg,screw,z,sounds\greatgatsby_spanish.wav,,,,,,,,,0,1,1,0,0,58,58,84,713.5311748,1.02632911876e-05,715.487752568,1.95658899413,,,,,z,1,1.93412336882,2018_Nov_14_1534,59.9827049621,spanish_cond2,001,1028,
images\bowl02b (1).jpg,bowl,z,sounds\greatgatsby_spanish.wav,,,,,,,,,0,1,1,0,0,59,59,24,716.60561708,9.62184276432e-06,717.454932601,0.849325784366,,,,,z,1,0.833786253002,2018_Nov_14_1534,59.9827049621,spanish_cond2,001,1028,
images\razor04a.jpg,razor,z,sounds\greatgatsby_spanish.wav,,,,,,,,,0,1,1,0,0,60,60,36,718.553288588,1.05840153992e-05,721.122595552,2.56931786879,,,,,z,1,2.55094183015,2018_Nov_14_1534,59.9827049621,spanish_cond2,001,1028,
images\ladder.jpg,ladder,z,sounds\greatgatsby_spanish.wav,,,,,,,,,0,1,1,0,0,61,61,113,722.214844901,9.621726349e-06,723.239662737,1.02482809848,,,,,z,1,1.00035600679,2018_Nov_14_1534,59.9827049621,spanish_cond2,001,1028,
images\electricguitar02.jpg,electric guitar,z,sounds\greatgatsby_spanish.wav,,,,,,,,,0,1,1,0,0,62,62,100,724.342442187,8.98039434105e-06,725.123664534,0.781232610578,,,,,z,1,0.767120954697,2018_Nov_14_1534,59.9827049621,spanish_cond2,001,1028,
images\cheetah.jpg,cheetah,z,sounds\greatgatsby_spanish.wav,,,,,,,,,0,1,1,0,0,63,63,82,726.225970591,9.62184276432e-06,728.90803289,2.68207256193,,,,,z,1,2.66757218516,2018_Nov_14_1534,59.9827049621,spanish_cond2,001,1028,
images\grasshopper.jpg,cauliflower,x,sounds\greatgatsby_spanish.wav,,,,,,,,,0,1,1,0,0,64,64,148,730.002017371,9.94256697595e-06,730.725171821,0.723165034084,,,,,x,1,0.700438978616,2018_Nov_14_1534,59.9827049621,spanish_cond2,001,1028,
images\hairdryer03a.jpg,hairdryer,z,sounds\greatgatsby_spanish.wav,,,,,,,,,0,1,1,0,0,65,65,119,731.824070157,1.02631747723e-05,732.575678521,0.75161926914,,,,,z,1,0.733786862344,2018_Nov_14_1534,59.9827049621,spanish_cond2,001,1028,
images\hanger02a.jpg,hanger,z,sounds\greatgatsby_spanish.wav,,,,,,,,,0,1,1,0,0,66,66,88,733.66956005,9.94256697595e-06,734.626215755,0.956666289363,,,,,z,1,0.93382797949,2018_Nov_14_1534,59.9827049621,spanish_cond2,001,1028,
images\cookingpot.jpg,grasshopper,x,sounds\greatgatsby_spanish.wav,,,,,,,,,0,1,1,0,0,67,67,183,735.740325518,9.62184276432e-06,736.710120757,0.969805501751,,,,,z,0,0.95042077743,2018_Nov_14_1534,59.9827049621,spanish_cond2,001,1028,
images\pictureframe04.jpg,picture frame,z,sounds\greatgatsby_spanish.wav,,,,,,,,,0,1,1,0,0,68,68,41,737.832152792,9.62184276432e-06,738.994063348,1.16192081966,,,,,z,1,1.15056099917,2018_Nov_14_1534,59.9827049621,spanish_cond2,001,1028,
images\charcoalbarbecue.jpg,charcoal barbecue,z,sounds\greatgatsby_spanish.wav,,,,,,,,,0,1,1,0,0,69,69,77,740.112108429,9.621726349e-06,741.511410976,1.39931281086,,,,,x,0,1.3839650742,2018_Nov_14_1534,59.9827049621,spanish_cond2,001,1028,
images\pineapple01a.jpg,pineapple,z,sounds\greatgatsby_spanish.wav,,,,,,,,,0,1,1,0,0,70,70,51,742.624921622,9.62184276432e-06,743.395239261,0.770327901468,,,,,z,1,0.750448937179,2018_Nov_14_1534,59.9827049621,spanish_cond2,001,1028,
images\arrow02.jpg,hammer,x,sounds\greatgatsby_spanish.wav,,,,,,,,,0,1,1,0,0,71,71,184,744.492017272,9.94256697595e-06,745.279105711,0.787099985639,,,,,x,1,0.767141160439,2018_Nov_14_1534,59.9827049621,spanish_cond2,001,1028,
images\sock03.jpg,sock,z,sounds\greatgatsby_spanish.wav,,,,,,,,,0,1,1,0,0,72,72,90,746.385211418,9.94256697595e-06,747.563035794,1.17783495982,,,,,z,1,1.16722884716,2018_Nov_14_1534,59.9827049621,spanish_cond2,001,1028,
images\bicycle.jpg,hand bag,x,sounds\greatgatsby_spanish.wav,,,,,,,,,0,1,1,0,0,73,73,186,748.673207995,9.62184276432e-06,749.880337815,1.20714040368,,,,,x,1,1.18392107054,2018_Nov_14_1534,59.9827049621,spanish_cond2,001,1028,
images\corkscrew02a.jpg,masquerade mask,x,sounds\greatgatsby_spanish.wav,,,,,,,,,0,1,1,0,0,74,74,201,750.985891872,9.94245056063e-06,753.564651615,2.57877000654,,,,,x,1,2.56760486728,2018_Nov_14_1534,59.9827049621,spanish_cond2,001,1028,
images\tank.jpg,wallet,x,sounds\greatgatsby_spanish.wav,,,,,,,,,0,1,1,0,0,75,75,237,754.669404818,9.621726349e-06,755.531833572,0.862439017743,,,,,x,1,0.850469495752,2018_Nov_14_1534,59.9827049621,spanish_cond2,001,1028,
images\ceilingfan02.jpg,paper clip,x,sounds\greatgatsby_spanish.wav,,,,,,,,,0,1,1,0,0,76,76,208,756.631158154,8.98027792573e-06,758.265911334,1.63476344314,,,,,x,1,1.61735343351,2018_Nov_14_1534,59.9827049621,spanish_cond2,001,1028,
images\scooter.jpg,pen,x,sounds\greatgatsby_spanish.wav,,,,,,,,,0,1,1,0,0,77,77,212,759.357167072,9.94245056063e-06,761.550139372,2.19298256305,,,,,z,0,2.18418823578,2018_Nov_14_1534,59.9827049621,spanish_cond2,001,1028,
images\flower01.jpg,bus,x,sounds\greatgatsby_spanish.wav,,,,,,,,,0,1,1,0,0,78,78,140,762.664533299,9.94245056063e-06,763.550663119,0.886140403221,,,,,x,1,0.86715241801,2018_Nov_14_1534,59.9827049621,spanish_cond2,001,1028,
images\floorlamp.jpg,floor lamp,z,sounds\greatgatsby_spanish.wav,,,,,,,,,0,1,1,0,0,79,79,26,764.643385219,9.62184276432e-06,765.667911193,1.02453655784,,,,,z,1,1.00053978304,2018_Nov_14_1534,59.9827049621,spanish_cond2,001,1028,
images\handbag02a.jpg,candle,x,sounds\greatgatsby_spanish.wav,,,,,,,,,0,1,1,0,0,80,80,144,766.784243593,9.30100213736e-06,767.651761319,0.867528309696,,,,,x,1,0.850475268904,2018_Nov_14_1534,59.9827049621,spanish_cond2,001,1028,
images\radish01.jpg,raisin,x,sounds\greatgatsby_spanish.wav,,,,,,,,,0,1,1,0,0,81,81,214,768.762642647,9.62184276432e-06,769.769030882,1.00639849855,,,,,x,1,0.98387738748,2018_Nov_14_1534,59.9827049621,spanish_cond2,001,1028,
images\candle08a.jpg,screw driver,x,sounds\greatgatsby_spanish.wav,,,,,,,,,0,1,1,0,0,82,82,221,770.881748051,9.94256697595e-06,772.369690168,1.48795206042,,,,,x,1,1.46729886194,2018_Nov_14_1534,59.9827049621,spanish_cond2,001,1028,
images\tent.jpg,tent,z,sounds\greatgatsby_spanish.wav,,,,,,,,,0,1,1,0,0,83,83,11,773.497508755,9.94256697595e-06,775.287176158,1.7896776665,,,,,x,0,1.76742147573,2018_Nov_14_1534,59.9827049621,spanish_cond2,001,1028,
images\fireextinguisher02.jpg,fire extinguisher,z,sounds\greatgatsby_spanish.wav,,,,,,,,,0,1,1,0,0,84,84,175,776.396786126,9.621726349e-06,777.154314464,0.757538922597,,,,,z,1,0.733772429638,2018_Nov_14_1534,59.9827049621,spanish_cond2,001,1028,
images\umbrella01.jpg,umbrella,z,sounds\greatgatsby_spanish.wav,,,,,,,,,0,1,1,0,0,85,85,53,778.266123976,1.02631747723e-05,779.088195364,0.822082292638,,,,,z,1,0.800481346669,2018_Nov_14_1534,59.9827049621,spanish_cond2,001,1028,
images\licenseplate.jpg,license plate,z,sounds\greatgatsby_spanish.wav,,,,,,,,,0,1,1,0,0,86,86,40,780.205421308,9.62184276432e-06,781.855574503,1.65016281698,,,,,z,1,1.63401807426,2018_Nov_14_1534,59.9827049621,spanish_cond2,001,1028,
images\bench02.jpg,electric toothbrush,x,sounds\greatgatsby_spanish.wav,,,,,,,,,0,1,1,0,0,87,87,172,782.96416905,9.62184276432e-06,784.489624009,1.52546554292,,,,,z,0,1.51733576145,2018_Nov_14_1534,59.9827049621,spanish_cond2,001,1028,
images\coin01b.jpg,arrow,x,sounds\greatgatsby_spanish.wav,,,,,,,,,0,1,1,0,0,88,88,124,785.59288038,9.94256697595e-06,787.890536925,2.29766616772,,,,,x,1,2.28419821034,2018_Nov_14_1534,59.9827049621,spanish_cond2,001,1028,
images\scissors04a.jpg,leek,x,sounds\greatgatsby_spanish.wav,,,,,,,,,0,1,1,0,0,89,89,194,788.985011477,9.94256697595e-06,790.007794301,1.02279372874,,,,,x,1,1.00053625507,2018_Nov_14_1534,59.9827049621,spanish_cond2,001,1028,
images\straw.jpg,straw,z,sounds\greatgatsby_spanish.wav,,,,,,,,,0,1,1,0,0,90,90,109,791.099115788,9.94256697595e-06,791.874950568,0.775845684344,,,,,z,1,0.767110049957,2018_Nov_14_1534,59.9827049621,spanish_cond2,001,1028,
images\icecube02 (2).jpg,aloe,x,sounds\greatgatsby_spanish.wav,,,,,,,,,0,1,1,0,0,91,91,122,792.984901468,9.30100213736e-06,794.659026421,1.6741352164,,,,,x,1,1.65069810988,2018_Nov_14_1534,59.9827049621,spanish_cond2,001,1028,
images\tie01.jpg,bench,x,sounds\greatgatsby_spanish.wav,,,,,,,,,0,1,1,0,0,92,92,130,795.759034471,9.62184276432e-06,797.143021996,1.38399810903,,,,,x,1,1.36728535919,2018_Nov_14_1534,59.9827049621,spanish_cond2,001,1028,
images\kiwi03.jpg,backpack,x,sounds\greatgatsby_spanish.wav,,,,,,,,,0,1,1,0,0,93,93,125,798.271068941,9.94245056063e-06,800.160496793,1.88943811553,,,,,x,1,1.8674134895,2018_Nov_14_1534,59.9827049621,spanish_cond2,001,1028,
images\hairpin.jpg,hair pin,z,sounds\greatgatsby_spanish.wav,,,,,,,,,0,1,1,0,0,94,94,28,801.251450727,9.621726349e-06,803.961517923,2.71007745864,,,,,z,1,2.70098132757,2018_Nov_14_1534,59.9827049621,spanish_cond2,001,1028,
images\radio03a.jpg,radio,z,sounds\greatgatsby_spanish.wav,,,,,,,,,0,1,1,0,0,95,95,37,805.075414403,9.621726349e-06,805.745327252,0.669922791421,,,,,z,1,0.650420039776,2018_Nov_14_1534,59.9827049621,spanish_cond2,001,1028,
images\ashtray02b.jpg,ashtray,z,sounds\greatgatsby_spanish.wav,,,,,,,,,0,1,1,0,0,96,96,43,806.85895368,9.94256697595e-06,807.71256726,0.853624164127,,,,,z,1,0.833838210674,2018_Nov_14_1534,59.9827049621,spanish_cond2,001,1028,
images\hand01a.jpg,cupcake,x,sounds\greatgatsby_spanish.wav,,,,,,,,,0,1,1,0,0,97,97,163,808.823925189,9.30111855268e-06,809.579709736,0.755794169148,,,,,x,1,0.733797446359,2018_Nov_14_1534,59.9827049621,spanish_cond2,001,1028,
images\lamp04b.jpg,parking meter,x,sounds\greatgatsby_spanish.wav,,,,,,,,,0,1,1,0,0,98,98,209,810.700924238,9.30111855268e-06,811.563627214,0.862712918431,,,,,x,1,0.850545828813,2018_Nov_14_1534,59.9827049621,spanish_cond2,001,1028,
images\parkfountain.jpg,park fountain,z,sounds\greatgatsby_spanish.wav,,,,,,,,,0,1,1,0,0,99,99,93,812.683537321,9.30111855268e-06,813.480757518,0.797230139724,,,,,z,1,0.783765068976,2018_Nov_14_1534,59.9827049621,spanish_cond2,001,1028,
images\knife04.jpg,tooth brush,x,sounds\greatgatsby_spanish.wav,,,,,,,,,0,1,1,0,0,100,100,233,814.578436771,9.94256697595e-06,815.431271306,0.852844798123,,,,,x,1,0.833799723536,2018_Nov_14_1534,59.9827049621,spanish_cond2,001,1028,
images\dryingmachine01.jpg,drying machine,z,sounds\greatgatsby_spanish.wav,,,,,,,,,0,1,1,0,0,101,101,18,816.551495725,9.621726349e-06,817.348517393,0.797031609807,,,,,z,1,0.78386449418,2018_Nov_14_1534,59.9827049621,spanish_cond2,001,1028,
images\apple06.jpg,apple,z,sounds\greatgatsby_spanish.wav,,,,,,,,,0,1,1,0,0,102,102,13,818.475916148,9.62184276432e-06,819.265645131,0.789739246015,,,,,z,1,0.767133463058,2018_Nov_14_1534,59.9827049621,spanish_cond2,001,1028,
images\hat05.jpg,hat,z,sounds\greatgatsby_spanish.wav,,,,,,,,,0,1,1,0,0,103,103,15,820.370019875,9.94256697595e-06,821.516258761,1.14624882815,,,,,z,1,1.13390950824,2018_Nov_14_1534,59.9827049621,spanish_cond2,001,1028,
images\thumbtack02a.jpg,thumb tack,z,sounds\greatgatsby_spanish.wav,,,,,,,,,0,1,1,0,0,104,104,60,822.626759387,1.02631747723e-05,825.350601796,2.72385299287,,,,,z,1,2.70097747887,2018_Nov_14_1534,59.9827049621,spanish_cond2,001,1028,
images\tulip02.jpg,sport shorts,x,sounds\greatgatsby_spanish.wav,,,,,,,,,0,1,1,0,0,105,105,225,826.445144341,1.02631747723e-05,827.45117208,1.00603864307,,,,,x,1,0.983841145295,2018_Nov_14_1534,59.9827049621,spanish_cond2,001,1028,
images\bed.jpg,bed,z,sounds\greatgatsby_spanish.wav,,,,,,,,,0,1,1,0,0,106,106,103,828.570791929,9.62184276432e-06,829.968522595,1.39774124988,,,,,z,1,1.38397116796,2018_Nov_14_1534,59.9827049621,spanish_cond2,001,1028,
images\tissuebox03.jpg,tissue box,z,sounds\greatgatsby_spanish.wav,,,,,,,,,0,1,1,0,0,107,107,58,831.093803912,9.30100213736e-06,831.718977626,0.625183976837,,,,,z,1,0.617082098732,2018_Nov_14_1534,59.9827049621,spanish_cond2,001,1028,
images\egg01b (1).jpg,egg,z,sounds\greatgatsby_spanish.wav,,,,,,,,,0,1,1,0,0,108,108,19,832.83186061,9.30100213736e-06,834.619802824,1.7879521565,,,,,z,1,1.76739357249,2018_Nov_14_1534,59.9827049621,spanish_cond2,001,1028,
images\screwdriver02b.jpg,cola,x,sounds\greatgatsby_spanish.wav,,,,,,,,,0,1,1,0,0,109,109,158,835.713573059,1.02632911876e-05,836.720324357,1.00676252332,,,,,x,1,0.983841786743,2018_Nov_14_1534,59.9827049621,spanish_cond2,001,1028,
images\banjo.jpg,knife,x,sounds\greatgatsby_spanish.wav,,,,,,,,,0,1,1,0,0,110,110,191,837.817182871,9.94256697595e-06,838.570659789,0.753487823182,,,,,x,1,0.733600840787,2018_Nov_14_1534,59.9827049621,spanish_cond2,001,1028,
images\cockroach02.jpg,belt,x,sounds\greatgatsby_spanish.wav,,,,,,,,,0,1,1,0,0,111,111,129,839.668771062,1.05838989839e-05,840.42133006,0.75256958243,,,,,x,1,0.733791993931,2018_Nov_14_1534,59.9827049621,spanish_cond2,001,1028,
images\flipflop01b.jpg,flip flop,z,sounds\greatgatsby_spanish.wav,,,,,,,,,0,1,1,0,0,112,112,27,841.538738178,9.62184276432e-06,842.28850076,0.749772845302,,,,,z,1,0.733792635379,2018_Nov_14_1534,59.9827049621,spanish_cond2,001,1028,
images\peach01.jpg,peach,z,sounds\greatgatsby_spanish.wav,,,,,,,,,0,1,1,0,0,113,113,106,843.417182422,9.62184276432e-06,844.255685924,0.838514085859,,,,,z,1,0.817139893654,2018_Nov_14_1534,59.9827049621,spanish_cond2,001,1028,
images\barrel01.jpg,barrel,z,sounds\greatgatsby_spanish.wav,,,,,,,,,0,1,1,0,0,114,114,9,845.386603372,9.94245056063e-06,846.472943332,1.08635054342,,,,,z,1,1.06719513889,2018_Nov_14_1534,59.9827049621,spanish_cond2,001,1028,
images\toothbrush03a.jpg,parrot,x,sounds\greatgatsby_spanish.wav,,,,,,,,,0,1,1,0,0,115,115,210,847.565837984,9.30111855268e-06,848.406818137,0.840990096331,,,,,x,1,0.817153684911,2018_Nov_14_1534,59.9827049621,spanish_cond2,001,1028,
images\gluestick.jpg,squirrel,x,sounds\greatgatsby_spanish.wav,,,,,,,,,0,1,1,0,0,116,116,226,849.515127558,9.62184276432e-06,850.70741671,1.19229941512,,,,,x,1,1.18390567554,2018_Nov_14_1534,59.9827049621,spanish_cond2,001,1028,
images\hairband.jpg,hairband,z,sounds\greatgatsby_spanish.wav,,,,,,,,,0,1,1,0,0,117,117,66,851.817602702,9.94245056063e-06,852.657938516,0.840346397716,,,,,z,1,0.81713732786,2018_Nov_14_1534,59.9827049621,spanish_cond2,001,1028,
images\parkingmeter.jpg,ear,x,sounds\greatgatsby_spanish.wav,,,,,,,,,0,1,1,0,0,118,118,171,853.760094473,9.30100213736e-06,854.591798889,0.831714358181,,,,,x,1,0.817128347466,2018_Nov_14_1534,59.9827049621,spanish_cond2,001,1028,
images\graduationcap.jpg,graduation cap,z,sounds\greatgatsby_spanish.wav,,,,,,,,,0,1,1,0,0,119,119,35,855.69503345,9.62184276432e-06,856.425630044,0.730606535915,,,,,z,1,0.717109392514,2018_Nov_14_1534,59.9827049621,spanish_cond2,001,1028,
images\triangleruler02.jpg,bottle of red wine,x,sounds\greatgatsby_spanish.wav,,,,,,,,,0,1,1,0,0,120,120,134,857.53572078,9.62184276432e-06,858.909622412,1.37391157367,,,,,x,1,1.3506175112,2018_Nov_14_1534,59.9827049621,spanish_cond2,001,1028,
images\donut.jpg,rhinoceros,x,sounds\greatgatsby_spanish.wav,,,,,,,,,0,1,1,0,0,121,121,216,860.036111907,9.62184276432e-06,861.026864072,0.990762749105,,,,,x,1,0.967180032516,2018_Nov_14_1534,59.9827049621,spanish_cond2,001,1028,
images\djmixer01.jpg,light bulb,x,sounds\greatgatsby_spanish.wav,,,,,,,,,0,1,1,0,0,122,122,196,862.149035944,9.94256697595e-06,863.17751295,1.02848726988,,,,,x,1,1.01725477795,2018_Nov_14_1534,59.9827049621,spanish_cond2,001,1028,
images\eyedrops.jpg,bicycle,x,sounds\greatgatsby_spanish.wav,,,,,,,,,0,1,1,0,0,123,123,131,864.278186188,9.621726349e-06,865.011255584,0.733079980593,,,,,x,1,0.717016702518,2018_Nov_14_1534,59.9827049621,spanish_cond2,001,1028,
images\paintbrush03a.jpg,paint brush,z,sounds\greatgatsby_spanish.wav,,,,,,,,,0,1,1,0,0,124,124,0,866.111735424,9.94256697595e-06,867.061821362,0.950096201967,,,,,z,1,0.933838242665,2018_Nov_14_1534,59.9827049621,spanish_cond2,001,1028,
images\mitten01.jpg,mitten,z,sounds\greatgatsby_spanish.wav,,,,,,,,,0,1,1,0,0,125,125,102,868.18291014,9.62184276432e-06,869.112363406,0.929463530076,,,,,z,1,0.917161735008,2018_Nov_14_1534,59.9827049621,spanish_cond2,001,1028,
images\ruler02b.jpg,watermelon,x,sounds\greatgatsby_spanish.wav,,,,,,,,,0,1,1,0,0,126,126,238,870.215726579,9.94256697595e-06,871.062899325,0.847183329635,,,,,x,1,0.833812552504,2018_Nov_14_1534,59.9827049621,spanish_cond2,001,1028,
images\birthdaycandle.jpg,birthday candle,z,sounds\greatgatsby_spanish.wav,,,,,,,,,0,1,1,0,0,127,127,55,872.159977216,9.30100213736e-06,873.997016279,1.83704932674,,,,,z,1,1.81741186988,2018_Nov_14_1534,59.9827049621,spanish_cond2,001,1028,
images\butterfly.jpg,butterfly,z,sounds\greatgatsby_spanish.wav,,,,,,,,,0,1,1,0,0,128,128,91,875.10348537,1.02632911876e-05,877.047828375,1.94435358967,,,,,z,1,1.93408103299,2018_Nov_14_1534,59.9827049621,spanish_cond2,001,1028,
images\lighter02b.jpg,stapler,x,sounds\greatgatsby_spanish.wav,,,,,,,,,0,1,1,0,0,129,129,227,878.150255026,9.30111855268e-06,878.881669472,0.731424709898,,,,,x,1,0.717105864547,2018_Nov_14_1534,59.9827049621,spanish_cond2,001,1028,
images\seagull.jpg,seagull,z,sounds\greatgatsby_spanish.wav,,,,,,,,,0,1,1,0,0,130,130,50,879.989407037,9.62184276432e-06,880.732176814,0.742780040135,,,,,z,1,0.73380514374,2018_Nov_14_1534,59.9827049621,spanish_cond2,001,1028,
images\pen03c.jpg,pepper,x,sounds\greatgatsby_spanish.wav,,,,,,,,,0,1,1,0,0,131,131,211,881.826646555,9.94256697595e-06,882.749376748,0.92274077679,,,,,z,0,0.900502867415,2018_Nov_14_1534,59.9827049621,spanish_cond2,001,1028,
images\swan.jpg,swan,z,sounds\greatgatsby_spanish.wav,,,,,,,,,0,1,1,0,0,132,132,54,883.841467338,9.62184276432e-06,884.633326587,0.791869192268,,,,,z,1,0.783918055589,2018_Nov_14_1534,59.9827049621,spanish_cond2,001,1028,
images\redfox.jpg,red fox,z,sounds\greatgatsby_spanish.wav,,,,,,,,,0,1,1,0,0,133,133,1,885.746369614,9.30111855268e-06,887.050517027,1.30415799771,,,,,z,1,1.28393168654,2018_Nov_14_1534,59.9827049621,spanish_cond2,001,1028,
images\lion.jpg,lion,z,sounds\greatgatsby_spanish.wav,,,,,,,,,0,1,1,0,0,134,134,44,888.163945568,9.62184276432e-06,889.701241437,1.53730645345,,,,,z,1,1.51732132875,2018_Nov_14_1534,59.9827049621,spanish_cond2,001,1028,
images\crocodile.jpg,triangle ruler,x,sounds\greatgatsby_spanish.wav,,,,,,,,,0,1,1,0,0,135,135,235,890.799068225,9.62184276432e-06,891.918494355,1.11943639338,,,,,x,1,1.10054206022,2018_Nov_14_1534,59.9827049621,spanish_cond2,001,1028,
images\dice05a.jpg,band aid,x,sounds\greatgatsby_spanish.wav,,,,,,,,,0,1,1,0,0,136,136,126,893.03149729,9.62184276432e-06,894.002384283,0.97089789703,,,,,x,1,0.950508977287,2018_Nov_14_1534,59.9827049621,spanish_cond2,001,1028,
images\swallow.jpg,mattress,x,sounds\greatgatsby_spanish.wav,,,,,,,,,0,1,1,0,0,137,137,202,895.104371217,9.30111855268e-06,896.053158533,0.948807201232,,,,,x,1,0.93401656684,2018_Nov_14_1534,59.9827049621,spanish_cond2,001,1028,
images\stapler03a.jpg,candy cane,x,sounds\greatgatsby_spanish.wav,,,,,,,,,0,1,1,0,0,138,138,145,897.164628074,9.30100213736e-06,898.68700117,1.52238303819,,,,,x,1,1.50067593157,2018_Nov_14_1534,59.9827049621,spanish_cond2,001,1028,
images\shotglass.jpg,shot glass,z,sounds\greatgatsby_spanish.wav,,,,,,,,,0,1,1,0,0,139,139,86,899.794250588,1.02631747723e-05,902.354626916,2.56038691185,,,,,z,1,2.55092868034,2018_Nov_14_1534,59.9827049621,spanish_cond2,001,1028,
images\envelope02a.jpg,grand piano,x,sounds\greatgatsby_spanish.wav,,,,,,,,,0,1,1,0,0,140,140,182,903.476637462,9.62184276432e-06,904.655242487,1.17861528799,,,,,x,1,1.16722948861,2018_Nov_14_1534,59.9827049621,spanish_cond2,001,1028,
images\bull.jpg,button,x,sounds\greatgatsby_spanish.wav,,,,,,,,,0,1,1,0,0,141,141,141,905.761162493,9.94256697595e-06,906.539090656,0.777938746964,,,,,x,1,0.767113257316,2018_Nov_14_1534,59.9827049621,spanish_cond2,001,1028,
images\panda.jpg,panda,z,sounds\greatgatsby_spanish.wav,,,,,,,,,0,1,1,0,0,142,142,83,907.648806784,9.94256697595e-06,909.439875443,1.7910786008,,,,,z,1,1.76738042256,2018_Nov_14_1534,59.9827049621,spanish_cond2,001,1028,
images\watermelon01.jpg,orange,x,sounds\greatgatsby_spanish.wav,,,,,,,,,0,1,1,0,0,143,143,207,910.569496193,9.94256697595e-06,911.407084982,0.837598731741,,,,,x,1,0.817152722739,2018_Nov_14_1534,59.9827049621,spanish_cond2,001,1028,
images\diaper01a.jpg,camera,x,sounds\greatgatsby_spanish.wav,,,,,,,,,0,1,1,0,0,144,144,143,912.527690745,9.62184276432e-06,914.257828699,1.73014853813,,,,,x,1,1.7173755957,2018_Nov_14_1534,59.9827049621,spanish_cond2,001,1028,
images\mattress.jpg,cat,x,sounds\greatgatsby_spanish.wav,,,,,,,,,0,1,1,0,0,145,145,147,915.362741944,9.94256697595e-06,916.158345679,0.795613997732,,,,,x,1,0.783796179458,2018_Nov_14_1534,59.9827049621,spanish_cond2,001,1028,
images\broadsword.jpg,teapot,x,sounds\greatgatsby_spanish.wav,,,,,,,,,0,1,1,0,0,146,146,231,917.251521287,9.94256697595e-06,918.075521846,0.824010501965,,,,,x,1,0.800460178754,2018_Nov_14_1534,59.9827049621,spanish_cond2,001,1028,
images\orange.jpg,bat,x,sounds\greatgatsby_spanish.wav,,,,,,,,,0,1,1,0,0,147,147,128,919.200777506,9.30100213736e-06,920.559541476,1.35877455445,,,,,x,1,1.3339628129,2018_Nov_14_1534,59.9827049621,spanish_cond2,001,1028,
images\lipstick04.jpg,lipstick,z,sounds\greatgatsby_spanish.wav,,,,,,,,,0,1,1,0,0,148,148,56,921.65941418,9.30111855268e-06,922.576746862,0.917342945701,,,,,z,1,0.900502867415,2018_Nov_14_1534,59.9827049621,spanish_cond2,001,1028,
images\camera01a.jpg,bull,x,sounds\greatgatsby_spanish.wav,,,,,,,,,0,1,1,0,0,149,149,138,923.688038079,9.30111855268e-06,925.077418624,1.38939016697,,,,,x,1,1.36729305668,2018_Nov_14_1534,59.9827049621,spanish_cond2,001,1028,
images\parkbench03.jpg,park bench,z,sounds\greatgatsby_spanish.wav,,,,,,,,,0,1,1,0,0,150,150,71,926.183578855,9.62184276432e-06,927.39470493,1.21113633807,,,,,z,1,1.20058186236,2018_Nov_14_1534,59.9827049621,spanish_cond2,001,1028,
images\remotecontrol01c.jpg,remote control,z,sounds\greatgatsby_spanish.wav,,,,,,,,,0,1,1,0,0,151,151,85,928.50529151,9.94245056063e-06,929.712006951,1.2067257039,,,,,z,1,1.18392203259,2018_Nov_14_1534,59.9827049621,spanish_cond2,001,1028,
images\giraffe.jpg,lettuce,x,sounds\greatgatsby_spanish.wav,,,,,,,,,0,1,1,0,0,152,152,195,930.813610296,9.62184276432e-06,932.496075748,1.68247571541,,,,,x,1,1.66737269319,2018_Nov_14_1534,59.9827049621,spanish_cond2,001,1028,
images\electrictoothbrush01a.jpg,banjo,x,sounds\greatgatsby_spanish.wav,,,,,,,,,0,1,1,0,0,153,153,127,933.591383868,9.62184276432e-06,935.730278753,2.13890514791,,,,,x,1,2.11749214772,2018_Nov_14_1534,59.9827049621,spanish_cond2,001,1028,
images\candy.jpg,candy,z,sounds\greatgatsby_spanish.wav,,,,,,,,,0,1,1,0,0,154,154,31,936.832813489,9.30111855268e-06,939.281235016,2.44843179057,,,,,z,1,2.43424957478,2018_Nov_14_1534,59.9827049621,spanish_cond2,001,1028,
images\backpack01b.jpg,swallow,x,sounds\greatgatsby_spanish.wav,,,,,,,,,0,1,1,0,0,155,155,228,940.412651515,9.62184276432e-06,941.948615407,1.5359741546,,,,,x,1,1.51732100802,2018_Nov_14_1534,59.9827049621,spanish_cond2,001,1028,
images\cat.jpg,black olive,x,sounds\greatgatsby_spanish.wav,,,,,,,,,0,1,1,0,0,156,156,133,943.079319251,9.94256697595e-06,943.84911635,0.769807361881,,,,,x,1,0.75044829573,2018_Nov_14_1534,59.9827049621,spanish_cond2,001,1028,
images\dreamcatcher.jpg,dream catcher,z,sounds\greatgatsby_spanish.wav,,,,,,,,,0,1,1,0,0,157,157,48,944.949377774,9.62184276432e-06,945.749630443,0.800263252459,,,,,z,1,0.783794254996,2018_Nov_14_1534,59.9827049621,spanish_cond2,001,1028,
images\gps.jpg,gps,z,sounds\greatgatsby_spanish.wav,,,,,,,,,0,1,1,0,0,158,158,21,946.868048208,9.62184276432e-06,948.583722348,1.71568440367,,,,,z,1,1.7007035783,2018_Nov_14_1534,59.9827049621,spanish_cond2,001,1028,
images\lettuce.jpg,mushroom,x,sounds\greatgatsby_spanish.wav,,,,,,,,,0,1,1,0,0,159,159,205,949.707714023,9.94256697595e-06,950.484234196,0.776531398064,,,,,x,1,0.767118709628,2018_Nov_14_1534,59.9827049621,spanish_cond2,001,1028,
images\bullet (2).jpg,rubber glove,x,sounds\greatgatsby_spanish.wav,,,,,,,,,0,1,1,0,0,160,160,217,951.589572404,9.62184276432e-06,953.0182532,1.42869073898,,,,,x,1,1.41730173235,2018_Nov_14_1534,59.9827049621,spanish_cond2,001,1028,
images\globe.jpg,cloud,x,sounds\greatgatsby_spanish.wav,,,,,,,,,0,1,1,0,0,161,161,154,954.146426511,1.02632911876e-05,955.585618164,1.43920223718,,,,,x,1,1.41731231636,2018_Nov_14_1534,59.9827049621,spanish_cond2,001,1028,
images\raisin.jpg,ruler,x,sounds\greatgatsby_spanish.wav,,,,,,,,,0,1,1,0,0,162,162,218,956.692076991,9.94245056063e-06,957.50278471,0.810718623456,,,,,x,1,0.800463706721,2018_Nov_14_1534,59.9827049621,spanish_cond2,001,1028,
images\mushroom01.jpg,shower head,x,sounds\greatgatsby_spanish.wav,,,,,,,,,0,1,1,0,0,163,163,222,958.620037275,9.94256697595e-06,960.003453586,1.38342657394,,,,,x,1,1.36727990687,2018_Nov_14_1534,59.9827049621,spanish_cond2,001,1028,
images\cactus.jpg,cactus,z,sounds\greatgatsby_spanish.wav,,,,,,,,,0,1,1,0,0,164,164,70,961.115794541,9.62184276432e-06,962.004005236,0.888220957713,,,,,z,1,0.867161398404,2018_Nov_14_1534,59.9827049621,spanish_cond2,001,1028,
images\fryingpan01.jpg,frying pan,z,sounds\greatgatsby_spanish.wav,,,,,,,,,0,1,1,0,0,165,165,45,963.104936337,9.30100213736e-06,964.78808173,1.68315565598,,,,,z,1,1.66736692004,2018_Nov_14_1534,59.9827049621,spanish_cond2,001,1028,
images\honeycomb.jpg,honey comb,z,sounds\greatgatsby_spanish.wav,,,,,,,,,0,1,1,0,0,166,166,59,965.901849599,9.62184276432e-06,967.305418133,1.40357943869,,,,,z,1,1.38394903776,2018_Nov_14_1534,59.9827049621,spanish_cond2,001,1028,
images\mailbox01.jpg,mail box,z,sounds\greatgatsby_spanish.wav,,,,,,,,,0,1,1,0,0,167,167,73,968.425405535,1.02631747723e-05,969.155929644,0.730534051661,,,,,z,1,0.717119655805,2018_Nov_14_1534,59.9827049621,spanish_cond2,001,1028,
images\sportshorts02.jpg,tape,x,sounds\greatgatsby_spanish.wav,,,,,,,,,0,1,1,0,0,168,168,230,970.264249969,9.30100213736e-06,971.706610723,1.4423710173,,,,,x,1,1.4339808058,2018_Nov_14_1534,59.9827049621,spanish_cond2,001,1028,
images\bowlingball.jpg,bowling ball,z,sounds\greatgatsby_spanish.wav,,,,,,,,,0,1,1,0,0,169,169,20,972.838907938,9.94256697595e-06,974.12391855,1.28502151591,,,,,z,1,1.26725389587,2018_Nov_14_1534,59.9827049621,spanish_cond2,001,1028,
images\headphones02b.jpg,headphones,z,sounds\greatgatsby_spanish.wav,,,,,,,,,0,1,1,0,0,170,170,101,975.232352091,9.94245056063e-06,976.124462823,0.892121315468,,,,,z,1,0.883825718309,2018_Nov_14_1534,59.9827049621,spanish_cond2,001,1028,
images\weight01.jpg,weight,z,sounds\greatgatsby_spanish.wav,,,,,,,,,0,1,1,0,0,171,171,67,977.229267341,9.621726349e-06,978.008299767,0.779042688431,,,,,z,1,0.767059375066,2018_Nov_14_1534,59.9827049621,spanish_cond2,001,1028,
images\gorilla.jpg,gorilla,z,sounds\greatgatsby_spanish.wav,,,,,,,,,0,1,1,0,0,172,172,80,979.120037756,1.02631747723e-05,980.992442716,1.87241522304,,,,,z,1,1.85075430118,2018_Nov_14_1534,59.9827049621,spanish_cond2,001,1028,
images\blueberry02.jpg,blueberry,z,sounds\greatgatsby_spanish.wav,,,,,,,,,0,1,1,0,0,173,173,46,982.106188455,9.30100213736e-06,983.476454327,1.37027581537,,,,,z,1,1.35062200145,2018_Nov_14_1534,59.9827049621,spanish_cond2,001,1028,
images\desktopcomputer.jpg,desktop computer,z,sounds\greatgatsby_spanish.wav,,,,,,,,,0,1,1,0,0,174,174,16,984.61323017,9.94256697595e-06,987.610719201,2.99750025582,,,,,None,0,,2018_Nov_14_1534,59.9827049621,spanish_cond2,001,1028,
images\highlighter03b.jpg,coin,x,sounds\greatgatsby_spanish.wav,,,,,,,,,0,1,1,0,0,175,175,156,988.71306599,9.621726349e-06,991.711816118,2.99876103259,,,,,None,0,,2018_Nov_14_1534,59.9827049621,spanish_cond2,001,1028,
images\carrot02.jpg,corkscrew,x,sounds\greatgatsby_spanish.wav,,,,,,,,,0,1,1,0,0,176,176,161,992.81494035,8.98039434105e-06,994.179329226,1.36439881858,,,,,z,0,1.35062264279,2018_Nov_14_1534,59.9827049621,spanish_cond2,001,1028,
images\comb02a.jpg,diploma,x,sounds\greatgatsby_spanish.wav,,,,,,,,,0,1,1,0,0,177,177,166,995.284122519,9.94256697595e-06,998.180395001,2.89628306567,,,,,x,1,2.88437159522,2018_Nov_14_1534,59.9827049621,spanish_cond2,001,1028,
images\sunglasses03a.jpg,sun glasses,z,sounds\greatgatsby_spanish.wav,,,,,,,,,0,1,1,0,0,178,178,17,999.289240997,9.621726349e-06,1000.28099928,0.991768548149,,,,,z,1,0.967223651474,2018_Nov_14_1534,59.9827049621,spanish_cond2,001,1028,
images\axe01.jpg,axe,z,sounds\greatgatsby_spanish.wav,,,,,,,,,0,1,1,0,0,179,179,104,1001.38489839,9.62184276432e-06,1002.88166851,1.49678102613,,,,,z,1,1.48399493389,2018_Nov_14_1534,59.9827049621,spanish_cond2,001,1028,
images\ear.jpg,bullet,x,sounds\greatgatsby_spanish.wav,,,,,,,,,0,1,1,0,0,180,180,139,1003.98555222,9.30100213736e-06,1004.84885464,0.863312036032,,,,,x,1,0.850461477763,2018_Nov_14_1534,59.9827049621,spanish_cond2,001,1028,
images\puma.jpg,puma,z,sounds\greatgatsby_spanish.wav,,,,,,,,,0,1,1,0,0,181,181,4,1005.94779146,9.621726349e-06,1007.48289933,1.53511813481,,,,,x,0,1.51733704435,2018_Nov_14_1534,59.9827049621,spanish_cond2,001,1028,
images\lantern03.jpg,lantern,z,sounds\greatgatsby_spanish.wav,,,,,,,,,0,1,1,0,0,182,182,5,1008.58971833,9.62184276432e-06,1011.58383781,2.99413070071,,,,,None,0,,2018_Nov_14_1534,59.9827049621,spanish_cond2,001,1028,
images\beermug01b.jpg,beer mug,z,sounds\greatgatsby_spanish.wav,,,,,,,,,0,1,1,0,0,183,183,111,1012.70119557,8.98039434105e-06,1013.85126137,1.15007509827,,,,,z,1,1.13387615269,2018_Nov_14_1534,59.9827049621,spanish_cond2,001,1028,
images\pipe.jpg,icecube,x,sounds\greatgatsby_spanish.wav,,,,,,,,,0,1,1,0,0,184,184,188,1014.96086139,9.94256697595e-06,1016.31859712,1.35774598375,,,,,x,1,1.33393106109,2018_Nov_14_1534,59.9827049621,spanish_cond2,001,1028,
images\parrot01.jpg,chameleon,x,sounds\greatgatsby_spanish.wav,,,,,,,,,0,1,1,0,0,185,185,150,1017.43245832,9.62184276432e-06,1018.18576878,0.753320083139,,,,,x,1,0.73378814524,2018_Nov_14_1534,59.9827049621,spanish_cond2,001,1028,
images\cola.jpg,comb,x,sounds\greatgatsby_spanish.wav,,,,,,,,,0,1,1,0,0,186,186,157,1019.30720298,9.94245056063e-06,1020.48638467,1.17919227527,,,,,x,1,1.1672240363,2018_Nov_14_1534,59.9827049621,spanish_cond2,001,1028,
images\gamecontroller01.jpg,game controller,z,sounds\greatgatsby_spanish.wav,,,,,,,,,0,1,1,0,0,187,187,112,1021.60730282,9.94256697595e-06,1023.77060212,2.16330988717,,,,,z,1,2.15082752309,2018_Nov_14_1534,59.9827049621,spanish_cond2,001,1028,
images\atm.jpg,atm,z,sounds\greatgatsby_spanish.wav,,,,,,,,,0,1,1,0,0,188,188,96,1024.90864003,9.62184276432e-06,1025.72113548,0.81250603369,,,,,z,1,0.800479101599,2018_Nov_14_1534,59.9827049621,spanish_cond2,001,1028,
images\lily.jpg,kiwi,x,sounds\greatgatsby_spanish.wav,,,,,,,,,0,1,1,0,0,189,189,190,1026.82121088,9.62184276432e-06,1027.65496955,0.833768612938,,,,,x,1,0.817107179435,2018_Nov_14_1534,59.9827049621,spanish_cond2,001,1028,
images\doorhandle.jpg,doll,x,sounds\greatgatsby_spanish.wav,,,,,,,,,0,1,1,0,0,190,190,168,1028.75835742,9.62184276432e-06,1029.78890215,1.0305553159,,,,,z,0,1.0171967264,2018_Nov_14_1534,59.9827049621,spanish_cond2,001,1028,
images\button07.jpg,radish,x,sounds\greatgatsby_spanish.wav,,,,,,,,,0,1,1,0,0,191,191,215,1030.90130212,9.62184276432e-06,1032.12285566,1.22156380583,,,,,x,1,1.20058827696,2018_Nov_14_1534,59.9827049621,spanish_cond2,001,1028,
images\apricot.jpg,apricot,z,sounds\greatgatsby_spanish.wav,,,,,,,,,0,1,1,0,0,192,192,32,1033.24015409,9.62184276432e-06,1034.57350207,1.33335792238,,,,,z,1,1.31726994831,2018_Nov_14_1534,59.9827049621,spanish_cond2,001,1028,
images\medal01.jpg,medal,z,sounds\greatgatsby_spanish.wav,,,,,,,,,0,1,1,0,0,193,193,115,1035.67498194,8.98027792573e-06,1038.10778664,2.43281496409,,,,,z,1,2.41756504891,2018_Nov_14_1534,59.9827049621,spanish_cond2,001,1028,
images\toucan.jpg,toucan,z,sounds\greatgatsby_spanish.wav,,,,,,,,,0,1,1,0,0,194,194,81,1039.20860035,9.94245056063e-06,1040.79184257,1.58325280412,,,,,z,1,1.56734122988,2018_Nov_14_1534,59.9827049621,spanish_cond2,001,1028,
images\lollipop03b.jpg,lollipop,z,sounds\greatgatsby_spanish.wav,,,,,,,,,0,1,1,0,0,195,195,42,1041.88537034,9.30100213736e-06,1042.67568016,0.790319440654,,,,,z,1,0.76712223771,2018_Nov_14_1534,59.9827049621,spanish_cond2,001,1028,
images\calculator02b.jpg,dice,x,sounds\greatgatsby_spanish.wav,,,,,,,,,0,1,1,0,0,196,196,165,1043.77785664,9.30111855268e-06,1044.57620997,0.798363267328,,,,,x,1,0.783810932888,2018_Nov_14_1534,59.9827049621,spanish_cond2,001,1028,
images\nailclipper03a.jpg,aquarium,x,sounds\greatgatsby_spanish.wav,,,,,,,,,0,1,1,0,0,197,197,123,1045.67564039,9.94256697595e-06,1048.67715005,3.00152024475,,,,,None,0,,2018_Nov_14_1534,59.9827049621,spanish_cond2,001,1028,
images\drink.jpg,drink,z,sounds\greatgatsby_spanish.wav,,,,,,,,,0,1,1,0,0,198,198,117,1049.77874666,9.62184276432e-06,1052.77824985,2.99951409898,,,,,None,0,,2018_Nov_14_1534,59.9827049621,spanish_cond2,001,1028,
,,,sounds\greatgatsby_spanish.wav,,,,,,,,,0,1,1,0,,,,,,,,,,,,,,,,2018_Nov_14_1534,59.9827049621,spanish_cond2,001,1028,
