images,name,corrAns,sounds,trials_3.thisRepN,trials_3.thisTrialN,trials_3.thisN,trials_3.thisIndex,trials_4.thisRepN,trials_4.thisTrialN,trials_4.thisN,trials_4.thisIndex,trials_2.thisRepN,trials_2.thisTrialN,trials_2.thisN,trials_2.thisIndex,trials.thisRepN,trials.thisTrialN,trials.thisN,trials.thisIndex,begin_global,begin_routine,end_global,end_routine,key_resp_2.keys,key_resp_2.corr,key_resp_2.rt,begin_book,key_resp_1.keys,key_resp_1.corr,key_resp_1.rt,date,frameRate,expName,session,participant,
images/volleyball.jpg,volley ball,z,,0,0,0,0,,,,,,,,,,,,,,,,,,,,,,,,2018_Nov_14_1535,59.9805890722,spanish_cond2,001,1030,
images/puma.jpg,puma,z,,,,,,0,0,0,0,,,,,,,,,48.1510213285,1.12256966531e-05,49.960667139,1.80965767766,z,1,1.80078906915,,,,,2018_Nov_14_1535,59.9805890722,spanish_cond2,001,1030,
images/broom02.jpg,broom,z,sounds/greatgatsby_spanish.wav,,,,,,,,,0,0,0,0,0,0,0,116,92.1064120767,8.98051075637e-06,94.5069498189,2.40054768499,,,,81.958424248,z,1,2.38420020719,2018_Nov_14_1535,59.9805890722,spanish_cond2,001,1030,
images/gamecontroller01.jpg,game controller,z,sounds/greatgatsby_spanish.wav,,,,,,,,,0,0,0,0,0,1,1,112,95.6316738677,8.98051075637e-06,96.9243103664,1.29264644138,,,,,z,1,1.28393082286,2018_Nov_14_1535,59.9805890722,spanish_cond2,001,1030,
images/bicycle.jpg,hand bag,x,sounds/greatgatsby_spanish.wav,,,,,,,,,0,0,0,0,0,2,2,186,98.0377381729,9.94279980659e-06,99.0749224386,1.0371945292,,,,,x,1,1.01718138542,2018_Nov_14_1535,59.9805890722,spanish_cond2,001,1030,
images/toucan.jpg,toucan,z,sounds/greatgatsby_spanish.wav,,,,,,,,,0,0,0,0,0,3,3,81,100.177728185,9.30123496801e-06,101.075509061,0.89779113885,,,,,z,1,0.883843390853,2018_Nov_14_1535,59.9805890722,spanish_cond2,001,1030,
images/leek.jpg,donut,x,sounds/greatgatsby_spanish.wav,,,,,,,,,0,0,0,0,0,4,4,169,102.176385915,9.30135138333e-06,103.209783598,1.03340858826,,,,,x,1,1.0174758191,2018_Nov_14_1535,59.9805890722,spanish_cond2,001,1030,
images/candycane01a.jpg,lip,x,sounds/greatgatsby_spanish.wav,,,,,,,,,0,0,0,0,0,5,5,200,104.302137594,9.94279980659e-06,105.910264153,1.60813682247,,,,,x,1,1.58405260544,2018_Nov_14_1535,59.9805890722,spanish_cond2,001,1030,
images/seagull.jpg,seagull,z,sounds/greatgatsby_spanish.wav,,,,,,,,,0,0,0,0,0,6,6,50,107.018034858,9.62207559496e-06,108.127575372,1.10955109785,,,,,z,1,1.10058242036,2018_Nov_14_1535,59.9805890722,spanish_cond2,001,1030,
images/hairband.jpg,hairband,z,sounds/greatgatsby_spanish.wav,,,,,,,,,0,0,0,0,0,7,7,66,109.235509972,8.9806271717e-06,110.228175753,0.992675403715,,,,,z,1,0.983801663388,2018_Nov_14_1535,59.9805890722,spanish_cond2,001,1030,
images/banjo.jpg,knife,x,sounds/greatgatsby_spanish.wav,,,,,,,,,0,0,0,0,0,8,8,191,111.325478992,9.30135138333e-06,112.09538493,0.769915881217,,,,,x,1,0.750468832557,2018_Nov_14_1535,59.9805890722,spanish_cond2,001,1030,
images/lettuce.jpg,mushroom,x,sounds/greatgatsby_spanish.wav,,,,,,,,,0,0,0,0,0,9,9,205,113.217096968,9.62207559496e-06,114.446059161,1.22897245572,,,,,x,1,1.21719928249,2018_Nov_14_1535,59.9805890722,spanish_cond2,001,1030,
images/cigar.jpg,crocodile,x,sounds/greatgatsby_spanish.wav,,,,,,,,,0,0,0,0,0,10,10,162,115.54410137,9.62195917964e-06,116.596688553,1.05259744613,,,,,x,1,1.03387589718,2018_Nov_14_1535,59.9805890722,spanish_cond2,001,1030,
images/hammer02a.jpg,flower,x,sounds/greatgatsby_spanish.wav,,,,,,,,,0,0,0,0,0,11,11,176,117.691588854,9.30123496801e-06,118.780660782,1.08908155013,,,,,x,1,1.06722065934,2018_Nov_14_1535,59.9805890722,spanish_cond2,001,1030,
images/8ball.jpg,nail clipper,x,sounds/greatgatsby_spanish.wav,,,,,,,,,0,0,0,0,0,12,12,206,119.896677551,9.62195917964e-06,120.781237141,0.884569852729,,,,,x,1,0.867154010804,2018_Nov_14_1535,59.9805890722,spanish_cond2,001,1030,
images/chessknight02b (1).jpg,cockroach,x,sounds/greatgatsby_spanish.wav,,,,,,,,,0,0,0,0,0,13,13,155,121.88808734,9.30135138333e-06,123.031887669,1.14381027187,,,,,x,1,1.13389767508,2018_Nov_14_1535,59.9805890722,spanish_cond2,001,1030,
images/dolphin01.jpg,dolphin,z,sounds/greatgatsby_spanish.wav,,,,,,,,,0,0,0,0,0,14,14,99,124.130826008,9.62195917964e-06,125.465938238,1.33512217226,,,,,z,1,1.31729194243,2018_Nov_14_1535,59.9805890722,spanish_cond2,001,1030,
images/globe.jpg,cloud,x,sounds/greatgatsby_spanish.wav,,,,,,,,,0,0,0,0,0,15,15,154,126.59336543,9.30123496801e-06,127.583222226,0.989867059048,,,,,x,1,0.967199523002,2018_Nov_14_1535,59.9805890722,spanish_cond2,001,1030,
images/pen03c.jpg,pepper,x,sounds/greatgatsby_spanish.wav,,,,,,,,,0,0,0,0,0,16,16,211,128.676896683,9.30135138333e-06,129.500444697,0.823557636351,,,,,x,1,0.800486937864,2018_Nov_14_1535,59.9805890722,spanish_cond2,001,1030,
images/plant01.jpg,plant,z,sounds/greatgatsby_spanish.wav,,,,,,,,,0,0,0,0,0,17,17,47,130.61124794,1.12256966531e-05,131.584372056,0.973135342239,,,,,z,1,0.950509501621,2018_Nov_14_1535,59.9805890722,spanish_cond2,001,1030,
images/50dollarbill.jpg,cherry,x,sounds/greatgatsby_spanish.wav,,,,,,,,,0,0,0,0,0,18,18,151,132.703589748,9.30135138333e-06,133.51827621,0.814697046182,,,,,x,1,0.800482127001,2018_Nov_14_1535,59.9805890722,spanish_cond2,001,1030,
images/lollipop03b.jpg,lollipop,z,sounds/greatgatsby_spanish.wav,,,,,,,,,0,0,0,0,0,19,19,42,134.61167227,9.30135138333e-06,135.435498682,0.823836353957,,,,,z,1,0.800475391559,2018_Nov_14_1535,59.9805890722,spanish_cond2,001,1030,
images/saltshaker03c.jpg,salt shaker,z,sounds/greatgatsby_spanish.wav,,,,,,,,,0,0,0,0,0,20,20,63,136.547048913,9.30123496801e-06,137.269367266,0.722328295931,,,,,z,1,0.700453613768,2018_Nov_14_1535,59.9805890722,spanish_cond2,001,1030,
images/binder03b.jpg,dj mixer,x,sounds/greatgatsby_spanish.wav,,,,,,,,,0,0,0,0,0,21,21,167,138.381939996,9.62195917964e-06,139.786760817,1.40483108396,,,,,x,1,1.38398723991,2018_Nov_14_1535,59.9805890722,spanish_cond2,001,1030,
images/broadsword.jpg,teapot,x,sounds/greatgatsby_spanish.wav,,,,,,,,,0,0,0,0,0,22,22,231,140.879478525,9.62207559496e-06,141.80406344,0.924595498596,,,,,x,1,0.900560995331,2018_Nov_14_1535,59.9805890722,spanish_cond2,001,1030,
images/eraser.jpg,eraser,z,sounds/greatgatsby_spanish.wav,,,,,,,,,0,0,0,0,0,23,23,110,142.910563718,9.30123496801e-06,143.63788199,0.727328855661,,,,,z,1,0.717117976397,2018_Nov_14_1535,59.9805890722,spanish_cond2,001,1030,
images/hand01a.jpg,cupcake,x,sounds/greatgatsby_spanish.wav,,,,,,,,,0,0,0,0,0,24,24,163,144.749379621,8.98051075637e-06,145.588461091,0.839090771158,,,,,x,1,0.817173110554,2018_Nov_14_1535,59.9805890722,spanish_cond2,001,1030,
images/icecube02 (2).jpg,aloe,x,sounds/greatgatsby_spanish.wav,,,,,,,,,0,0,0,0,0,25,25,122,146.698766554,9.62195917964e-06,148.255884261,1.55712861195,,,,,x,1,1.53403033048,2018_Nov_14_1535,59.9805890722,spanish_cond2,001,1030,
images/mitten01.jpg,mitten,z,sounds/greatgatsby_spanish.wav,,,,,,,,,0,0,0,0,0,26,26,102,149.376849952,9.62207559496e-06,150.689924246,1.3130845573,,,,,z,1,1.30060737347,2018_Nov_14_1535,59.9805890722,spanish_cond2,001,1030,
images/bat.jpg,hand,x,sounds/greatgatsby_spanish.wav,,,,,,,,,0,0,0,0,0,27,27,185,151.788649297,9.62195917964e-06,152.757193336,0.968554302352,,,,,x,1,0.950518482132,2018_Nov_14_1535,59.9805890722,spanish_cond2,001,1030,
images/orange.jpg,bat,x,sounds/greatgatsby_spanish.wav,,,,,,,,,0,0,0,0,0,28,28,128,153.882183273,9.62207559496e-06,155.10788649,1.22571380099,,,,,x,1,1.2172836354,2018_Nov_14_1535,59.9805890722,spanish_cond2,001,1030,
images/hanger02a.jpg,hanger,z,sounds/greatgatsby_spanish.wav,,,,,,,,,0,0,0,0,0,29,29,88,156.200507016,9.30135138333e-06,157.658789019,1.4582919454,,,,,z,1,1.4341631463,2018_Nov_14_1535,59.9805890722,spanish_cond2,001,1030,
images/pepper05a.jpg,lighter,x,sounds/greatgatsby_spanish.wav,,,,,,,,,0,0,0,0,0,30,30,198,158.77910811,9.62195917964e-06,159.542515662,0.763417815673,,,,,x,1,0.75048358622,2018_Nov_14_1535,59.9805890722,spanish_cond2,001,1030,
images/swan.jpg,swan,z,sounds/greatgatsby_spanish.wav,,,,,,,,,0,0,0,0,0,31,31,54,160.634085465,9.30123496801e-06,161.693141847,1.05906600412,,,,,z,1,1.05056656012,2018_Nov_14_1535,59.9805890722,spanish_cond2,001,1030,
images/desktopcomputer.jpg,desktop computer,z,sounds/greatgatsby_spanish.wav,,,,,,,,,0,0,0,0,0,32,32,16,162.828622343,9.62195917964e-06,164.110489244,1.28187748545,,,,,z,1,1.26727415773,2018_Nov_14_1535,59.9805890722,spanish_cond2,001,1030,
images/weight01.jpg,weight,z,sounds/greatgatsby_spanish.wav,,,,,,,,,0,0,0,0,0,33,33,67,165.214580492,9.62207559496e-06,166.294478152,1.07990792382,,,,,x,0,1.06722835696,2018_Nov_14_1535,59.9805890722,spanish_cond2,001,1030,
images/feather03b.jpg,feather,z,sounds/greatgatsby_spanish.wav,,,,,,,,,0,0,0,0,0,34,34,114,167.394717708,8.98051075637e-06,168.17835522,0.783647454577,,,,,z,1,0.767156929593,2018_Nov_14_1535,59.9805890722,spanish_cond2,001,1030,
images/handbag02a.jpg,candle,x,sounds/greatgatsby_spanish.wav,,,,,,,,,0,0,0,0,0,35,35,144,169.293847269,9.62207559496e-06,170.395666759,1.10183007468,,,,,x,1,1.08390875638,2018_Nov_14_1535,59.9805890722,spanish_cond2,001,1030,
images/lighter02b.jpg,stapler,x,sounds/greatgatsby_spanish.wav,,,,,,,,,0,0,0,0,0,36,36,227,171.497068013,9.62207559496e-06,172.446252884,0.949194814079,,,,,x,1,0.933856685297,2018_Nov_14_1535,59.9805890722,spanish_cond2,001,1030,
images/parrot01.jpg,chameleon,x,sounds/greatgatsby_spanish.wav,,,,,,,,,0,0,0,0,0,37,37,150,173.559844906,9.30123496801e-06,174.413339829,0.853505507461,,,,,x,1,0.83367935149,2018_Nov_14_1535,59.9805890722,spanish_cond2,001,1030,
images/squirrel.jpg,binder,x,sounds/greatgatsby_spanish.wav,,,,,,,,,0,0,0,0,0,38,38,132,175.516275794,9.30123496801e-06,176.180681502,0.664415329695,,,,,x,1,0.650448337663,2018_Nov_14_1535,59.9805890722,spanish_cond2,001,1030,
images/gps.jpg,gps,z,sounds/greatgatsby_spanish.wav,,,,,,,,,0,0,0,0,0,39,39,21,177.298607278,9.94279980659e-06,178.231249345,0.932652009418,,,,,z,1,0.917170833331,2018_Nov_14_1535,59.9805890722,spanish_cond2,001,1030,
images/mushroom01.jpg,shower head,x,sounds/greatgatsby_spanish.wav,,,,,,,,,0,0,0,0,0,40,40,222,179.347489665,9.62195917964e-06,180.281856317,0.934376594611,,,,,x,1,0.917176927323,2018_Nov_14_1535,59.9805890722,spanish_cond2,001,1030,
images/magnifyingglass01b.jpg,magnifying glass,z,sounds/greatgatsby_spanish.wav,,,,,,,,,0,0,0,0,0,41,41,64,181.388225095,9.30123496801e-06,182.199089373,0.810874541407,,,,,z,1,0.800460317056,2018_Nov_14_1535,59.9805890722,spanish_cond2,001,1030,
images/cactus.jpg,cactus,z,sounds/greatgatsby_spanish.wav,,,,,,,,,0,0,0,0,0,42,42,70,183.311111724,8.9806271717e-06,184.132980056,0.821878274553,,,,,z,1,0.800484692794,2018_Nov_14_1535,59.9805890722,spanish_cond2,001,1030,
images/microphone01.jpg,diaper,x,sounds/greatgatsby_spanish.wav,,,,,,,,,0,0,0,0,0,43,43,164,185.231797158,8.98051075637e-06,186.217237771,0.985450876295,,,,,x,1,0.967439431814,2018_Nov_14_1535,59.9805890722,spanish_cond2,001,1030,
images/screwdriver02b.jpg,cola,x,sounds/greatgatsby_spanish.wav,,,,,,,,,0,0,0,0,0,44,44,158,187.310313418,9.94268339127e-06,189.03438426,1.72408110579,,,,,x,1,1.70071789832,2018_Nov_14_1535,59.9805890722,spanish_cond2,001,1030,
images/boxingglove02a.jpg,bracelet,x,sounds/greatgatsby_spanish.wav,,,,,,,,,0,0,0,0,0,45,45,135,190.145355888,9.62207559496e-06,191.068329757,0.92298413231,,,,,x,1,0.90050454624,2018_Nov_14_1535,59.9805890722,spanish_cond2,001,1030,
images/scooter.jpg,pen,x,sounds/greatgatsby_spanish.wav,,,,,,,,,0,0,0,0,0,46,46,212,192.160469182,9.62207559496e-06,193.268962821,1.10850454366,,,,,x,1,1.08389656851,2018_Nov_14_1535,59.9805890722,spanish_cond2,001,1030,
images/notebook02b.jpg,notebook,z,sounds/greatgatsby_spanish.wav,,,,,,,,,0,0,0,0,0,47,47,7,194.374882892,9.30135138333e-06,195.136182582,0.761309632915,,,,,z,1,0.750474284985,2018_Nov_14_1535,59.9805890722,spanish_cond2,001,1030,
images/birthdaycandle.jpg,birthday candle,z,sounds/greatgatsby_spanish.wav,,,,,,,,,0,0,0,0,0,48,48,55,196.233136863,8.98051075637e-06,197.553556921,1.32043000136,,,,,z,1,1.30063271138,2018_Nov_14_1535,59.9805890722,spanish_cond2,001,1030,
images/apple06.jpg,apple,z,sounds/greatgatsby_spanish.wav,,,,,,,,,0,0,0,0,0,49,49,13,198.680258293,9.30123496801e-06,199.270703122,0.590454771533,,,,,z,1,0.567030303879,2018_Nov_14_1535,59.9805890722,spanish_cond2,001,1030,
images/comb02a.jpg,diploma,x,sounds/greatgatsby_spanish.wav,,,,,,,,,0,0,0,0,0,50,50,166,200.37515744,9.30123496801e-06,201.23795268,0.862805502838,,,,,x,1,0.850486761541,2018_Nov_14_1535,59.9805890722,spanish_cond2,001,1030,
images/pingpongpaddle01c (1).jpg,ping pong paddle,z,sounds/greatgatsby_spanish.wav,,,,,,,,,0,0,0,0,0,51,51,10,202.348962795,9.30123496801e-06,203.321907622,0.972955089877,,,,,z,1,0.950552159105,2018_Nov_14_1535,59.9805890722,spanish_cond2,001,1030,
images/remotecontrol01c.jpg,remote control,z,sounds/greatgatsby_spanish.wav,,,,,,,,,0,0,0,0,0,52,52,85,204.431222339,8.98051075637e-06,205.289136973,0.8579239354,,,,,z,1,0.83383522823,2018_Nov_14_1535,59.9805890722,spanish_cond2,001,1030,
images/croissant02b.jpg,croissant,z,sounds/greatgatsby_spanish.wav,,,,,,,,,0,0,0,0,0,53,53,39,206.400616322,8.98051075637e-06,207.206366821,0.805760442046,,,,,z,1,0.783831555746,2018_Nov_14_1535,59.9805890722,spanish_cond2,001,1030,
images/highheelshoe02a.jpg,high heel shoe,z,sounds/greatgatsby_spanish.wav,,,,,,,,,0,0,0,0,0,54,54,75,208.312433789,9.62207559496e-06,209.273635911,0.961212386377,,,,,z,1,0.950547348126,2018_Nov_14_1535,59.9805890722,spanish_cond2,001,1030,
images/djmixer01.jpg,light bulb,x,sounds/greatgatsby_spanish.wav,,,,,,,,,0,0,0,0,0,55,55,196,210.394710972,9.62207559496e-06,211.190845554,0.796145165456,,,,,x,1,0.783778955461,2018_Nov_14_1535,59.9805890722,spanish_cond2,001,1030,
images/radish01.jpg,raisin,x,sounds/greatgatsby_spanish.wav,,,,,,,,,0,0,0,0,0,56,56,214,212.301346665,9.30135138333e-06,213.258122983,0.956786260824,,,,,x,1,0.933868552325,2018_Nov_14_1535,59.9805890722,spanish_cond2,001,1030,
images/lock02a.jpg,lock,z,sounds/greatgatsby_spanish.wav,,,,,,,,,0,0,0,0,0,57,57,65,214.368052867,9.62207559496e-06,215.492087018,1.12404473464,,,,,z,1,1.10057023249,2018_Nov_14_1535,59.9805890722,spanish_cond2,001,1030,
images/scissors04a.jpg,leek,x,sounds/greatgatsby_spanish.wav,,,,,,,,,0,0,0,0,0,58,58,194,216.586059757,9.30123496801e-06,217.44268857,0.856639076024,,,,,x,1,0.83385158563,2018_Nov_14_1535,59.9805890722,spanish_cond2,001,1030,
images/snowman.jpg,globe,x,sounds/greatgatsby_spanish.wav,,,,,,,,,0,0,0,0,0,59,59,180,218.553901068,9.30123496801e-06,219.309869202,0.755978396628,,,,,x,1,0.733791319653,2018_Nov_14_1535,59.9805890722,spanish_cond2,001,1030,
images/coffeepot03b.jpg,coffee pot,z,sounds/greatgatsby_spanish.wav,,,,,,,,,0,0,0,0,0,60,60,107,220.430673563,9.30123496801e-06,221.260440284,0.82977666345,,,,,z,1,0.817157394718,2018_Nov_14_1535,59.9805890722,spanish_cond2,001,1030,
images/donut.jpg,rhinoceros,x,sounds/greatgatsby_spanish.wav,,,,,,,,,0,0,0,0,0,61,61,216,222.385938584,9.30123496801e-06,223.210999499,0.825071178842,,,,,x,1,0.80048693798,2018_Nov_14_1535,59.9805890722,spanish_cond2,001,1030,
images/egg01b (1).jpg,egg,z,sounds/greatgatsby_spanish.wav,,,,,,,,,0,0,0,0,0,62,62,19,224.323348358,9.30123496801e-06,225.028212381,0.704874286777,,,,,z,1,0.683797269361,2018_Nov_14_1535,59.9805890722,spanish_cond2,001,1030,
images/bull.jpg,button,x,sounds/greatgatsby_spanish.wav,,,,,,,,,0,0,0,0,0,63,63,141,226.133880355,8.98051075637e-06,227.062116503,0.928246089956,,,,,x,1,0.917178531061,2018_Nov_14_1535,59.9805890722,spanish_cond2,001,1030,
images/blueberry02.jpg,blueberry,z,sounds/greatgatsby_spanish.wav,,,,,,,,,0,0,0,0,0,64,64,46,228.173968865,8.98051075637e-06,229.029365098,0.8554061756,,,,,z,1,0.833833945217,2018_Nov_14_1535,59.9805890722,spanish_cond2,001,1030,
images/bowtie.jpg,bowtie,z,sounds/greatgatsby_spanish.wav,,,,,,,,,0,0,0,0,0,65,65,89,230.139262268,9.30123496801e-06,231.096848759,0.957596754888,,,,,z,1,0.934080878156,2018_Nov_14_1535,59.9805890722,spanish_cond2,001,1030,
images/tissuebox03.jpg,tissue box,z,sounds/greatgatsby_spanish.wav,,,,,,,,,0,0,0,0,0,66,66,58,232.221604881,9.62207559496e-06,233.897444746,1.67585012887,,,,,z,1,1.66741034132,2018_Nov_14_1535,59.9805890722,spanish_cond2,001,1030,
images/calculator02b.jpg,dice,x,sounds/greatgatsby_spanish.wav,,,,,,,,,0,0,0,0,0,67,67,165,234.998910147,9.62195917964e-06,236.481533916,1.48263403215,,,,,x,1,1.46734593785,2018_Nov_14_1535,59.9805890722,spanish_cond2,001,1030,
images/triangleruler02.jpg,bottle of red wine,x,sounds/greatgatsby_spanish.wav,,,,,,,,,0,0,0,0,0,68,68,134,237.592977342,9.30135138333e-06,238.632150478,1.0391837199,,,,,x,1,1.01721121371,2018_Nov_14_1535,59.9805890722,spanish_cond2,001,1030,
images/skateboard.jpg,key,x,sounds/greatgatsby_spanish.wav,,,,,,,,,0,0,0,0,0,69,69,189,239.722857827,8.9806271717e-06,240.532715964,0.809867758304,,,,,x,1,0.800499767298,2018_Nov_14_1535,59.9805890722,spanish_cond2,001,1030,
images/lychee02a.jpg,lychee,z,sounds/greatgatsby_spanish.wav,,,,,,,,,0,0,0,0,0,70,70,62,241.657241478,9.30123496801e-06,242.766704054,1.10947283881,,,,,z,1,1.10057055322,2018_Nov_14_1535,59.9805890722,spanish_cond2,001,1030,
images/radio03a.jpg,radio,z,sounds/greatgatsby_spanish.wav,,,,,,,,,0,0,0,0,0,71,71,37,243.880259833,9.30123496801e-06,244.70059185,0.820342601277,,,,,z,1,0.800493994029,2018_Nov_14_1535,59.9805890722,spanish_cond2,001,1030,
images/axe01.jpg,axe,z,sounds/greatgatsby_spanish.wav,,,,,,,,,0,0,0,0,0,72,72,104,245.803462385,8.65978654474e-06,246.651143368,0.847690604744,,,,,z,1,0.833826568443,2018_Nov_14_1535,59.9805890722,spanish_cond2,001,1030,
images/umbrella01.jpg,umbrella,z,sounds/greatgatsby_spanish.wav,,,,,,,,,0,0,0,0,0,73,73,53,247.763862673,9.62207559496e-06,248.451682585,0.687832099735,,,,,z,1,0.667112700292,2018_Nov_14_1535,59.9805890722,spanish_cond2,001,1030,
images/redfox.jpg,red fox,z,sounds/greatgatsby_spanish.wav,,,,,,,,,0,0,0,0,0,74,74,1,249.564135682,9.62207559496e-06,250.368900887,0.804776110221,,,,,z,1,0.783819047152,2018_Nov_14_1535,59.9805890722,spanish_cond2,001,1030,
images/teapot.jpg,light switch,x,sounds/greatgatsby_spanish.wav,,,,,,,,,0,0,0,0,0,75,75,197,251.484677106,1.02635240182e-05,252.719569024,1.23490218108,,,,,x,1,1.21725669375,2018_Nov_14_1535,59.9805890722,spanish_cond2,001,1030,
images/fryingpan01.jpg,frying pan,z,sounds/greatgatsby_spanish.wav,,,,,,,,,0,0,0,0,0,76,76,45,253.820253758,9.30123496801e-06,254.586807708,0.766564534279,,,,,z,1,0.750478454633,2018_Nov_14_1535,59.9805890722,spanish_cond2,001,1030,
images/bottleofredwine02.jpg,pipe,x,sounds/greatgatsby_spanish.wav,,,,,,,,,0,0,0,0,0,77,77,213,255.685293492,8.98051075637e-06,256.820768857,1.13548530708,,,,,x,1,1.11724550021,2018_Nov_14_1535,59.9805890722,spanish_cond2,001,1030,
images/antelope.jpg,antelope,z,sounds/greatgatsby_spanish.wav,,,,,,,,,0,0,0,0,0,78,78,12,257.924276369,9.30123496801e-06,258.504604935,0.58033882943,,,,,z,1,0.567100865301,2018_Nov_14_1535,59.9805890722,spanish_cond2,001,1030,
images/tent.jpg,tent,z,sounds/greatgatsby_spanish.wav,,,,,,,,,0,0,0,0,0,79,79,11,259.630794737,9.62207559496e-06,260.255119632,0.62433580053,,,,,z,1,0.600445948192,2018_Nov_14_1535,59.9805890722,spanish_cond2,001,1030,
images/kiwi03.jpg,backpack,x,sounds/greatgatsby_spanish.wav,,,,,,,,,0,0,0,0,0,80,80,125,261.383546231,9.30135138333e-06,262.105647127,0.722111159237,,,,,x,1,0.700448161224,2018_Nov_14_1535,59.9805890722,spanish_cond2,001,1030,
images/ladder.jpg,ladder,z,sounds/greatgatsby_spanish.wav,,,,,,,,,0,0,0,0,0,81,81,113,263.197843964,8.98051075637e-06,264.056215002,0.858380660298,,,,,z,1,0.833840039093,2018_Nov_14_1535,59.9805890722,spanish_cond2,001,1030,
images/stapler03a.jpg,candy cane,x,sounds/greatgatsby_spanish.wav,,,,,,,,,0,0,0,0,0,82,82,145,265.167305622,9.30135138333e-06,266.573609515,1.40631351538,,,,,x,1,1.38399686199,2018_Nov_14_1535,59.9805890722,spanish_cond2,001,1030,
images/ant.jpg,ant,z,sounds/greatgatsby_spanish.wav,,,,,,,,,0,0,0,0,0,83,83,98,267.668500836,9.30123496801e-06,268.324111383,0.655621452024,,,,,z,1,0.633769221138,2018_Nov_14_1535,59.9805890722,spanish_cond2,001,1030,
images/puma.jpg,puma,z,sounds/greatgatsby_spanish.wav,,,,,,,,,0,0,0,0,0,84,84,4,269.422912448,8.9806271717e-06,270.241334496,0.81843166973,,,,,z,1,0.800475391559,2018_Nov_14_1535,59.9805890722,spanish_cond2,001,1030,
images/thumbtack02a.jpg,thumb tack,z,sounds/greatgatsby_spanish.wav,,,,,,,,,0,0,0,0,0,85,85,60,271.351458424,9.30135138333e-06,272.14188619,0.790437708609,,,,,z,1,0.767139930744,2018_Nov_14_1535,59.9805890722,spanish_cond2,001,1030,
images/parkingmeter.jpg,ear,x,sounds/greatgatsby_spanish.wav,,,,,,,,,0,0,0,0,0,86,86,171,273.243708247,9.30123496801e-06,274.1258216,0.882122975076,,,,,x,1,0.867193140439,2018_Nov_14_1535,59.9805890722,spanish_cond2,001,1030,
images/tulip02.jpg,sport shorts,x,sounds/greatgatsby_spanish.wav,,,,,,,,,0,0,0,0,0,87,87,225,275.220785727,9.62207559496e-06,276.043026751,0.822251287871,,,,,x,1,0.800492711132,2018_Nov_14_1535,59.9805890722,spanish_cond2,001,1030,
images/elbow.jpg,elbow,z,sounds/greatgatsby_spanish.wav,,,,,,,,,0,0,0,0,0,88,88,105,277.154140785,9.62195917964e-06,277.826865684,0.672735162778,,,,,z,1,0.650415622746,2018_Nov_14_1535,59.9805890722,spanish_cond2,001,1030,
images/handfan01b.jpg,handfan,z,sounds/greatgatsby_spanish.wav,,,,,,,,,0,0,0,0,0,89,89,69,278.941315669,9.62207559496e-06,279.777462425,0.83615734044,,,,,z,1,0.817174714291,2018_Nov_14_1535,59.9805890722,spanish_cond2,001,1030,
images/watermelon01.jpg,orange,x,sounds/greatgatsby_spanish.wav,,,,,,,,,0,0,0,0,0,90,90,207,280.906348636,9.62195917964e-06,281.794689034,0.888350341236,,,,,x,1,0.867170368321,2018_Nov_14_1535,59.9805890722,spanish_cond2,001,1030,
images/beermug01b.jpg,beer mug,z,sounds/greatgatsby_spanish.wav,,,,,,,,,0,0,0,0,0,91,91,111,282.911990021,9.62195917964e-06,284.012026232,1.10004615353,,,,,z,1,1.08392511378,2018_Nov_14_1535,59.9805890722,spanish_cond2,001,1030,
images/drink.jpg,drink,z,sounds/greatgatsby_spanish.wav,,,,,,,,,0,0,0,0,0,92,92,117,285.113378413,9.94279980659e-06,285.912562531,0.799195022439,,,,,z,1,0.783821292222,2018_Nov_14_1535,59.9805890722,spanish_cond2,001,1030,
images/battery03b.jpg,battery,z,sounds/greatgatsby_spanish.wav,,,,,,,,,0,0,0,0,0,93,93,34,287.021552986,9.30123496801e-06,287.629740805,0.608197441092,,,,,z,1,0.583749512094,2018_Nov_14_1535,59.9805890722,spanish_cond2,001,1030,
images/lemon02.jpg,lemon,z,sounds/greatgatsby_spanish.wav,,,,,,,,,0,0,0,0,0,94,94,14,288.74156366,9.62195917964e-06,289.346885403,0.605332005885,,,,,z,1,0.583755606087,2018_Nov_14_1535,59.9805890722,spanish_cond2,001,1030,
images/bus.jpg,microphone,x,sounds/greatgatsby_spanish.wav,,,,,,,,,0,0,0,0,0,95,95,203,290.46502575,9.30123496801e-06,291.33078938,0.865773893544,,,,,x,1,0.850495742168,2018_Nov_14_1535,59.9805890722,spanish_cond2,001,1030,
images/ceilingfan02.jpg,paper clip,x,sounds/greatgatsby_spanish.wav,,,,,,,,,0,0,0,0,0,96,96,208,292.429432003,9.30135138333e-06,293.281358859,0.851936798776,,,,,x,1,0.833826247603,2018_Nov_14_1535,59.9805890722,spanish_cond2,001,1030,
images/beachumbrella01.jpg,beach umbrella,z,sounds/greatgatsby_spanish.wav,,,,,,,,,0,0,0,0,0,97,97,92,294.387701337,8.9806271717e-06,295.548687542,1.16099614766,,,,,z,1,1.15057967813,2018_Nov_14_1535,59.9805890722,spanish_cond2,001,1030,
images/cola.jpg,comb,x,sounds/greatgatsby_spanish.wav,,,,,,,,,0,0,0,0,0,98,98,157,296.669668628,9.30123496801e-06,297.482586884,0.812928199535,,,,,x,1,0.80048180616,2018_Nov_14_1535,59.9805890722,spanish_cond2,001,1030,
images/pouch01b.jpg,pouch,z,sounds/greatgatsby_spanish.wav,,,,,,,,,0,0,0,0,0,99,99,25,298.594981928,8.98051075637e-06,299.466498239,0.871525932453,,,,,z,1,0.850467838231,2018_Nov_14_1535,59.9805890722,spanish_cond2,001,1030,
images/flipflop01b.jpg,flip flop,z,sounds/greatgatsby_spanish.wav,,,,,,,,,0,0,0,0,0,100,100,27,300.583492604,8.98051075637e-06,301.233666073,0.650183411548,,,,,z,1,0.633764410159,2018_Nov_14_1535,59.9805890722,spanish_cond2,001,1030,
images/treadmill.jpg,lily,x,sounds/greatgatsby_spanish.wav,,,,,,,,,0,0,0,0,0,101,101,199,302.339314162,9.62207559496e-06,303.367621801,1.02831822308,,,,,x,1,1.01720928936,2018_Nov_14_1535,59.9805890722,spanish_cond2,001,1030,
images/acousticguitar02.jpg,acoustic guitar,z,sounds/greatgatsby_spanish.wav,,,,,,,,,0,0,0,0,0,102,102,97,304.480821566,8.98051075637e-06,305.134816577,0.654004954034,,,,,z,1,0.63377852249,2018_Nov_14_1535,59.9805890722,spanish_cond2,001,1030,
images/lily.jpg,kiwi,x,sounds/greatgatsby_spanish.wav,,,,,,,,,0,0,0,0,0,103,103,190,306.234635651,9.62207559496e-06,307.285437951,1.05081256293,,,,,x,1,1.0338861607,2018_Nov_14_1535,59.9805890722,spanish_cond2,001,1030,
images/lion.jpg,lion,z,sounds/greatgatsby_spanish.wav,,,,,,,,,0,0,0,0,0,104,104,44,308.397451001,9.62207559496e-06,309.102625815,0.705185077852,,,,,z,1,0.683786043664,2018_Nov_14_1535,59.9805890722,spanish_cond2,001,1030,
images/carrot02.jpg,corkscrew,x,sounds/greatgatsby_spanish.wav,,,,,,,,,0,0,0,0,0,105,105,161,310.205161183,8.98051075637e-06,310.986511863,0.781360302353,,,,,x,1,0.767143779434,2018_Nov_14_1535,59.9805890722,spanish_cond2,001,1030,
images/candle08a.jpg,screw driver,x,sounds/greatgatsby_spanish.wav,,,,,,,,,0,0,0,0,0,106,106,221,312.098972979,9.62207559496e-06,313.237160147,1.1381977523,,,,,x,1,1.11724036839,2018_Nov_14_1535,59.9805890722,spanish_cond2,001,1030,
images/cookingpot.jpg,grasshopper,x,sounds/greatgatsby_spanish.wav,,,,,,,,,0,0,0,0,0,107,107,183,314.351025434,9.62195917964e-06,315.087729337,0.736715128412,,,,,x,1,0.717147483956,2018_Nov_14_1535,59.9805890722,spanish_cond2,001,1030,
images/headphones02b.jpg,headphones,z,sounds/greatgatsby_spanish.wav,,,,,,,,,0,0,0,0,0,108,108,101,316.193764231,8.98051075637e-06,316.88821852,0.694463911117,,,,,z,1,0.683758460451,2018_Nov_14_1535,59.9805890722,spanish_cond2,001,1030,
images/mirror02.jpg,8 ball,x,sounds/greatgatsby_spanish.wav,,,,,,,,,0,0,0,0,0,109,109,121,317.989785272,9.62207559496e-06,318.805459273,0.815683623077,,,,,x,1,0.800482447725,2018_Nov_14_1535,59.9805890722,spanish_cond2,001,1030,
images/puzzle.jpg,puzzle,z,sounds/greatgatsby_spanish.wav,,,,,,,,,0,0,0,0,0,110,110,57,319.926158113,9.30123496801e-06,320.739349315,0.813201464713,,,,,z,1,0.800488541601,2018_Nov_14_1535,59.9805890722,spanish_cond2,001,1030,
images/showerhead01.jpg,skateboard,x,sounds/greatgatsby_spanish.wav,,,,,,,,,0,0,0,0,0,111,111,223,321.847025082,9.62195917964e-06,322.856622398,1.00960725837,,,,,x,1,1.00053241802,2018_Nov_14_1535,59.9805890722,spanish_cond2,001,1030,
images/leaf01a.jpg,leaf,z,sounds/greatgatsby_spanish.wav,,,,,,,,,0,0,0,0,0,112,112,68,323.959050641,8.98051075637e-06,325.274000906,1.31496052886,,,,,z,1,1.30064105045,2018_Nov_14_1535,59.9805890722,spanish_cond2,001,1030,
images/eyedrops.jpg,bicycle,x,sounds/greatgatsby_spanish.wav,,,,,,,,,0,0,0,0,0,113,113,131,326.375005092,9.62195917964e-06,327.424633185,1.04963835666,,,,,x,1,1.03389802785,2018_Nov_14_1535,59.9805890722,spanish_cond2,001,1030,
images/barrel01.jpg,barrel,z,sounds/greatgatsby_spanish.wav,,,,,,,,,0,0,0,0,0,114,114,9,328.555616994,9.62207559496e-06,329.641927725,1.08632067416,,,,,z,1,1.0672238667,2018_Nov_14_1535,59.9805890722,spanish_cond2,001,1030,
images/hat05.jpg,hat,z,sounds/greatgatsby_spanish.wav,,,,,,,,,0,0,0,0,0,115,115,15,330.745542362,9.62195917964e-06,332.00932373,1.26379195158,,,,,z,1,1.25065181113,2018_Nov_14_1535,59.9805890722,spanish_cond2,001,1030,
images/sunglasses03a.jpg,sun glasses,z,sounds/greatgatsby_spanish.wav,,,,,,,,,0,0,0,0,0,116,116,17,333.117514275,9.62195917964e-06,335.026818151,1.90931446047,,,,,z,1,1.90079737618,2018_Nov_14_1535,59.9805890722,spanish_cond2,001,1030,
images/honeycomb.jpg,honey comb,z,sounds/greatgatsby_spanish.wav,,,,,,,,,0,0,0,0,0,117,117,59,336.139514043,8.98051075637e-06,336.99390221,0.854398430209,,,,,z,1,0.833668446634,2018_Nov_14_1535,59.9805890722,spanish_cond2,001,1030,
images/sportshorts02.jpg,tape,x,sounds/greatgatsby_spanish.wav,,,,,,,,,0,0,0,0,0,118,118,230,338.102227784,9.30123496801e-06,339.07800501,0.975787168718,,,,,x,1,0.967197277932,2018_Nov_14_1535,59.9805890722,spanish_cond2,001,1030,
images/corkscrew02a.jpg,masquerade mask,x,sounds/greatgatsby_spanish.wav,,,,,,,,,0,0,0,0,0,119,119,201,340.182300565,9.30135138333e-06,341.345340428,1.16304980579,,,,,x,1,1.15057582932,2018_Nov_14_1535,59.9805890722,spanish_cond2,001,1030,
images/ashtray02b.jpg,ashtray,z,sounds/greatgatsby_spanish.wav,,,,,,,,,0,0,0,0,0,120,120,43,342.458493045,9.62207559496e-06,343.445935678,0.987452896312,,,,,z,1,0.967192146112,2018_Nov_14_1535,59.9805890722,spanish_cond2,001,1030,
images/grandpiano.jpg,tulip,x,sounds/greatgatsby_spanish.wav,,,,,,,,,0,0,0,0,0,121,121,236,344.560323441,9.62195917964e-06,345.396507723,0.836194545496,,,,,x,1,0.817160281236,2018_Nov_14_1535,59.9805890722,spanish_cond2,001,1030,
images/parkfountain.jpg,park fountain,z,sounds/greatgatsby_spanish.wav,,,,,,,,,0,0,0,0,0,122,122,93,346.517026952,9.30123496801e-06,347.297102074,0.780085706385,,,,,z,1,0.767183550517,2018_Nov_14_1535,59.9805890722,spanish_cond2,001,1030,
images/cocktailshrimp01.jpg,cocktail shrimp,z,sounds/greatgatsby_spanish.wav,,,,,,,,,0,0,0,0,0,123,123,30,348.411926997,9.30123496801e-06,349.497705631,1.08578857686,,,,,z,1,1.06723445095,2018_Nov_14_1535,59.9805890722,spanish_cond2,001,1030,
images/volleyball.jpg,volley ball,z,sounds/greatgatsby_spanish.wav,,,,,,,,,0,0,0,0,0,124,124,2,350.63007052,9.62195917964e-06,351.414932914,0.784872336662,,,,,z,1,0.76715340151,2018_Nov_14_1535,59.9805890722,spanish_cond2,001,1030,
images/baseball01a.jpg,baseball,z,sounds/greatgatsby_spanish.wav,,,,,,,,,0,0,0,0,0,125,125,74,352.547448547,8.98051075637e-06,353.365485073,0.818046789267,,,,,z,1,0.800481806276,2018_Nov_14_1535,59.9805890722,spanish_cond2,001,1030,
images/paintbrush03a.jpg,paint brush,z,sounds/greatgatsby_spanish.wav,,,,,,,,,0,0,0,0,0,126,126,0,354.465630333,9.62195917964e-06,355.216031812,0.750412062625,,,,,z,1,0.733802866074,2018_Nov_14_1535,59.9805890722,spanish_cond2,001,1030,
images/lamp04b.jpg,parking meter,x,sounds/greatgatsby_spanish.wav,,,,,,,,,0,0,0,0,0,127,127,209,356.335867878,9.62207559496e-06,357.216606246,0.880748631083,,,,,x,1,0.867172292667,2018_Nov_14_1535,59.9805890722,spanish_cond2,001,1030,
images/diaper01a.jpg,camera,x,sounds/greatgatsby_spanish.wav,,,,,,,,,0,0,0,0,0,128,128,143,358.336439426,9.30123496801e-06,359.250525121,0.91409563832,,,,,x,1,0.900509357336,2018_Nov_14_1535,59.9805890722,spanish_cond2,001,1030,
images/key03b.jpg,cigar,x,sounds/greatgatsby_spanish.wav,,,,,,,,,0,0,0,0,0,129,129,153,360.350719454,9.30123496801e-06,361.767926049,1.41721653787,,,,,x,1,1.40065801726,2018_Nov_14_1535,59.9805890722,spanish_cond2,001,1030,
images/pipe.jpg,icecube,x,sounds/greatgatsby_spanish.wav,,,,,,,,,0,0,0,0,0,130,130,188,362.877164111,8.98051075637e-06,364.01860416,1.14144999231,,,,,x,1,1.11725993326,2018_Nov_14_1535,59.9805890722,spanish_cond2,001,1030,
images/cockroach02.jpg,belt,x,sounds/greatgatsby_spanish.wav,,,,,,,,,0,0,0,0,0,131,131,129,365.117408433,9.30123496801e-06,365.869115298,0.751716807485,,,,,x,1,0.733792281942,2018_Nov_14_1535,59.9805890722,spanish_cond2,001,1030,
images/grasshopper.jpg,cauliflower,x,sounds/greatgatsby_spanish.wav,,,,,,,,,0,0,0,0,0,132,132,148,366.962846846,9.30135138333e-06,368.53655226,1.57371567795,,,,,x,1,1.55069180659,2018_Nov_14_1535,59.9805890722,spanish_cond2,001,1030,
images/ladybug03.jpg,giraffe,x,sounds/greatgatsby_spanish.wav,,,,,,,,,0,0,0,0,0,133,133,178,369.640419314,9.62207559496e-06,370.57048621,0.930076838238,,,,,x,1,0.917168908985,2018_Nov_14_1535,59.9805890722,spanish_cond2,001,1030,
images/giraffe.jpg,lettuce,x,sounds/greatgatsby_spanish.wav,,,,,,,,,0,0,0,0,0,134,134,195,371.671245034,9.62195917964e-06,372.4376925,0.766458050697,,,,,x,1,0.750466587371,2018_Nov_14_1535,59.9805890722,spanish_cond2,001,1030,
images/nailclipper03a.jpg,aquarium,x,sounds/greatgatsby_spanish.wav,,,,,,,,,0,0,0,0,0,135,135,123,373.53748335,9.30123496801e-06,374.354923952,0.817450865987,,,,,x,1,0.800455185352,2018_Nov_14_1535,59.9805890722,spanish_cond2,001,1030,
images/pineapple01a.jpg,pineapple,z,sounds/greatgatsby_spanish.wav,,,,,,,,,0,0,0,0,0,136,136,51,375.466861309,9.62195917964e-06,376.77228033,1.30542928446,,,,,z,1,1.28395872668,2018_Nov_14_1535,59.9805890722,spanish_cond2,001,1030,
images/rhinoceros01.jpg,envelope,x,sounds/greatgatsby_spanish.wav,,,,,,,,,0,0,0,0,0,137,137,173,377.884309096,9.62195917964e-06,378.906246963,1.02194748877,,,,,x,1,1.00054268143,2018_Nov_14_1535,59.9805890722,spanish_cond2,001,1030,
images/marker01a.jpg,marker,z,sounds/greatgatsby_spanish.wav,,,,,,,,,0,0,0,0,0,138,138,95,380.005128212,9.62195917964e-06,380.856809706,0.851691758144,,,,,z,1,0.83382047445,2018_Nov_14_1535,59.9805890722,spanish_cond2,001,1030,
images/licenseplate.jpg,license plate,z,sounds/greatgatsby_spanish.wav,,,,,,,,,0,0,0,0,0,139,139,40,381.973989456,9.30123496801e-06,383.040797011,1.06681781774,,,,,z,1,1.05057842727,2018_Nov_14_1535,59.9805890722,spanish_cond2,001,1030,
images/flower01.jpg,bus,x,sounds/greatgatsby_spanish.wav,,,,,,,,,0,0,0,0,0,140,140,140,384.154813684,9.62195917964e-06,384.82463017,0.669826749247,,,,,x,1,0.650444488856,2018_Nov_14_1535,59.9805890722,spanish_cond2,001,1030,
images/pictureframe04.jpg,picture frame,z,sounds/greatgatsby_spanish.wav,,,,,,,,,0,0,0,0,0,141,141,41,385.947334238,8.9806271717e-06,386.591815003,0.644491029321,,,,,z,1,0.633774994407,2018_Nov_14_1535,59.9805890722,spanish_cond2,001,1030,
images/lantern03.jpg,lantern,z,sounds/greatgatsby_spanish.wav,,,,,,,,,0,0,0,0,0,142,142,5,387.698405408,9.62195917964e-06,388.325637755,0.627242610324,,,,,z,1,0.617083690013,2018_Nov_14_1535,59.9805890722,spanish_cond2,001,1030,
images/clothespin02a.jpg,clothes pin,z,sounds/greatgatsby_spanish.wav,,,,,,,,,0,0,0,0,0,143,143,79,389.430832327,9.30135138333e-06,390.176179041,0.745356978266,,,,,z,1,0.733790678205,2018_Nov_14_1535,59.9805890722,spanish_cond2,001,1030,
images/aquarium.jpg,computer mouse,x,sounds/greatgatsby_spanish.wav,,,,,,,,,0,0,0,0,0,144,144,159,391.311364783,9.62195917964e-06,392.176753155,0.865398635156,,,,,x,1,0.850481308997,2018_Nov_14_1535,59.9805890722,spanish_cond2,001,1030,
images/worldmap.jpg,scooter,x,sounds/greatgatsby_spanish.wav,,,,,,,,,0,0,0,0,0,145,145,220,393.3081552,8.98051075637e-06,394.277370535,0.969225598034,,,,,x,1,0.950522010215,2018_Nov_14_1535,59.9805890722,spanish_cond2,001,1030,
images/toothbrush03a.jpg,parrot,x,sounds/greatgatsby_spanish.wav,,,,,,,,,0,0,0,0,0,146,146,210,395.370079584,9.30135138333e-06,396.878122463,1.50805282232,,,,,x,1,1.48401126289,2018_Nov_14_1535,59.9805890722,spanish_cond2,001,1030,
images/ostrich.jpg,ostrich,z,sounds/greatgatsby_spanish.wav,,,,,,,,,0,0,0,0,0,147,147,76,397.979571827,9.30123496801e-06,398.912056734,0.932495170506,,,,,z,1,0.9171830212,2018_Nov_14_1535,59.9805890722,spanish_cond2,001,1030,
images/lightbulb03b.jpg,treadmill,x,sounds/greatgatsby_spanish.wav,,,,,,,,,0,0,0,0,0,148,148,234,400.01463925,9.30123496801e-06,400.829268621,0.814639314078,,,,,x,1,0.800477636745,2018_Nov_14_1535,59.9805890722,spanish_cond2,001,1030,
images/cherry01.jpg,highlighter,x,sounds/greatgatsby_spanish.wav,,,,,,,,,0,0,0,0,0,149,149,187,401.938225079,9.30123496801e-06,402.813216539,0.875002044602,,,,,x,1,0.850519155734,2018_Nov_14_1535,59.9805890722,spanish_cond2,001,1030,
images/parkbench03.jpg,park bench,z,sounds/greatgatsby_spanish.wav,,,,,,,,,0,0,0,0,0,150,150,71,403.91921968,9.62195917964e-06,404.88045965,0.961249912158,,,,,z,1,0.950524255284,2018_Nov_14_1535,59.9805890722,spanish_cond2,001,1030,
images/medal01.jpg,medal,z,sounds/greatgatsby_spanish.wav,,,,,,,,,0,0,0,0,0,151,151,115,405.981637031,9.62195917964e-06,406.730993559,0.749366791337,,,,,z,1,0.733796130749,2018_Nov_14_1535,59.9805890722,spanish_cond2,001,1030,
images/mailbox01.jpg,mail box,z,sounds/greatgatsby_spanish.wav,,,,,,,,,0,0,0,0,0,152,152,73,407.850565662,9.62195917964e-06,408.548200026,0.697644627653,,,,,z,1,0.683791816817,2018_Nov_14_1535,59.9805890722,spanish_cond2,001,1030,
images/shotglass.jpg,shot glass,z,sounds/greatgatsby_spanish.wav,,,,,,,,,0,0,0,0,0,153,153,86,409.656485509,9.30123496801e-06,410.415397657,0.75892209087,,,,,z,1,0.750465625199,2018_Nov_14_1535,59.9805890722,spanish_cond2,001,1030,
images/razor04a.jpg,razor,z,sounds/greatgatsby_spanish.wav,,,,,,,,,0,0,0,0,0,154,154,36,411.51524688,9.94279980659e-06,412.232422589,0.717186613474,,,,,z,1,0.700273040566,2018_Nov_14_1535,59.9805890722,spanish_cond2,001,1030,
images/diploma01.jpg,glasses,x,sounds/greatgatsby_spanish.wav,,,,,,,,,0,0,0,0,0,155,155,179,413.364078655,9.30135138333e-06,414.04979295,0.685724237701,,,,,x,1,0.667104361346,2018_Nov_14_1535,59.9805890722,spanish_cond2,001,1030,
images/nailpolish02b.jpg,nail polish,z,sounds/greatgatsby_spanish.wav,,,,,,,,,0,0,0,0,0,156,156,94,415.158561779,9.62195917964e-06,416.050369309,0.891817793716,,,,,z,1,0.867178707384,2018_Nov_14_1535,59.9805890722,spanish_cond2,001,1030,
images/atm.jpg,atm,z,sounds/greatgatsby_spanish.wav,,,,,,,,,0,0,0,0,0,157,157,96,417.188112902,9.94268339127e-06,417.917579448,0.729477771674,,,,,z,1,0.717125994735,2018_Nov_14_1535,59.9805890722,spanish_cond2,001,1030,
images/coin01b.jpg,arrow,x,sounds/greatgatsby_spanish.wav,,,,,,,,,0,0,0,0,0,158,158,124,419.022790698,8.9806271717e-06,419.884812648,0.862031572382,,,,,x,1,0.85049894941,2018_Nov_14_1535,59.9805890722,spanish_cond2,001,1030,
images/tie01.jpg,bench,x,sounds/greatgatsby_spanish.wav,,,,,,,,,0,0,0,0,0,159,159,130,420.983661503,9.30123496801e-06,421.752043315,0.768391754478,,,,,x,1,0.750487114303,2018_Nov_14_1535,59.9805890722,spanish_cond2,001,1030,
images/computermouse02a.jpg,world map,x,sounds/greatgatsby_spanish.wav,,,,,,,,,0,0,0,0,0,160,160,239,422.855399761,9.62195917964e-06,423.785945512,0.930556014413,,,,,x,1,0.917181096855,2018_Nov_14_1535,59.9805890722,spanish_cond2,001,1030,
images/lipstick04.jpg,lipstick,z,sounds/greatgatsby_spanish.wav,,,,,,,,,0,0,0,0,0,161,161,56,424.885886144,8.98051075637e-06,425.753188975,0.867313415511,,,,,z,1,0.850492855534,2018_Nov_14_1535,59.9805890722,spanish_cond2,001,1030,
images/banana04a.jpg,banana,z,sounds/greatgatsby_spanish.wav,,,,,,,,,0,0,0,0,0,162,162,118,426.85908435,9.30123496801e-06,427.870473605,1.01139951847,,,,,z,1,1.00054685108,2018_Nov_14_1535,59.9805890722,spanish_cond2,001,1030,
images/daisy.jpg,daisy,z,sounds/greatgatsby_spanish.wav,,,,,,,,,0,0,0,0,0,163,163,6,429.027271027,9.30135138333e-06,429.85438079,0.827120025991,,,,,z,1,0.817154828808,2018_Nov_14_1535,59.9805890722,spanish_cond2,001,1030,
images/candy.jpg,candy,z,sounds/greatgatsby_spanish.wav,,,,,,,,,0,0,0,0,0,164,164,31,430.955984106,9.30123496801e-06,431.821611424,0.86563790252,,,,,z,1,0.850493817707,2018_Nov_14_1535,59.9805890722,spanish_cond2,001,1030,
images/raisin.jpg,ruler,x,sounds/greatgatsby_spanish.wav,,,,,,,,,0,0,0,0,0,165,165,218,432.927337451,9.30135138333e-06,433.922238106,0.994911238551,,,,,x,1,0.983881526045,2018_Nov_14_1535,59.9805890722,spanish_cond2,001,1030,
images/lip.jpg,boxing glove,x,sounds/greatgatsby_spanish.wav,,,,,,,,,0,0,0,0,0,166,166,136,435.026259754,9.62207559496e-06,435.939491656,0.913242807379,,,,,x,1,0.900519941468,2018_Nov_14_1535,59.9805890722,spanish_cond2,001,1030,
images/cheetah.jpg,cheetah,z,sounds/greatgatsby_spanish.wav,,,,,,,,,0,0,0,0,0,167,167,82,437.042415754,8.65978654474e-06,437.673322426,0.63091661525,,,,,z,1,0.617102292483,2018_Nov_14_1535,59.9805890722,spanish_cond2,001,1030,
images/envelope02a.jpg,grand piano,x,sounds/greatgatsby_spanish.wav,,,,,,,,,0,0,0,0,0,168,168,182,438.796625304,9.30135138333e-06,439.540522623,0.743907903321,,,,,x,1,0.733794206288,2018_Nov_14_1535,59.9805890722,spanish_cond2,001,1030,
images/lightswitch02a.jpg,fork,x,sounds/greatgatsby_spanish.wav,,,,,,,,,0,0,0,0,0,169,169,177,440.652809259,8.98051075637e-06,441.407577848,0.754778852453,,,,,x,1,0.733639612678,2018_Nov_14_1535,59.9805890722,spanish_cond2,001,1030,
images/safe.jpg,safe,z,sounds/greatgatsby_spanish.wav,,,,,,,,,0,0,0,0,0,170,170,78,442.518851286,9.30123496801e-06,443.224918381,0.706077359035,,,,,x,0,0.683775138808,2018_Nov_14_1535,59.9805890722,spanish_cond2,001,1030,
images/straw.jpg,straw,z,sounds/greatgatsby_spanish.wav,,,,,,,,,0,0,0,0,0,171,171,109,444.316130245,9.30135138333e-06,444.958771603,0.642650979804,,,,,z,1,0.633774673683,2018_Nov_14_1535,59.9805890722,spanish_cond2,001,1030,
images/glasses01b.jpg,calculator,x,sounds/greatgatsby_spanish.wav,,,,,,,,,0,0,0,0,0,172,172,142,446.052158362,9.62195917964e-06,446.79264564,0.740497541381,,,,,x,1,0.717143314425,2018_Nov_14_1535,59.9805890722,spanish_cond2,001,1030,
images/doll.jpg,carrot,x,sounds/greatgatsby_spanish.wav,,,,,,,,,0,0,0,0,0,173,173,146,447.903983545,9.30135138333e-06,448.826546554,0.922572951764,,,,,x,1,0.900501018274,2018_Nov_14_1535,59.9805890722,spanish_cond2,001,1030,
images/fireextinguisher02.jpg,fire extinguisher,z,sounds/greatgatsby_spanish.wav,,,,,,,,,0,0,0,0,0,174,174,175,449.937597403,9.62195917964e-06,450.793791942,0.856205443968,,,,,z,1,0.833815342747,2018_Nov_14_1535,59.9805890722,spanish_cond2,001,1030,
images/mattress.jpg,cat,x,sounds/greatgatsby_spanish.wav,,,,,,,,,0,0,0,0,0,175,175,147,451.898361724,8.98051075637e-06,452.911083307,1.0127315257,,,,,x,1,1.000537229,2018_Nov_14_1535,59.9805890722,spanish_cond2,001,1030,
images/nametag01a.jpg,name tag,z,sounds/greatgatsby_spanish.wav,,,,,,,,,0,0,0,0,0,176,176,108,454.031554426,9.62195917964e-06,454.878321318,0.846777796629,,,,,x,0,0.833824002533,2018_Nov_14_1535,59.9805890722,spanish_cond2,001,1030,
images/blackolive.jpg,tank,x,sounds/greatgatsby_spanish.wav,,,,,,,,,0,0,0,0,0,177,177,229,455.993623813,8.9806271717e-06,456.828880213,0.835266983602,,,,,x,1,0.817116982187,2018_Nov_14_1535,59.9805890722,spanish_cond2,001,1030,
images/gluestick.jpg,squirrel,x,sounds/greatgatsby_spanish.wav,,,,,,,,,0,0,0,0,0,178,178,226,457.936409405,9.62195917964e-06,458.629395375,0.692996233585,,,,,x,1,0.683774497244,2018_Nov_14_1535,59.9805890722,spanish_cond2,001,1030,
images/crocodile.jpg,triangle ruler,x,sounds/greatgatsby_spanish.wav,,,,,,,,,0,0,0,0,0,179,179,235,459.727130642,9.30135138333e-06,460.646669774,0.919549715472,,,,,x,1,0.900525393896,2018_Nov_14_1535,59.9805890722,spanish_cond2,001,1030,
images/wallet01.jpg,lamp,x,sounds/greatgatsby_spanish.wav,,,,,,,,,0,0,0,0,0,180,180,193,461.751352133,8.98051075637e-06,462.447006608,0.695664738305,,,,,x,1,0.683608677937,2018_Nov_14_1535,59.9805890722,spanish_cond2,001,1030,
images/masquerademask02b.jpg,mirror,x,sounds/greatgatsby_spanish.wav,,,,,,,,,0,0,0,0,0,181,181,204,463.551137306,9.30123496801e-06,464.331074833,0.779946828727,,,,,x,1,0.767149552703,2018_Nov_14_1535,59.9805890722,spanish_cond2,001,1030,
images/table02.jpg,table,z,sounds/greatgatsby_spanish.wav,,,,,,,,,0,0,0,0,0,182,182,49,465.445743879,9.30135138333e-06,466.081835213,0.636107690865,,,,,z,1,0.617325523286,2018_Nov_14_1535,59.9805890722,spanish_cond2,001,1030,
images/corn01.jpg,corn,z,sounds/greatgatsby_spanish.wav,,,,,,,,,0,0,0,0,0,183,183,22,467.182096579,9.62207559496e-06,468.182182535,1.00009622017,,,,,z,1,0.983866772382,2018_Nov_14_1535,59.9805890722,spanish_cond2,001,1030,
images/ear.jpg,bullet,x,sounds/greatgatsby_spanish.wav,,,,,,,,,0,0,0,0,0,184,184,139,469.284763448,9.94279980659e-06,470.066067942,0.781315399567,,,,,x,1,0.767146024504,2018_Nov_14_1535,59.9805890722,spanish_cond2,001,1030,
images/gorilla.jpg,gorilla,z,sounds/greatgatsby_spanish.wav,,,,,,,,,0,0,0,0,0,185,185,80,471.177357417,9.62207559496e-06,472.000066713,0.822719559073,,,,,z,1,0.800592780113,2018_Nov_14_1535,59.9805890722,spanish_cond2,001,1030,
images/spoon02b.jpg,spoon,z,sounds/greatgatsby_spanish.wav,,,,,,,,,0,0,0,0,0,186,186,38,473.090697086,8.9806271717e-06,473.700480876,0.609793732991,,,,,z,1,0.600423496799,2018_Nov_14_1535,59.9805890722,spanish_cond2,001,1030,
images/floorlamp.jpg,floor lamp,z,sounds/greatgatsby_spanish.wav,,,,,,,,,0,0,0,0,0,187,187,26,474.792883624,9.62195917964e-06,475.350942685,0.558069644729,,,,,z,1,0.533745198161,2018_Nov_14_1535,59.9805890722,spanish_cond2,001,1030,
images/button07.jpg,radish,x,sounds/greatgatsby_spanish.wav,,,,,,,,,0,0,0,0,0,188,188,215,476.463721326,9.30123496801e-06,477.468221862,1.00451047858,,,,,x,1,0.983872545534,2018_Nov_14_1535,59.9805890722,spanish_cond2,001,1030,
images/basketball01.jpg,basket ball,z,sounds/greatgatsby_spanish.wav,,,,,,,,,0,0,0,0,0,189,189,33,478.606333657,9.94279980659e-06,479.485460338,0.879136623349,,,,,z,1,0.867165236501,2018_Nov_14_1535,59.9805890722,spanish_cond2,001,1030,
images/backpack01b.jpg,swallow,x,sounds/greatgatsby_spanish.wav,,,,,,,,,0,0,0,0,0,190,190,228,480.616657756,9.30123496801e-06,481.536072763,0.919425270869,,,,,x,1,0.900515451212,2018_Nov_14_1535,59.9805890722,spanish_cond2,001,1030,
images/hairdryer03a.jpg,hairdryer,z,sounds/greatgatsby_spanish.wav,,,,,,,,,0,0,0,0,0,191,191,119,482.634894997,9.62207559496e-06,483.319907205,0.685022472171,,,,,z,1,0.667101474712,2018_Nov_14_1535,59.9805890722,spanish_cond2,001,1030,
images/fork01.jpg,cooking pot,x,sounds/greatgatsby_spanish.wav,,,,,,,,,0,0,0,0,0,192,192,160,484.413204159,9.30123496801e-06,485.387193294,0.973999078153,,,,,x,1,0.950535801821,2018_Nov_14_1535,59.9805890722,spanish_cond2,001,1030,
images/tank.jpg,wallet,x,sounds/greatgatsby_spanish.wav,,,,,,,,,0,0,0,0,0,193,193,237,486.492423788,9.62195917964e-06,487.121221316,0.628807790927,,,,,x,1,0.617297940189,2018_Nov_14_1535,59.9805890722,spanish_cond2,001,1030,
images/plate01b.jpg,plate,z,sounds/greatgatsby_spanish.wav,,,,,,,,,0,0,0,0,0,194,194,3,488.220551591,8.98051075637e-06,489.038259686,0.817718357896,,,,,z,1,0.800499767298,2018_Nov_14_1535,59.9805890722,spanish_cond2,001,1030,
images/cat.jpg,black olive,x,sounds/greatgatsby_spanish.wav,,,,,,,,,0,0,0,0,0,195,195,133,490.169651789,8.98051075637e-06,491.355580494,1.18593832734,,,,,x,1,1.16725141776,2018_Nov_14_1535,59.9805890722,spanish_cond2,001,1030,
images/sock03.jpg,sock,z,sounds/greatgatsby_spanish.wav,,,,,,,,,0,0,0,0,0,196,196,90,492.461955366,9.30123496801e-06,493.222796728,0.76085130428,,,,,z,1,0.750471077627,2018_Nov_14_1535,59.9805890722,spanish_cond2,001,1030,
images/chameleon.jpg,50 dollar bill,x,sounds/greatgatsby_spanish.wav,,,,,,,,,0,0,0,0,0,197,197,120,494.334491931,9.94279980659e-06,495.156683562,0.822202215553,,,,,x,1,0.800485013635,2018_Nov_14_1535,59.9805890722,spanish_cond2,001,1030,
images/aloe02.jpg,broad sword,x,sounds/greatgatsby_spanish.wav,,,,,,,,,0,0,0,0,0,198,198,137,496.277203433,9.30123496801e-06,497.440694568,1.16350139887,,,,,x,1,1.15058737574,2018_Nov_14_1535,59.9805890722,spanish_cond2,001,1030,
images/butterfly.jpg,butterfly,z,sounds/greatgatsby_spanish.wav,,,,,,,,,0,0,0,0,0,199,199,91,498.548163142,9.94268339127e-06,499.307906311,0.759754074155,,,,,z,1,0.750485510682,2018_Nov_14_1535,59.9805890722,spanish_cond2,001,1030,
images/cauliflower01.jpg,glue stick,x,sounds/greatgatsby_spanish.wav,,,,,,,,,0,0,0,0,0,200,200,181,500.424439782,9.94268339127e-06,501.241792504,0.817362984875,,,,,x,1,0.800452940166,2018_Nov_14_1535,59.9805890722,spanish_cond2,001,1030,
images/bullet (2).jpg,rubber glove,x,sounds/greatgatsby_spanish.wav,,,,,,,,,0,0,0,0,0,201,201,217,502.34670066,9.62207559496e-06,503.409098767,1.06240901188,,,,,x,1,1.05055244779,2018_Nov_14_1535,59.9805890722,spanish_cond2,001,1030,
images/bed.jpg,bed,z,sounds/greatgatsby_spanish.wav,,,,,,,,,0,0,0,0,0,202,202,103,504.528665417,8.9806271717e-06,505.126242402,0.597586927703,,,,,z,1,0.58374919137,2018_Nov_14_1535,59.9805890722,spanish_cond2,001,1030,
images/doorhandle.jpg,doll,x,sounds/greatgatsby_spanish.wav,,,,,,,,,0,0,0,0,0,203,203,168,506.228912799,9.62207559496e-06,506.910110522,0.681208306691,,,,,x,1,0.667121039471,2018_Nov_14_1535,59.9805890722,spanish_cond2,001,1030,
images/peach01.jpg,peach,z,sounds/greatgatsby_spanish.wav,,,,,,,,,0,0,0,0,0,204,204,106,508.039225415,9.94268339127e-06,508.660921577,0.621723103453,,,,,z,1,0.600627804291,2018_Nov_14_1535,59.9805890722,spanish_cond2,001,1030,
images/belt02a.jpg,snowman,x,sounds/greatgatsby_spanish.wav,,,,,,,,,0,0,0,0,0,205,205,224,509.764054151,8.98051075637e-06,510.477814366,0.713770157774,,,,,x,1,0.700458745472,2018_Nov_14_1535,59.9805890722,spanish_cond2,001,1030,
images/highlighter03b.jpg,coin,x,sounds/greatgatsby_spanish.wav,,,,,,,,,0,0,0,0,0,206,206,156,511.580755783,9.94268339127e-06,512.495053484,0.914307964034,,,,,x,1,0.900497810799,2018_Nov_14_1535,59.9805890722,spanish_cond2,001,1030,
images/dresser02.jpg,dresser,z,sounds/greatgatsby_spanish.wav,,,,,,,,,0,0,0,0,0,207,207,87,513.617304034,8.98051075637e-06,514.312257706,0.694963293616,,,,,z,1,0.683784760651,2018_Nov_14_1535,59.9805890722,spanish_cond2,001,1030,
images/electrictoothbrush01a.jpg,banjo,x,sounds/greatgatsby_spanish.wav,,,,,,,,,0,0,0,0,0,208,208,127,515.406763825,9.94268339127e-06,516.212807796,0.806054875604,,,,,x,1,0.78381712269,2018_Nov_14_1535,59.9805890722,spanish_cond2,001,1030,
images/swallow.jpg,mattress,x,sounds/greatgatsby_spanish.wav,,,,,,,,,0,0,0,0,0,209,209,202,517.314812671,9.30135138333e-06,518.13003123,0.815228502033,,,,,x,1,0.800468335394,2018_Nov_14_1535,59.9805890722,spanish_cond2,001,1030,
images/bowl02b (1).jpg,bowl,z,sounds/greatgatsby_spanish.wav,,,,,,,,,0,0,0,0,0,210,210,24,519.247735379,9.30123496801e-06,519.963904946,0.716179509531,,,,,z,1,0.700460990542,2018_Nov_14_1535,59.9805890722,spanish_cond2,001,1030,
images/bandaid01.jpg,door handle,x,sounds/greatgatsby_spanish.wav,,,,,,,,,0,0,0,0,0,211,211,170,521.071605731,9.94279980659e-06,521.797759098,0.726164271473,,,,,x,1,0.717101939837,2018_Nov_14_1535,59.9805890722,spanish_cond2,001,1030,
images/dryingmachine01.jpg,drying machine,z,sounds/greatgatsby_spanish.wav,,,,,,,,,0,0,0,0,0,212,212,18,522.919188249,9.30123496801e-06,523.531600452,0.612422466627,,,,,z,1,0.600430873688,2018_Nov_14_1535,59.9805890722,spanish_cond2,001,1030,
images/dreamcatcher.jpg,dream catcher,z,sounds/greatgatsby_spanish.wav,,,,,,,,,0,0,0,0,0,213,213,48,524.631476296,9.62207559496e-06,525.482171213,0.850705181248,,,,,z,1,0.833832662203,2018_Nov_14_1535,59.9805890722,spanish_cond2,001,1030,
images/cloud.jpg,ceiling fan,x,sounds/greatgatsby_spanish.wav,,,,,,,,,0,0,0,0,0,214,214,149,526.587881525,9.30123496801e-06,527.36605213,0.778181510279,,,,,x,1,0.76708123635,2018_Nov_14_1535,59.9805890722,spanish_cond2,001,1030,
images/flashlight05.jpg,flash light,z,sounds/greatgatsby_spanish.wav,,,,,,,,,0,0,0,0,0,215,215,8,528.468654852,9.94279980659e-06,529.316607176,0.847963228589,,,,,z,1,0.833821757347,2018_Nov_14_1535,59.9805890722,spanish_cond2,001,1030,
images/computerkeyboard01a.jpg,computer keyboard,z,sounds/greatgatsby_spanish.wav,,,,,,,,,0,0,0,0,0,216,216,61,530.434426148,9.30135138333e-06,531.067126684,0.632710799924,,,,,z,1,0.61707535095,2018_Nov_14_1535,59.9805890722,spanish_cond2,001,1030,
images/printer03a.jpg,printer,z,sounds/greatgatsby_spanish.wav,,,,,,,,,0,0,0,0,0,217,217,72,532.176446212,8.65978654474e-06,533.084369972,0.907933701761,,,,,z,1,0.883808430866,2018_Nov_14_1535,59.9805890722,spanish_cond2,001,1030,
images/camera01a.jpg,bull,x,sounds/greatgatsby_spanish.wav,,,,,,,,,0,0,0,0,0,218,218,138,534.195481118,9.62207559496e-06,535.335028839,1.13955798408,,,,,x,1,1.11724133068,2018_Nov_14_1535,59.9805890722,spanish_cond2,001,1030,
images/arrow02.jpg,hammer,x,sounds/greatgatsby_spanish.wav,,,,,,,,,0,0,0,0,0,219,219,184,536.43197478,9.62195917964e-06,537.518994974,1.08703013707,,,,,x,1,1.06722098007,2018_Nov_14_1535,59.9805890722,spanish_cond2,001,1030,
images/screw03c.jpg,screw,z,sounds/greatgatsby_spanish.wav,,,,,,,,,0,0,0,0,0,220,220,84,538.613214679,9.30123496801e-06,539.519597954,0.906393217621,,,,,z,1,0.883865200682,2018_Nov_14_1535,59.9805890722,spanish_cond2,001,1030,
images/dragonfly02.jpg,dragon fly,z,sounds/greatgatsby_spanish.wav,,,,,,,,,0,0,0,0,0,221,221,29,540.618039797,9.62195917964e-06,541.270116179,0.652086324757,,,,,z,1,0.633772749221,2018_Nov_14_1535,59.9805890722,spanish_cond2,001,1030,
images/cake.jpg,cake,z,sounds/greatgatsby_spanish.wav,,,,,,,,,0,0,0,0,0,222,222,23,542.385521951,9.62207559496e-06,543.370694751,0.985183063662,,,,,z,1,0.967200485175,2018_Nov_14_1535,59.9805890722,spanish_cond2,001,1030,
images/cupcake.jpg,scissors,x,sounds/greatgatsby_spanish.wav,,,,,,,,,0,0,0,0,0,223,223,219,544.49050131,8.9806271717e-06,545.304588,0.814096953371,,,,,x,1,0.800469618407,2018_Nov_14_1535,59.9805890722,spanish_cond2,001,1030,
images/knife04.jpg,tooth brush,x,sounds/greatgatsby_spanish.wav,,,,,,,,,0,0,0,0,0,224,224,233,546.40119268,8.98051075637e-06,547.271827935,0.870645197574,,,,,x,1,0.850491251913,2018_Nov_14_1535,59.9805890722,spanish_cond2,001,1030,
images/paperclip04.jpg,eye drops,x,sounds/greatgatsby_spanish.wav,,,,,,,,,0,0,0,0,0,225,225,174,548.377517399,8.98051075637e-06,549.18924862,0.811741163954,,,,,x,1,0.800676491577,2018_Nov_14_1535,59.9805890722,spanish_cond2,001,1030,
images/tape01a.jpg,tie,x,sounds/greatgatsby_spanish.wav,,,,,,,,,0,0,0,0,0,226,226,232,550.315021148,9.62207559496e-06,551.022913218,0.707902013324,,,,,x,1,0.683749480057,2018_Nov_14_1535,59.9805890722,spanish_cond2,001,1030,
images/graduationcap.jpg,graduation cap,z,sounds/greatgatsby_spanish.wav,,,,,,,,,0,0,0,0,0,227,227,35,552.124428332,8.98051075637e-06,552.873463806,0.749045736971,,,,,x,0,0.733765981742,2018_Nov_14_1535,59.9805890722,spanish_cond2,001,1030,
images/rubberglove02a.jpg,lady bug,x,sounds/greatgatsby_spanish.wav,,,,,,,,,0,0,0,0,0,228,228,192,553.97899162,3.23940766975e-05,555.124107919,1.14513233642,,,,,x,1,1.13388677011,2018_Nov_14_1535,59.9805890722,spanish_cond2,001,1030,
images/bracelet02a.jpg,chess knight,x,sounds/greatgatsby_spanish.wav,,,,,,,,,0,0,0,0,0,229,229,152,556.23375203,8.98051075637e-06,557.841578061,1.6078359742,,,,,x,1,1.5840596616,2018_Nov_14_1535,59.9805890722,spanish_cond2,001,1030,
images/panda.jpg,panda,z,sounds/greatgatsby_spanish.wav,,,,,,,,,0,0,0,0,0,230,230,83,558.951079445,9.62195917964e-06,559.692100424,0.74103188375,,,,,z,1,0.717123428825,2018_Nov_14_1535,59.9805890722,spanish_cond2,001,1030,
images/flamingo.jpg,flamingo,z,sounds/greatgatsby_spanish.wav,,,,,,,,,0,0,0,0,0,231,231,52,560.791490036,9.62195917964e-06,561.459372818,0.667893045465,,,,,z,1,0.65052338934,2018_Nov_14_1535,59.9805890722,spanish_cond2,001,1030,
,,,sounds/greatgatsby_spanish.wav,,,,,,,,,0,0,0,0,,,,,,,,,,,,,,,,2018_Nov_14_1535,59.9805890722,spanish_cond2,001,1030,
images/hanger02a.jpg,hanger,z,sounds/animalfarm_english.wav,,,,,,,,,0,1,1,1,0,0,0,88,582.57941223,8.9806271717e-06,584.465976084,1.88657411793,,,,572.462637567,z,1,1.86744235049,2018_Nov_14_1535,59.9805890722,spanish_cond2,001,1030,
images/parrot01.jpg,chameleon,x,sounds/animalfarm_english.wav,,,,,,,,,0,1,1,1,0,1,1,150,585.579256995,8.98051075637e-06,586.249839713,0.670592340641,,,,,z,0,0.650449620676,2018_Nov_14_1535,59.9805890722,spanish_cond2,001,1030,
images/lily.jpg,kiwi,x,sounds/animalfarm_english.wav,,,,,,,,,0,1,1,1,0,2,2,190,587.348940023,9.62195917964e-06,588.083690657,0.734760897816,,,,,x,1,0.717128239921,2018_Nov_14_1535,59.9805890722,spanish_cond2,001,1030,
images/watermelon01.jpg,orange,x,sounds/animalfarm_english.wav,,,,,,,,,0,1,1,1,0,3,3,207,589.210628731,9.30135138333e-06,590.067597201,0.856978412368,,,,,x,1,0.83383009641,2018_Nov_14_1535,59.9805890722,spanish_cond2,001,1030,
images/cigar.jpg,crocodile,x,sounds/animalfarm_english.wav,,,,,,,,,0,1,1,1,0,4,4,162,591.165186213,8.98051075637e-06,592.201561588,1.03638595936,,,,,x,1,1.01722436375,2018_Nov_14_1535,59.9805890722,spanish_cond2,001,1030,
images/razor04a.jpg,razor,z,sounds/animalfarm_english.wav,,,,,,,,,0,1,1,1,0,5,5,36,593.300637843,9.62207559496e-06,594.135458365,0.834831106476,,,,,z,1,0.81715803605,2018_Nov_14_1535,59.9805890722,spanish_cond2,001,1030,
images/shotglass.jpg,shot glass,z,sounds/animalfarm_english.wav,,,,,,,,,0,1,1,1,0,6,6,86,595.243367627,8.98051075637e-06,595.852631508,0.609273181995,,,,,z,1,0.600450759288,2018_Nov_14_1535,59.9805890722,spanish_cond2,001,1030,
images/flower01.jpg,bus,x,sounds/animalfarm_english.wav,,,,,,,,,0,1,1,1,0,7,7,140,596.966277734,9.62195917964e-06,597.586449128,0.620181657141,,,,,x,1,0.600414837012,2018_Nov_14_1535,59.9805890722,spanish_cond2,001,1030,
images/rhinoceros01.jpg,envelope,x,sounds/animalfarm_english.wav,,,,,,,,,0,1,1,1,0,8,8,173,598.698113861,9.62207559496e-06,599.420319316,0.722215718473,,,,,x,1,0.700463877176,2018_Nov_14_1535,59.9805890722,spanish_cond2,001,1030,
images/straw.jpg,straw,z,sounds/animalfarm_english.wav,,,,,,,,,0,1,1,1,0,9,9,109,600.509645265,9.30123496801e-06,601.420894712,0.911260672729,,,,,z,1,0.900514809648,2018_Nov_14_1535,59.9805890722,spanish_cond2,001,1030,
images/weight01.jpg,weight,z,sounds/animalfarm_english.wav,,,,,,,,,0,1,1,1,0,10,10,67,602.5247762,9.62207559496e-06,603.18807698,0.663317458122,,,,,z,1,0.650411774055,2018_Nov_14_1535,59.9805890722,spanish_cond2,001,1030,
images/handfan01b.jpg,handfan,z,sounds/animalfarm_english.wav,,,,,,,,,0,1,1,1,0,11,11,69,604.302565453,9.30135138333e-06,604.955336224,0.652781354846,,,,,z,1,0.633851008257,2018_Nov_14_1535,59.9805890722,spanish_cond2,001,1030,
images/cauliflower01.jpg,glue stick,x,sounds/animalfarm_english.wav,,,,,,,,,0,1,1,1,0,12,12,181,606.071493153,9.30123496801e-06,606.822452388,0.750969497836,,,,,x,1,0.733780094073,2018_Nov_14_1535,59.9805890722,spanish_cond2,001,1030,
images/treadmill.jpg,lily,x,sounds/animalfarm_english.wav,,,,,,,,,0,1,1,1,0,13,13,199,607.92799239,9.30135138333e-06,608.622974607,0.694993121899,,,,,x,1,0.683763913112,2018_Nov_14_1535,59.9805890722,spanish_cond2,001,1030,
images/leek.jpg,donut,x,sounds/animalfarm_english.wav,,,,,,,,,0,1,1,1,0,14,14,169,609.723289214,9.30135138333e-06,610.356834563,0.633555291803,,,,,x,1,0.617105820682,2018_Nov_14_1535,59.9805890722,spanish_cond2,001,1030,
images/scissors04a.jpg,leek,x,sounds/animalfarm_english.wav,,,,,,,,,0,1,1,1,0,15,15,194,611.450598184,9.62207559496e-06,612.357431449,0.906843527802,,,,,x,1,0.883864879957,2018_Nov_14_1535,59.9805890722,spanish_cond2,001,1030,
images/parkfountain.jpg,park fountain,z,sounds/animalfarm_english.wav,,,,,,,,,0,1,1,1,0,16,16,93,613.477251479,9.30135138333e-06,614.241275481,0.764033945277,,,,,z,1,0.750453437329,2018_Nov_14_1535,59.9805890722,spanish_cond2,001,1030,
images/antelope.jpg,antelope,z,sounds/animalfarm_english.wav,,,,,,,,,0,1,1,1,0,17,17,12,615.344344871,9.30123496801e-06,615.908458101,0.564123493969,,,,,z,1,0.55042463541,2018_Nov_14_1535,59.9805890722,spanish_cond2,001,1030,
images/skateboard.jpg,key,x,sounds/animalfarm_english.wav,,,,,,,,,0,1,1,1,0,18,18,189,616.998311658,9.94268339127e-06,617.875676868,0.87737579504,,,,,x,1,0.867152086459,2018_Nov_14_1535,59.9805890722,spanish_cond2,001,1030,
images/feather03b.jpg,feather,z,sounds/animalfarm_english.wav,,,,,,,,,0,1,1,1,0,19,19,114,618.974972505,9.30135138333e-06,619.676213841,0.70125192008,,,,,z,1,0.683797590085,2018_Nov_14_1535,59.9805890722,spanish_cond2,001,1030,
images/honeycomb.jpg,honey comb,z,sounds/animalfarm_english.wav,,,,,,,,,0,1,1,1,0,20,20,59,620.787676191,8.98051075637e-06,621.410039479,0.622373230755,,,,,z,1,0.600434401771,2018_Nov_14_1535,59.9805890722,spanish_cond2,001,1030,
images/table02.jpg,table,z,sounds/animalfarm_english.wav,,,,,,,,,0,1,1,1,0,21,21,49,622.523236357,9.30123496801e-06,623.077205101,0.553979006596,,,,,z,1,0.53375610325,2018_Nov_14_1535,59.9805890722,spanish_cond2,001,1030,
images/grandpiano.jpg,tulip,x,sounds/animalfarm_english.wav,,,,,,,,,0,1,1,1,0,22,22,236,624.190703469,8.98051075637e-06,625.111110505,0.920417300193,,,,,x,1,0.900507432758,2018_Nov_14_1535,59.9805890722,spanish_cond2,001,1030,
images/butterfly.jpg,butterfly,z,sounds/animalfarm_english.wav,,,,,,,,,0,1,1,1,0,23,23,91,626.217248034,8.98051075637e-06,626.811611908,0.59437381709,,,,,z,1,0.583730909508,2018_Nov_14_1535,59.9805890722,spanish_cond2,001,1030,
images/corn01.jpg,corn,z,sounds/animalfarm_english.wav,,,,,,,,,0,1,1,1,0,24,24,22,627.909763488,9.30123496801e-06,628.712158471,0.802405246417,,,,,z,1,0.783802689752,2018_Nov_14_1535,59.9805890722,spanish_cond2,001,1030,
images/bullet (2).jpg,rubber glove,x,sounds/animalfarm_english.wav,,,,,,,,,0,1,1,1,0,25,25,217,629.815466486,9.30123496801e-06,630.57937278,0.763916235883,,,,,x,1,0.750473322812,2018_Nov_14_1535,59.9805890722,spanish_cond2,001,1030,
images/candle08a.jpg,screw driver,x,sounds/animalfarm_english.wav,,,,,,,,,0,1,1,1,0,26,26,221,631.691367548,9.62195917964e-06,632.413236232,0.721878947923,,,,,x,1,0.700451689307,2018_Nov_14_1535,59.9805890722,spanish_cond2,001,1030,
images/bowtie.jpg,bowtie,z,sounds/animalfarm_english.wav,,,,,,,,,0,1,1,1,0,27,27,89,633.522180181,8.98051075637e-06,634.213754602,0.691584363696,,,,,z,1,0.667102437001,2018_Nov_14_1535,59.9805890722,spanish_cond2,001,1030,
images/swan.jpg,swan,z,sounds/animalfarm_english.wav,,,,,,,,,0,1,1,1,0,28,28,54,635.305745849,8.98051075637e-06,635.980938794,0.675202888087,,,,,z,1,0.667116869823,2018_Nov_14_1535,59.9805890722,spanish_cond2,001,1030,
images/lightswitch02a.jpg,fork,x,sounds/animalfarm_english.wav,,,,,,,,,0,1,1,1,0,29,29,177,637.091470054,9.30135138333e-06,637.931332511,0.839873682242,,,,,x,1,0.816975217895,2018_Nov_14_1535,59.9805890722,spanish_cond2,001,1030,
images/lantern03.jpg,lantern,z,sounds/animalfarm_english.wav,,,,,,,,,0,1,1,1,0,30,30,5,639.036728503,9.62195917964e-06,639.732044925,0.695326684974,,,,,z,1,0.683786043664,2018_Nov_14_1535,59.9805890722,spanish_cond2,001,1030,
images/peach01.jpg,peach,z,sounds/animalfarm_english.wav,,,,,,,,,0,1,1,1,0,31,31,106,640.859281922,9.62207559496e-06,641.465873129,0.606601149309,,,,,z,1,0.583763303701,2018_Nov_14_1535,59.9805890722,spanish_cond2,001,1030,
images/snowman.jpg,globe,x,sounds/animalfarm_english.wav,,,,,,,,,0,1,1,1,0,32,32,180,642.575962097,9.30135138333e-06,643.499810286,0.923858773313,,,,,x,1,0.900530846324,2018_Nov_14_1535,59.9805890722,spanish_cond2,001,1030,
images/grasshopper.jpg,cauliflower,x,sounds/animalfarm_english.wav,,,,,,,,,0,1,1,1,0,33,33,148,644.591587282,9.62195917964e-06,645.483700472,0.89212345297,,,,,x,1,0.883843070129,2018_Nov_14_1535,59.9805890722,spanish_cond2,001,1030,
images/birthdaycandle.jpg,birthday candle,z,sounds/animalfarm_english.wav,,,,,,,,,0,1,1,1,0,34,34,55,646.578568379,9.94268339127e-06,647.267816198,0.689258402679,,,,,z,1,0.667370249517,2018_Nov_14_1535,59.9805890722,spanish_cond2,001,1030,
images/headphones02b.jpg,headphones,z,sounds/animalfarm_english.wav,,,,,,,,,0,1,1,1,0,35,35,101,648.37395982,9.62195917964e-06,649.234788962,0.860839405097,,,,,z,1,0.850489327451,2018_Nov_14_1535,59.9805890722,spanish_cond2,001,1030,
images/highheelshoe02a.jpg,high heel shoe,z,sounds/animalfarm_english.wav,,,,,,,,,0,1,1,1,0,36,36,75,650.339661517,9.62195917964e-06,651.018644894,0.678993960842,,,,,z,1,0.667113341857,2018_Nov_14_1535,59.9805890722,spanish_cond2,001,1030,
images/bowlingball.jpg,bowling ball,z,sounds/animalfarm_english.wav,,,,,,,,,0,1,1,1,0,37,37,20,652.149605931,9.62207559496e-06,652.852516365,0.702921339078,,,,,z,1,0.683786043664,2018_Nov_14_1535,59.9805890722,spanish_cond2,001,1030,
images/computerkeyboard01a.jpg,computer keyboard,z,sounds/animalfarm_english.wav,,,,,,,,,0,1,1,1,0,38,38,61,653.968338769,9.30135138333e-06,654.553012957,0.584684450994,,,,,z,1,0.567096054321,2018_Nov_14_1535,59.9805890722,spanish_cond2,001,1030,
images/licenseplate.jpg,license plate,z,sounds/animalfarm_english.wav,,,,,,,,,0,1,1,1,0,39,39,40,655.669200677,9.62207559496e-06,656.337113929,0.667923194589,,,,,z,1,0.650688246475,2018_Nov_14_1535,59.9805890722,spanish_cond2,001,1030,
images/bed.jpg,bed,z,sounds/animalfarm_english.wav,,,,,,,,,0,1,1,1,0,40,40,103,657.455207449,9.30135138333e-06,657.98736277,0.53216558462,,,,,z,1,0.517104248982,2018_Nov_14_1535,59.9805890722,spanish_cond2,001,1030,
images/coffeepot03b.jpg,coffee pot,z,sounds/animalfarm_english.wav,,,,,,,,,0,1,1,1,0,41,41,107,659.10771618,8.98051075637e-06,659.72116275,0.613456191495,,,,,z,1,0.600420610164,2018_Nov_14_1535,59.9805890722,spanish_cond2,001,1030,
images/aquarium.jpg,computer mouse,x,sounds/animalfarm_english.wav,,,,,,,,,0,1,1,1,0,42,42,159,660.855777906,9.62207559496e-06,661.655139069,0.799372067559,,,,,x,1,0.783886080608,2018_Nov_14_1535,59.9805890722,spanish_cond2,001,1030,
images/sock03.jpg,sock,z,sounds/animalfarm_english.wav,,,,,,,,,0,1,1,1,0,43,43,90,662.759493318,9.30123496801e-06,663.488930356,0.729447301943,,,,,z,1,0.717122787377,2018_Nov_14_1535,59.9805890722,spanish_cond2,001,1030,
images/8ball.jpg,nail clipper,x,sounds/animalfarm_english.wav,,,,,,,,,0,1,1,1,0,44,44,206,664.604664559,9.30123496801e-06,665.956317348,1.35166273173,,,,,x,1,1.33396592713,2018_Nov_14_1535,59.9805890722,spanish_cond2,001,1030,
images/acousticguitar02.jpg,acoustic guitar,z,sounds/animalfarm_english.wav,,,,,,,,,0,1,1,1,0,45,45,97,667.069152439,9.62195917964e-06,667.723490635,0.654348780517,,,,,z,1,0.633766655345,2018_Nov_14_1535,59.9805890722,spanish_cond2,001,1030,
images/kiwi03.jpg,backpack,x,sounds/animalfarm_english.wav,,,,,,,,,0,1,1,1,0,46,46,125,668.850865227,9.62207559496e-06,669.724067956,0.873212991981,,,,,x,1,0.850488044554,2018_Nov_14_1535,59.9805890722,spanish_cond2,001,1030,
images/nametag01a.jpg,name tag,z,sounds/animalfarm_english.wav,,,,,,,,,0,1,1,1,0,47,47,108,670.843951812,9.62195917964e-06,671.574633297,0.730692069628,,,,,z,1,0.717133050901,2018_Nov_14_1535,59.9805890722,spanish_cond2,001,1030,
images/ashtray02b.jpg,ashtray,z,sounds/animalfarm_english.wav,,,,,,,,,0,1,1,1,0,48,48,43,672.687788801,9.30123496801e-06,673.425175866,0.737397008343,,,,,z,1,0.717151332763,2018_Nov_14_1535,59.9805890722,spanish_cond2,001,1030,
images/gps.jpg,gps,z,sounds/animalfarm_english.wav,,,,,,,,,0,1,1,1,0,49,49,21,674.543622194,9.30123496801e-06,675.309043954,0.765431702719,,,,,z,1,0.750478454516,2018_Nov_14_1535,59.9805890722,spanish_cond2,001,1030,
images/croissant02b.jpg,croissant,z,sounds/animalfarm_english.wav,,,,,,,,,0,1,1,1,0,50,50,39,676.420059522,9.30135138333e-06,676.959519874,0.539470295422,,,,,z,1,0.517078590347,2018_Nov_14_1535,59.9805890722,spanish_cond2,001,1030,
images/parkingmeter.jpg,ear,x,sounds/animalfarm_english.wav,,,,,,,,,0,1,1,1,0,51,51,171,678.061294462,9.62207559496e-06,678.810058274,0.748773754807,,,,,x,1,0.733812808874,2018_Nov_14_1535,59.9805890722,spanish_cond2,001,1030,
images/printer03a.jpg,printer,z,sounds/animalfarm_english.wav,,,,,,,,,0,1,1,1,0,52,52,72,679.919441628,9.30135138333e-06,680.727276576,0.807844569907,,,,,z,1,0.783821612946,2018_Nov_14_1535,59.9805890722,spanish_cond2,001,1030,
images/graduationcap.jpg,graduation cap,z,sounds/animalfarm_english.wav,,,,,,,,,0,1,1,1,0,53,53,35,681.829164062,9.30123496801e-06,682.511134432,0.681980312685,,,,,z,1,0.667125529726,2018_Nov_14_1535,59.9805890722,spanish_cond2,001,1030,
images/beachumbrella01.jpg,beach umbrella,z,sounds/animalfarm_english.wav,,,,,,,,,0,1,1,1,0,54,54,92,683.617711366,9.30123496801e-06,684.294981704,0.677280921955,,,,,z,1,0.667106285691,2018_Nov_14_1535,59.9805890722,spanish_cond2,001,1030,
images/toucan.jpg,toucan,z,sounds/animalfarm_english.wav,,,,,,,,,0,1,1,1,0,55,55,81,685.395604857,9.30135138333e-06,685.962131609,0.566536694765,,,,,z,1,0.55041822081,2018_Nov_14_1535,59.9805890722,spanish_cond2,001,1030,
images/baseball01a.jpg,baseball,z,sounds/animalfarm_english.wav,,,,,,,,,0,1,1,1,0,56,56,74,687.09443203,8.65978654474e-06,687.862675926,0.768253518268,,,,,z,1,0.750468511833,2018_Nov_14_1535,59.9805890722,spanish_cond2,001,1030,
images/fireextinguisher02.jpg,fire extinguisher,z,sounds/animalfarm_english.wav,,,,,,,,,0,1,1,1,0,57,57,175,688.973081459,9.30123496801e-06,689.596562183,0.623491308652,,,,,z,1,0.600431194413,2018_Nov_14_1535,59.9805890722,spanish_cond2,001,1030,
images/stapler03a.jpg,candy cane,x,sounds/animalfarm_english.wav,,,,,,,,,0,1,1,1,0,58,58,145,690.707002034,9.62195917964e-06,691.780502981,1.07351056859,,,,,x,1,1.05057906872,2018_Nov_14_1535,59.9805890722,spanish_cond2,001,1030,
images/apricot.jpg,apricot,z,sounds/animalfarm_english.wav,,,,,,,,,0,1,1,1,0,59,59,32,692.897558928,9.30135138333e-06,693.631035608,0.733486622688,,,,,z,1,0.717141389963,2018_Nov_14_1535,59.9805890722,spanish_cond2,001,1030,
images/screwdriver02b.jpg,cola,x,sounds/animalfarm_english.wav,,,,,,,,,0,1,1,1,0,60,60,158,694.72433224,9.62207559496e-06,695.381541645,0.657219989109,,,,,x,1,0.633780126111,2018_Nov_14_1535,59.9805890722,spanish_cond2,001,1030,
images/lamp04b.jpg,parking meter,x,sounds/animalfarm_english.wav,,,,,,,,,0,1,1,1,0,61,61,209,696.501997049,9.62195917964e-06,697.198734321,0.69674721465,,,,,x,1,0.683794062003,2018_Nov_14_1535,59.9805890722,spanish_cond2,001,1030,
images/chameleon.jpg,50 dollar bill,x,sounds/animalfarm_english.wav,,,,,,,,,0,1,1,1,0,62,62,120,698.30908597,8.98051075637e-06,699.449383245,1.14030689723,,,,,x,1,1.11724838673,2018_Nov_14_1535,59.9805890722,spanish_cond2,001,1030,
images/paintbrush03a.jpg,paint brush,z,sounds/animalfarm_english.wav,,,,,,,,,0,1,1,1,0,63,63,0,700.549825184,9.30123496801e-06,701.183215298,0.633400698076,,,,,z,1,0.617080482771,2018_Nov_14_1535,59.9805890722,spanish_cond2,001,1030,
images/corkscrew02a.jpg,masquerade mask,x,sounds/animalfarm_english.wav,,,,,,,,,0,1,1,1,0,64,64,201,702.287155159,9.62207559496e-06,703.133796965,0.846652069013,,,,,x,1,0.833834907389,2018_Nov_14_1535,59.9805890722,spanish_cond2,001,1030,
images/glasses01b.jpg,calculator,x,sounds/animalfarm_english.wav,,,,,,,,,0,1,1,1,0,65,65,142,704.22672315,9.30123496801e-06,704.917644236,0.690931029036,,,,,x,1,0.667127133464,2018_Nov_14_1535,59.9805890722,spanish_cond2,001,1030,
images/wallet01.jpg,lamp,x,sounds/animalfarm_english.wav,,,,,,,,,0,1,1,1,0,66,66,193,706.02289205,9.94279980659e-06,706.718154588,0.695272801677,,,,,x,1,0.68378828885,2018_Nov_14_1535,59.9805890722,spanish_cond2,001,1030,
images/tape01a.jpg,tie,x,sounds/animalfarm_english.wav,,,,,,,,,0,1,1,1,0,67,67,232,707.843522349,9.62207559496e-06,708.502018538,0.658506131382,,,,,x,1,0.650452507194,2018_Nov_14_1535,59.9805890722,spanish_cond2,001,1030,
images/gluestick.jpg,squirrel,x,sounds/animalfarm_english.wav,,,,,,,,,0,1,1,1,0,68,68,226,709.610534307,9.30123496801e-06,710.202528921,0.592004557024,,,,,x,1,0.583782868343,2018_Nov_14_1535,59.9805890722,spanish_cond2,001,1030,
images/doll.jpg,carrot,x,sounds/animalfarm_english.wav,,,,,,,,,0,1,1,1,0,69,69,146,711.313451797,9.62207559496e-06,712.036646395,0.723205182003,,,,,x,1,0.700723671587,2018_Nov_14_1535,59.9805890722,spanish_cond2,001,1030,
images/tissuebox03.jpg,tissue box,z,sounds/animalfarm_english.wav,,,,,,,,,0,1,1,1,0,70,70,58,713.161776172,9.62195917964e-06,714.120316526,0.958550617099,,,,,z,1,0.933860534104,2018_Nov_14_1535,59.9805890722,spanish_cond2,001,1030,
images/mirror02.jpg,8 ball,x,sounds/animalfarm_english.wav,,,,,,,,,0,1,1,1,0,71,71,121,715.220260686,9.62207559496e-06,716.220914341,1.00066423963,,,,,x,1,0.983868055278,2018_Nov_14_1535,59.9805890722,spanish_cond2,001,1030,
images/dice05a.jpg,band aid,x,sounds/animalfarm_english.wav,,,,,,,,,0,1,1,1,0,72,72,126,717.333868103,9.30135138333e-06,718.054795434,0.720937273814,,,,,x,1,0.700464198017,2018_Nov_14_1535,59.9805890722,spanish_cond2,001,1030,
images/egg01b (1).jpg,egg,z,sounds/animalfarm_english.wav,,,,,,,,,0,1,1,1,0,73,73,19,719.167514419,9.30135138333e-06,719.85532086,0.687816704623,,,,,z,1,0.667124888278,2018_Nov_14_1535,59.9805890722,spanish_cond2,001,1030,
images/lollipop03b.jpg,lollipop,z,sounds/animalfarm_english.wav,,,,,,,,,0,1,1,1,0,74,74,42,720.948809933,9.30123496801e-06,721.805887132,0.857087141136,,,,,z,1,0.833840039209,2018_Nov_14_1535,59.9805890722,spanish_cond2,001,1030,
images/volleyball.jpg,volley ball,z,sounds/animalfarm_english.wav,,,,,,,,,0,1,1,1,0,75,75,2,722.937444413,9.62207559496e-06,723.739791927,0.802358419402,,,,,z,1,0.783823858132,2018_Nov_14_1535,59.9805890722,spanish_cond2,001,1030,
images/atm.jpg,atm,z,sounds/animalfarm_english.wav,,,,,,,,,0,1,1,1,0,76,76,96,724.877218956,9.30123496801e-06,725.506962328,0.629753314075,,,,,z,1,0.617107103579,2018_Nov_14_1535,59.9805890722,spanish_cond2,001,1030,
images/cloud.jpg,ceiling fan,x,sounds/animalfarm_english.wav,,,,,,,,,0,1,1,1,0,77,77,149,726.61241958,9.30123496801e-06,727.857647142,1.24523782567,,,,,x,1,1.23396050674,2018_Nov_14_1535,59.9805890722,spanish_cond2,001,1030,
images/raisin.jpg,ruler,x,sounds/animalfarm_english.wav,,,,,,,,,0,1,1,1,0,78,78,218,728.96332538,8.98051075637e-06,729.858210671,0.894894913188,,,,,x,1,0.883842749405,2018_Nov_14_1535,59.9805890722,spanish_cond2,001,1030,
images/bowl02b (1).jpg,bowl,z,sounds/animalfarm_english.wav,,,,,,,,,0,1,1,1,0,79,79,24,730.976282382,9.62195917964e-06,732.192231123,1.21595900506,,,,,z,1,1.20060516032,2018_Nov_14_1535,59.9805890722,spanish_cond2,001,1030,
images/candy.jpg,candy,z,sounds/animalfarm_english.wav,,,,,,,,,0,1,1,1,0,80,80,31,733.294408873,9.30123496801e-06,734.026101632,0.731702380814,,,,,z,1,0.717140107066,2018_Nov_14_1535,59.9805890722,spanish_cond2,001,1030,
images/seagull.jpg,seagull,z,sounds/animalfarm_english.wav,,,,,,,,,0,1,1,1,0,81,81,50,735.133665784,9.30135138333e-06,735.676576911,0.54292106966,,,,,z,1,0.53374359454,2018_Nov_14_1535,59.9805890722,spanish_cond2,001,1030,
images/pen03c.jpg,pepper,x,sounds/animalfarm_english.wav,,,,,,,,,0,1,1,1,0,82,82,211,736.770674737,8.98051075637e-06,737.443761103,0.67309630895,,,,,x,1,0.650450262008,2018_Nov_14_1535,59.9805890722,spanish_cond2,001,1030,
images/pouch01b.jpg,pouch,z,sounds/animalfarm_english.wav,,,,,,,,,0,1,1,1,0,83,83,25,738.554498275,9.30123496801e-06,739.444330406,0.889842073899,,,,,z,1,0.867170368321,2018_Nov_14_1535,59.9805890722,spanish_cond2,001,1030,
images/backpack01b.jpg,swallow,x,sounds/animalfarm_english.wav,,,,,,,,,0,1,1,1,0,84,84,228,740.575471695,9.30123496801e-06,741.4782573,0.902795868111,,,,,x,1,0.88382831635,2018_Nov_14_1535,59.9805890722,spanish_cond2,001,1030,
images/basketball01.jpg,basket ball,z,sounds/animalfarm_english.wav,,,,,,,,,0,1,1,1,0,85,85,33,742.61771746,9.30135138333e-06,743.445507178,0.827800302184,,,,,z,1,0.817167337402,2018_Nov_14_1535,59.9805890722,spanish_cond2,001,1030,
images/mailbox01.jpg,mail box,z,sounds/animalfarm_english.wav,,,,,,,,,0,1,1,1,0,86,86,73,744.565075432,9.30135138333e-06,745.562794373,0.997729205177,,,,,z,1,0.983887620037,2018_Nov_14_1535,59.9805890722,spanish_cond2,001,1030,
images/cat.jpg,black olive,x,sounds/animalfarm_english.wav,,,,,,,,,0,1,1,1,0,87,87,133,746.693307345,9.62207559496e-06,747.379980634,0.686683872947,,,,,x,1,0.667116869939,2018_Nov_14_1535,59.9805890722,spanish_cond2,001,1030,
images/binder03b.jpg,dj mixer,x,sounds/animalfarm_english.wav,,,,,,,,,0,1,1,1,0,88,88,167,748.491504565,9.30135138333e-06,749.197163367,0.705668744282,,,,,x,1,0.683767441195,2018_Nov_14_1535,59.9805890722,spanish_cond2,001,1030,
images/clothespin02a.jpg,clothes pin,z,sounds/animalfarm_english.wav,,,,,,,,,0,1,1,1,0,89,89,79,750.302139519,9.62195917964e-06,750.897677278,0.595548343961,,,,,z,1,0.583769718301,2018_Nov_14_1535,59.9805890722,spanish_cond2,001,1030,
images/tulip02.jpg,sport shorts,x,sounds/animalfarm_english.wav,,,,,,,,,0,1,1,1,0,90,90,225,751.992022711,9.62195917964e-06,752.88157869,0.889566884376,,,,,x,1,0.867168764584,2018_Nov_14_1535,59.9805890722,spanish_cond2,001,1030,
images/lighter02b.jpg,stapler,x,sounds/animalfarm_english.wav,,,,,,,,,0,1,1,1,0,91,91,227,753.983144801,1.02635240182e-05,754.815488296,0.832354079816,,,,,x,1,0.817171186209,2018_Nov_14_1535,59.9805890722,spanish_cond2,001,1030,
images/swallow.jpg,mattress,x,sounds/animalfarm_english.wav,,,,,,,,,0,1,1,1,0,92,92,202,755.917355255,9.94279980659e-06,756.916083225,0.99873855419,,,,,x,1,0.983871904085,2018_Nov_14_1535,59.9805890722,spanish_cond2,001,1030,
images/spoon02b.jpg,spoon,z,sounds/animalfarm_english.wav,,,,,,,,,0,1,1,1,0,93,93,38,758.007747003,9.30123496801e-06,758.849971663,0.842235244694,,,,,z,1,0.833823681809,2018_Nov_14_1535,59.9805890722,spanish_cond2,001,1030,
images/battery03b.jpg,battery,z,sounds/animalfarm_english.wav,,,,,,,,,0,1,1,1,0,94,94,34,759.96037912,9.62195917964e-06,760.883897595,0.923528738203,,,,,z,1,0.900517696398,2018_Nov_14_1535,59.9805890722,spanish_cond2,001,1030,
images/radio03a.jpg,radio,z,sounds/animalfarm_english.wav,,,,,,,,,0,1,1,1,0,95,95,37,761.99701461,9.30135138333e-06,762.734435674,0.737431006157,,,,,z,1,0.717127598473,2018_Nov_14_1535,59.9805890722,spanish_cond2,001,1030,
images/hairdryer03a.jpg,hairdryer,z,sounds/animalfarm_english.wav,,,,,,,,,0,1,1,1,0,96,96,119,763.832398341,9.30123496801e-06,764.418260847,0.585872769356,,,,,z,1,0.56708931888,2018_Nov_14_1535,59.9805890722,spanish_cond2,001,1030,
images/lipstick04.jpg,lipstick,z,sounds/animalfarm_english.wav,,,,,,,,,0,1,1,1,0,97,97,56,765.51752409,8.9806271717e-06,766.252140016,0.734626189689,,,,,z,1,0.717097128741,2018_Nov_14_1535,59.9805890722,spanish_cond2,001,1030,
images/orange.jpg,bat,x,sounds/animalfarm_english.wav,,,,,,,,,0,1,1,1,0,98,98,128,767.375916938,9.62207559496e-06,768.152510174,0.776603821083,,,,,x,1,0.766943320865,2018_Nov_14_1535,59.9805890722,spanish_cond2,001,1030,
images/worldmap.jpg,scooter,x,sounds/animalfarm_english.wav,,,,,,,,,0,1,1,1,0,99,99,220,769.283373388,9.62195917964e-06,770.036550496,0.753187692375,,,,,x,1,0.733793885564,2018_Nov_14_1535,59.9805890722,spanish_cond2,001,1030,
images/safe.jpg,safe,z,sounds/animalfarm_english.wav,,,,,,,,,0,1,1,1,0,100,100,78,771.147600703,9.62195917964e-06,771.853762415,0.70617261692,,,,,z,1,0.683797269361,2018_Nov_14_1535,59.9805890722,spanish_cond2,001,1030,
images/ladybug03.jpg,giraffe,x,sounds/animalfarm_english.wav,,,,,,,,,0,1,1,1,0,101,101,178,772.956183602,9.30123496801e-06,773.554289477,0.598116138251,,,,,x,1,0.583796339226,2018_Nov_14_1535,59.9805890722,spanish_cond2,001,1030,
images/key03b.jpg,cigar,x,sounds/animalfarm_english.wav,,,,,,,,,0,1,1,1,0,102,102,153,774.656208074,9.30123496801e-06,775.321431973,0.665234804386,,,,,x,1,0.650447696215,2018_Nov_14_1535,59.9805890722,spanish_cond2,001,1030,
images/screw03c.jpg,screw,z,sounds/animalfarm_english.wav,,,,,,,,,0,1,1,1,0,103,103,84,776.415501254,8.98051075637e-06,777.255340938,0.839849627111,,,,,z,1,0.817176959361,2018_Nov_14_1535,59.9805890722,spanish_cond2,001,1030,
images/panda.jpg,panda,z,sounds/animalfarm_english.wav,,,,,,,,,0,1,1,1,0,104,104,83,778.365122323,9.62195917964e-06,779.105868433,0.740756373503,,,,,z,1,0.717136578984,2018_Nov_14_1535,59.9805890722,spanish_cond2,001,1030,
images/electricguitar02.jpg,electric guitar,z,sounds/animalfarm_english.wav,,,,,,,,,0,1,1,1,0,105,105,100,780.206679857,9.94268339127e-06,781.13978346,0.933113865904,,,,,z,1,0.917184304213,2018_Nov_14_1535,59.9805890722,spanish_cond2,001,1030,
images/giraffe.jpg,lettuce,x,sounds/animalfarm_english.wav,,,,,,,,,0,1,1,1,0,106,106,195,782.239915891,9.62207559496e-06,782.906963162,0.667057534214,,,,,x,1,0.650438394863,2018_Nov_14_1535,59.9805890722,spanish_cond2,001,1030,
images/toothbrush03a.jpg,parrot,x,sounds/animalfarm_english.wav,,,,,,,,,0,1,1,1,0,107,107,210,783.998636882,9.30123496801e-06,784.790843437,0.792217139271,,,,,x,1,0.783816160634,2018_Nov_14_1535,59.9805890722,spanish_cond2,001,1030,
images/highlighter03b.jpg,coin,x,sounds/animalfarm_english.wav,,,,,,,,,0,1,1,1,0,108,108,156,785.891298526,1.05842482299e-05,786.508013372,0.616726071923,,,,,x,1,0.600427987054,2018_Nov_14_1535,59.9805890722,spanish_cond2,001,1030,
images/ceilingfan02.jpg,paper clip,x,sounds/animalfarm_english.wav,,,,,,,,,0,1,1,1,0,109,109,208,787.604740573,9.62207559496e-06,788.408579499,0.803849510499,,,,,x,1,0.783826744766,2018_Nov_14_1535,59.9805890722,spanish_cond2,001,1030,
images/dolphin01.jpg,dolphin,z,sounds/animalfarm_english.wav,,,,,,,,,0,1,1,1,0,110,110,99,789.507021984,9.62207559496e-06,790.2257571,0.718744738027,,,,,z,1,0.700456179678,2018_Nov_14_1535,59.9805890722,spanish_cond2,001,1030,
images/lightbulb03b.jpg,treadmill,x,sounds/animalfarm_english.wav,,,,,,,,,0,1,1,1,0,111,111,234,791.327369076,9.62207559496e-06,792.226335704,0.898977212259,,,,,x,1,0.883840504219,2018_Nov_14_1535,59.9805890722,spanish_cond2,001,1030,
images/blueberry02.jpg,blueberry,z,sounds/animalfarm_english.wav,,,,,,,,,0,1,1,1,0,112,112,46,793.339555675,9.30123496801e-06,794.14359506,0.804088457022,,,,,z,1,0.783844705904,2018_Nov_14_1535,59.9805890722,spanish_cond2,001,1030,
images/broadsword.jpg,teapot,x,sounds/animalfarm_english.wav,,,,,,,,,0,1,1,1,0,113,113,231,795.235549742,9.30135138333e-06,795.894091154,0.6585516755,,,,,x,1,0.650428772788,2018_Nov_14_1535,59.9805890722,spanish_cond2,001,1030,
images/aloe02.jpg,broad sword,x,sounds/animalfarm_english.wav,,,,,,,,,0,1,1,1,0,114,114,137,797.015033752,9.30123496801e-06,797.62790268,0.612878870685,,,,,x,1,0.600425100536,2018_Nov_14_1535,59.9805890722,spanish_cond2,001,1030,
images/hairpin.jpg,hair pin,z,sounds/animalfarm_english.wav,,,,,,,,,0,1,1,1,0,115,115,28,798.717844118,9.62207559496e-06,799.361736658,0.643902482931,,,,,z,1,0.6337612028,2018_Nov_14_1535,59.9805890722,spanish_cond2,001,1030,
images/puma.jpg,puma,z,sounds/animalfarm_english.wav,,,,,,,,,0,1,1,1,0,116,116,4,800.460523611,9.30135138333e-06,801.06223325,0.601719902596,,,,,z,1,0.583749512094,2018_Nov_14_1535,59.9805890722,spanish_cond2,001,1030,
images/flipflop01b.jpg,flip flop,z,sounds/animalfarm_english.wav,,,,,,,,,0,1,1,1,0,117,117,27,802.178216663,9.30123496801e-06,802.82943412,0.651227079099,,,,,z,1,0.633784937207,2018_Nov_14_1535,59.9805890722,spanish_cond2,001,1030,
images/broom02.jpg,broom,z,sounds/animalfarm_english.wav,,,,,,,,,0,1,1,1,0,118,118,116,803.923477421,9.30123496801e-06,804.763322558,0.839855079656,,,,,z,1,0.817163167871,2018_Nov_14_1535,59.9805890722,spanish_cond2,001,1030,
images/candycane01a.jpg,lip,x,sounds/animalfarm_english.wav,,,,,,,,,0,1,1,1,0,119,119,200,805.855860014,9.30123496801e-06,806.780578674,0.924729244551,,,,,x,1,0.900527639082,2018_Nov_14_1535,59.9805890722,spanish_cond2,001,1030,
images/blackolive.jpg,tank,x,sounds/animalfarm_english.wav,,,,,,,,,0,1,1,1,0,120,120,229,807.894274293,9.62207559496e-06,809.031232089,1.13696870056,,,,,x,1,1.11719129619,2018_Nov_14_1535,59.9805890722,spanish_cond2,001,1030,
images/lemon02.jpg,lemon,z,sounds/animalfarm_english.wav,,,,,,,,,0,1,1,1,0,121,121,14,810.141892926,9.30123496801e-06,810.765073764,0.623191101826,,,,,z,1,0.600438892143,2018_Nov_14_1535,59.9805890722,spanish_cond2,001,1030,
images/microphone01.jpg,diaper,x,sounds/animalfarm_english.wav,,,,,,,,,0,1,1,1,0,122,122,164,811.862878951,8.98051075637e-06,812.615429345,0.752561940928,,,,,x,1,0.733629349153,2018_Nov_14_1535,59.9805890722,spanish_cond2,001,1030,
images/computermouse02a.jpg,world map,x,sounds/animalfarm_english.wav,,,,,,,,,0,1,1,1,0,123,123,239,813.71628888,9.62195917964e-06,814.516153915,0.799875619472,,,,,x,1,0.78378216282,2018_Nov_14_1535,59.9805890722,spanish_cond2,001,1030,
images/tent.jpg,tent,z,sounds/animalfarm_english.wav,,,,,,,,,0,1,1,1,0,124,124,11,815.642854004,9.30135138333e-06,816.216635433,0.573791371076,,,,,z,1,0.55039833521,2018_Nov_14_1535,59.9805890722,spanish_cond2,001,1030,
images/hand01a.jpg,cupcake,x,sounds/animalfarm_english.wav,,,,,,,,,0,1,1,1,0,125,125,163,817.326677253,9.30123496801e-06,818.034186368,0.707534773159,,,,,x,1,0.684068289353,2018_Nov_14_1535,59.9805890722,spanish_cond2,001,1030,
images/banana04a.jpg,banana,z,sounds/animalfarm_english.wav,,,,,,,,,0,1,1,1,0,126,126,118,819.139903094,9.30135138333e-06,820.067771039,0.927878208458,,,,,z,1,0.917192001827,2018_Nov_14_1535,59.9805890722,spanish_cond2,001,1030,
images/banjo.jpg,knife,x,sounds/animalfarm_english.wav,,,,,,,,,0,1,1,1,0,127,127,191,821.163549188,9.30123496801e-06,821.934971556,0.771432310226,,,,,x,1,0.750470436178,2018_Nov_14_1535,59.9805890722,spanish_cond2,001,1030,
images/cupcake.jpg,scissors,x,sounds/animalfarm_english.wav,,,,,,,,,0,1,1,1,0,128,128,219,823.054503567,9.30123496801e-06,823.668806495,0.614313512691,,,,,x,1,0.600423817523,2018_Nov_14_1535,59.9805890722,spanish_cond2,001,1030,
images/carrot02.jpg,corkscrew,x,sounds/animalfarm_english.wav,,,,,,,,,0,1,1,1,0,129,129,161,824.770063098,8.98051075637e-06,825.352631348,0.582578192465,,,,,x,1,0.567083866452,2018_Nov_14_1535,59.9805890722,spanish_cond2,001,1030,
images/mattress.jpg,cat,x,sounds/animalfarm_english.wav,,,,,,,,,0,1,1,1,0,130,130,147,826.457625781,8.98051075637e-06,827.13649209,0.678876572405,,,,,x,1,0.667128095636,2018_Nov_14_1535,59.9805890722,spanish_cond2,001,1030,
images/knife04.jpg,tooth brush,x,sounds/animalfarm_english.wav,,,,,,,,,0,1,1,1,0,131,131,233,828.231966184,9.30135138333e-06,828.836969118,0.605013196589,,,,,x,1,0.583737965673,2018_Nov_14_1535,59.9805890722,spanish_cond2,001,1030,
images/coin01b.jpg,arrow,x,sounds/animalfarm_english.wav,,,,,,,,,0,1,1,1,0,132,132,124,829.93909106,9.30123496801e-06,831.070967792,1.13188635372,,,,,x,1,1.11724389659,2018_Nov_14_1535,59.9805890722,spanish_cond2,001,1030,
images/marker01a.jpg,marker,z,sounds/animalfarm_english.wav,,,,,,,,,0,1,1,1,0,133,133,95,832.16816583,9.30123496801e-06,832.921502022,0.753346776357,,,,,z,1,0.73379869666,2018_Nov_14_1535,59.9805890722,spanish_cond2,001,1030,
images/lettuce.jpg,mushroom,x,sounds/animalfarm_english.wav,,,,,,,,,0,1,1,1,0,134,134,205,834.044952758,8.98051075637e-06,834.722025203,0.677082708571,,,,,x,1,0.667115587043,2018_Nov_14_1535,59.9805890722,spanish_cond2,001,1030,
images/umbrella01.jpg,umbrella,z,sounds/animalfarm_english.wav,,,,,,,,,0,1,1,1,0,135,135,53,835.83537924,9.62207559496e-06,836.439188402,0.603819104959,,,,,z,1,0.583755605971,2018_Nov_14_1535,59.9805890722,spanish_cond2,001,1030,
images/camera01a.jpg,bull,x,sounds/animalfarm_english.wav,,,,,,,,,0,1,1,1,0,136,136,138,837.550620283,9.62195917964e-06,838.623176669,1.07256729074,,,,,x,1,1.05058580416,2018_Nov_14_1535,59.9805890722,spanish_cond2,001,1030,
images/chessknight02b (1).jpg,cockroach,x,sounds/animalfarm_english.wav,,,,,,,,,0,1,1,1,0,137,137,155,839.731828109,9.94268339127e-06,841.157233941,1.42541705805,,,,,x,1,1.41734547284,2018_Nov_14_1535,59.9805890722,spanish_cond2,001,1030,
images/gorilla.jpg,gorilla,z,sounds/animalfarm_english.wav,,,,,,,,,0,1,1,1,0,138,138,80,842.268101651,8.98051075637e-06,842.85771193,0.589620222338,,,,,z,1,0.567085790797,2018_Nov_14_1535,59.9805890722,spanish_cond2,001,1030,
images/leaf01a.jpg,leaf,z,sounds/animalfarm_english.wav,,,,,,,,,0,1,1,1,0,139,139,68,843.960710438,9.30135138333e-06,844.591559699,0.630859203986,,,,,z,1,0.617102292599,2018_Nov_14_1535,59.9805890722,spanish_cond2,001,1030,
images/cactus.jpg,cactus,z,sounds/animalfarm_english.wav,,,,,,,,,0,1,1,1,0,140,140,70,845.703224112,9.62207559496e-06,846.375411141,0.672196971602,,,,,z,1,0.650445130304,2018_Nov_14_1535,59.9805890722,spanish_cond2,001,1030,
images/scooter.jpg,pen,x,sounds/animalfarm_english.wav,,,,,,,,,0,1,1,1,0,141,141,212,847.467107633,9.30123496801e-06,848.292957874,0.825860183802,,,,,x,1,0.817487750319,2018_Nov_14_1535,59.9805890722,spanish_cond2,001,1030,
images/floorlamp.jpg,floor lamp,z,sounds/animalfarm_english.wav,,,,,,,,,0,1,1,1,0,142,142,26,849.384517413,8.98051075637e-06,850.126494499,0.741987349582,,,,,z,1,0.733777528163,2018_Nov_14_1535,59.9805890722,spanish_cond2,001,1030,
images/calculator02b.jpg,dice,x,sounds/animalfarm_english.wav,,,,,,,,,0,1,1,1,0,143,143,165,851.226934834,9.30123496801e-06,852.027046834,0.800122263725,,,,,x,1,0.78379852022,2018_Nov_14_1535,59.9805890722,spanish_cond2,001,1030,
images/axe01.jpg,axe,z,sounds/animalfarm_english.wav,,,,,,,,,0,1,1,1,0,144,144,104,853.130034758,9.62195917964e-06,853.760886585,0.63086209062,,,,,z,1,0.617096840171,2018_Nov_14_1535,59.9805890722,spanish_cond2,001,1030,
images/ostrich.jpg,ostrich,z,sounds/animalfarm_english.wav,,,,,,,,,0,1,1,1,0,145,145,76,854.861264377,1.05842482299e-05,855.461374197,0.600120724179,,,,,z,1,0.583750794991,2018_Nov_14_1535,59.9805890722,spanish_cond2,001,1030,
images/plate01b.jpg,plate,z,sounds/animalfarm_english.wav,,,,,,,,,0,1,1,1,0,146,146,3,856.559577093,9.62195917964e-06,857.261898019,0.70233118895,,,,,z,1,0.683777063154,2018_Nov_14_1535,59.9805890722,spanish_cond2,001,1030,
images/tank.jpg,wallet,x,sounds/animalfarm_english.wav,,,,,,,,,0,1,1,1,0,147,147,237,858.366820929,8.98051075637e-06,859.079096788,0.712285481277,,,,,x,1,0.700460349093,2018_Nov_14_1535,59.9805890722,spanish_cond2,001,1030,
images/paperclip04.jpg,eye drops,x,sounds/animalfarm_english.wav,,,,,,,,,0,1,1,1,0,148,148,174,860.184651223,8.98051075637e-06,860.84628098,0.661639379221,,,,,x,1,0.650444168132,2018_Nov_14_1535,59.9805890722,spanish_cond2,001,1030,
images/lock02a.jpg,lock,z,sounds/animalfarm_english.wav,,,,,,,,,0,1,1,1,0,149,149,65,861.956978701,9.62207559496e-06,862.830211578,0.873243461712,,,,,z,1,0.850521400804,2018_Nov_14_1535,59.9805890722,spanish_cond2,001,1030,
images/lion.jpg,lion,z,sounds/animalfarm_english.wav,,,,,,,,,0,1,1,1,0,150,150,44,863.94284589,9.62207559496e-06,864.53067738,0.587842074572,,,,,z,1,0.567083545611,2018_Nov_14_1535,59.9805890722,spanish_cond2,001,1030,
images/tie01.jpg,bench,x,sounds/animalfarm_english.wav,,,,,,,,,0,1,1,1,0,151,151,130,865.627926415,9.62195917964e-06,866.33120473,0.703288579127,,,,,x,1,0.683780591236,2018_Nov_14_1535,59.9805890722,spanish_cond2,001,1030,
images/mitten01.jpg,mitten,z,sounds/animalfarm_english.wav,,,,,,,,,0,1,1,1,0,152,152,102,867.451418621,9.30123496801e-06,868.11504655,0.663638191763,,,,,z,1,0.650433583884,2018_Nov_14_1535,59.9805890722,spanish_cond2,001,1030,
images/eraser.jpg,eraser,z,sounds/animalfarm_english.wav,,,,,,,,,0,1,1,1,0,153,153,110,869.220366528,8.9806271717e-06,869.782230453,0.561874188366,,,,,z,1,0.550429767231,2018_Nov_14_1535,59.9805890722,spanish_cond2,001,1030,
images/barrel01.jpg,barrel,z,sounds/animalfarm_english.wav,,,,,,,,,0,1,1,1,0,154,154,9,870.913358592,8.98051075637e-06,871.48272063,0.569372622296,,,,,z,1,0.550425918424,2018_Nov_14_1535,59.9805890722,spanish_cond2,001,1030,
images/thumbtack02a.jpg,thumb tack,z,sounds/animalfarm_english.wav,,,,,,,,,0,1,1,1,0,155,155,60,872.594097345,9.62207559496e-06,873.216536005,0.622449244722,,,,,z,1,0.600411950378,2018_Nov_14_1535,59.9805890722,spanish_cond2,001,1030,
images/arrow02.jpg,hammer,x,sounds/animalfarm_english.wav,,,,,,,,,0,1,1,1,0,156,156,184,874.313821283,8.9806271717e-06,875.150270812,0.836459792336,,,,,x,1,0.816992537468,2018_Nov_14_1535,59.9805890722,spanish_cond2,001,1030,
images/bench02.jpg,electric toothbrush,x,sounds/animalfarm_english.wav,,,,,,,,,0,1,1,1,0,157,157,172,876.260512128,9.62195917964e-06,877.217699306,0.957197762211,,,,,x,1,0.933856364572,2018_Nov_14_1535,59.9805890722,spanish_cond2,001,1030,
images/lychee02a.jpg,lychee,z,sounds/animalfarm_english.wav,,,,,,,,,0,1,1,1,0,158,158,62,878.341677008,9.30123496801e-06,879.034890699,0.693223954528,,,,,z,1,0.68378572294,2018_Nov_14_1535,59.9805890722,spanish_cond2,001,1030,
images/bus.jpg,microphone,x,sounds/animalfarm_english.wav,,,,,,,,,0,1,1,1,0,159,159,203,880.154126673,9.30135138333e-06,881.735677555,1.58156082511,,,,,x,1,1.56736899866,2018_Nov_14_1535,59.9805890722,spanish_cond2,001,1030,
images/squirrel.jpg,binder,x,sounds/animalfarm_english.wav,,,,,,,,,0,1,1,1,0,160,160,132,882.838616085,9.94268339127e-06,883.802968134,0.964362312341,,,,,x,1,0.950532273739,2018_Nov_14_1535,59.9805890722,spanish_cond2,001,1030,
images/hairband.jpg,hairband,z,sounds/animalfarm_english.wav,,,,,,,,,0,1,1,1,0,161,161,66,884.912792497,9.30135138333e-06,885.653483762,0.74070152815,,,,,z,1,0.717125994852,2018_Nov_14_1535,59.9805890722,spanish_cond2,001,1030,
images/50dollarbill.jpg,cherry,x,sounds/animalfarm_english.wav,,,,,,,,,0,1,1,1,0,162,162,151,886.77409408,9.62195917964e-06,887.454024904,0.679941408336,,,,,x,1,0.667123605381,2018_Nov_14_1535,59.9805890722,spanish_cond2,001,1030,
images/saltshaker03c.jpg,salt shaker,z,sounds/animalfarm_english.wav,,,,,,,,,0,1,1,1,0,163,163,63,888.565976694,9.30123496801e-06,889.087818821,0.521852070582,,,,,z,1,0.500377984717,2018_Nov_14_1535,59.9805890722,spanish_cond2,001,1030,
images/doorhandle.jpg,doll,x,sounds/animalfarm_english.wav,,,,,,,,,0,1,1,1,0,164,164,168,890.190290043,8.9806271717e-06,890.971710002,0.781430222327,,,,,x,1,0.767154042958,2018_Nov_14_1535,59.9805890722,spanish_cond2,001,1030,
images/ladder.jpg,ladder,z,sounds/animalfarm_english.wav,,,,,,,,,0,1,1,1,0,165,165,113,892.065954403,9.30123496801e-06,892.705536281,0.639592142077,,,,,z,1,0.617100047413,2018_Nov_14_1535,59.9805890722,spanish_cond2,001,1030,
images/pipe.jpg,icecube,x,sounds/animalfarm_english.wav,,,,,,,,,0,1,1,1,0,166,166,188,893.814889486,9.62207559496e-06,894.506070367,0.69119178562,,,,,x,1,0.667123605381,2018_Nov_14_1535,59.9805890722,spanish_cond2,001,1030,
images/cockroach02.jpg,belt,x,sounds/animalfarm_english.wav,,,,,,,,,0,1,1,1,0,167,167,129,895.603831293,8.9806271717e-06,896.256568707,0.652747036424,,,,,x,1,0.633760882076,2018_Nov_14_1535,59.9805890722,spanish_cond2,001,1030,
images/diploma01.jpg,glasses,x,sounds/animalfarm_english.wav,,,,,,,,,0,1,1,1,0,168,168,179,897.387946056,9.30123496801e-06,898.290491752,0.902555638459,,,,,x,1,0.883840824943,2018_Nov_14_1535,59.9805890722,spanish_cond2,001,1030,
images/redfox.jpg,red fox,z,sounds/animalfarm_english.wav,,,,,,,,,0,1,1,1,0,169,169,1,899.403843224,9.30123496801e-06,899.924309725,0.520476764301,,,,,z,1,0.50041005807,2018_Nov_14_1535,59.9805890722,spanish_cond2,001,1030,
images/button07.jpg,radish,x,sounds/animalfarm_english.wav,,,,,,,,,0,1,1,1,0,170,170,215,901.035639291,9.62195917964e-06,902.008243499,0.972614791361,,,,,x,1,0.950539009064,2018_Nov_14_1535,59.9805890722,spanish_cond2,001,1030,
images/ruler02b.jpg,watermelon,x,sounds/animalfarm_english.wav,,,,,,,,,0,1,1,1,0,171,171,238,903.110897217,9.62207559496e-06,903.775424804,0.664537529228,,,,,x,1,0.650446092593,2018_Nov_14_1535,59.9805890722,spanish_cond2,001,1030,
images/drink.jpg,drink,z,sounds/animalfarm_english.wav,,,,,,,,,0,1,1,1,0,172,172,117,904.875649606,9.62195917964e-06,905.575939646,0.700300302939,,,,,z,1,0.683768723975,2018_Nov_14_1535,59.9805890722,spanish_cond2,001,1030,
images/hammer02a.jpg,flower,x,sounds/animalfarm_english.wav,,,,,,,,,0,1,1,1,0,173,173,176,906.671755963,9.30123496801e-06,907.293104449,0.621359070763,,,,,x,1,0.600422534626,2018_Nov_14_1535,59.9805890722,spanish_cond2,001,1030,
images/crocodile.jpg,triangle ruler,x,sounds/animalfarm_english.wav,,,,,,,,,0,1,1,1,0,174,174,235,908.390628353,8.98051075637e-06,909.193675387,0.803057618788,,,,,x,1,0.783822895959,2018_Nov_14_1535,59.9805890722,spanish_cond2,001,1030,
images/fork01.jpg,cooking pot,x,sounds/animalfarm_english.wav,,,,,,,,,0,1,1,1,0,175,175,160,910.288058666,9.62195917964e-06,911.227590093,0.93954169075,,,,,x,1,0.917148061213,2018_Nov_14_1535,59.9805890722,spanish_cond2,001,1030,
images/ear.jpg,bullet,x,sounds/animalfarm_english.wav,,,,,,,,,0,1,1,1,0,176,176,139,912.330398727,9.30135138333e-06,912.928081233,0.597692769836,,,,,x,1,0.583759134053,2018_Nov_14_1535,59.9805890722,spanish_cond2,001,1030,
images/apple06.jpg,apple,z,sounds/animalfarm_english.wav,,,,,,,,,0,1,1,1,0,177,177,13,914.054167438,9.30135138333e-06,914.611923084,0.557765589212,,,,,z,1,0.533767008106,2018_Nov_14_1535,59.9805890722,spanish_cond2,001,1030,
images/cocktailshrimp01.jpg,cocktail shrimp,z,sounds/animalfarm_english.wav,,,,,,,,,0,1,1,1,0,178,178,30,915.726731329,8.9806271717e-06,916.329065116,0.602344050538,,,,,z,1,0.583754002349,2018_Nov_14_1535,59.9805890722,spanish_cond2,001,1030,
images/dreamcatcher.jpg,dream catcher,z,sounds/animalfarm_english.wav,,,,,,,,,0,1,1,1,0,179,179,48,917.427979079,9.94279980659e-06,918.246291115,0.818323261803,,,,,z,1,0.800484692794,2018_Nov_14_1535,59.9805890722,spanish_cond2,001,1030,
images/hat05.jpg,hat,z,sounds/animalfarm_english.wav,,,,,,,,,0,1,1,1,0,180,180,15,919.350378835,9.30123496801e-06,920.013462478,0.663094227319,,,,,z,1,0.650434546056,2018_Nov_14_1535,59.9805890722,spanish_cond2,001,1030,
images/sunglasses03a.jpg,sun glasses,z,sounds/animalfarm_english.wav,,,,,,,,,0,1,1,1,0,181,181,17,921.122904205,9.30123496801e-06,921.914019624,0.791126323864,,,,,z,1,0.767139930627,2018_Nov_14_1535,59.9805890722,spanish_cond2,001,1030,
images/bracelet02a.jpg,chess knight,x,sounds/animalfarm_english.wav,,,,,,,,,0,1,1,1,0,182,182,152,923.023100206,9.30135138333e-06,923.831255888,0.808165945113,,,,,x,1,0.78382706549,2018_Nov_14_1535,59.9805890722,spanish_cond2,001,1030,
images/sportshorts02.jpg,tape,x,sounds/animalfarm_english.wav,,,,,,,,,0,1,1,1,0,183,183,230,924.937811332,8.9806271717e-06,925.565090827,0.627289116848,,,,,z,0,0.617110631545,2018_Nov_14_1535,59.9805890722,spanish_cond2,001,1030,
images/charcoalbarbecue.jpg,charcoal barbecue,z,sounds/animalfarm_english.wav,,,,,,,,,0,1,1,1,0,184,184,77,926.682277633,9.62195917964e-06,927.832421755,1.15015438513,,,,,z,1,1.13392237155,2018_Nov_14_1535,59.9805890722,spanish_cond2,001,1030,
images/dryingmachine01.jpg,drying machine,z,sounds/animalfarm_english.wav,,,,,,,,,0,1,1,1,0,185,185,18,928.954108776,9.62207559496e-06,930.449840932,1.49574242008,,,,,z,1,1.48402313003,2018_Nov_14_1535,59.9805890722,spanish_cond2,001,1030,
images/donut.jpg,rhinoceros,x,sounds/animalfarm_english.wav,,,,,,,,,0,1,1,1,0,186,186,216,931.575986473,9.62207559496e-06,932.617160025,1.04118413618,,,,,x,1,1.01723077858,2018_Nov_14_1535,59.9805890722,spanish_cond2,001,1030,
images/cookingpot.jpg,grasshopper,x,sounds/animalfarm_english.wav,,,,,,,,,0,1,1,1,0,187,187,183,933.731330651,9.62195917964e-06,934.66772466,0.936404273263,,,,,x,1,0.917182059027,2018_Nov_14_1535,59.9805890722,spanish_cond2,001,1030,
images/nailclipper03a.jpg,aquarium,x,sounds/animalfarm_english.wav,,,,,,,,,0,1,1,1,0,188,188,123,935.767084764,9.62195917964e-06,936.734993109,0.967918928829,,,,,x,1,0.950530349277,2018_Nov_14_1535,59.9805890722,spanish_cond2,001,1030,
images/bicycle.jpg,hand bag,x,sounds/animalfarm_english.wav,,,,,,,,,0,1,1,1,0,189,189,186,937.845395434,8.9806271717e-06,938.835596056,0.990210564923,,,,,x,1,0.967192466953,2018_Nov_14_1535,59.9805890722,spanish_cond2,001,1030,
images/cherry01.jpg,highlighter,x,sounds/animalfarm_english.wav,,,,,,,,,0,1,1,1,0,190,190,187,939.944321906,9.94279980659e-06,940.736152561,0.791840277147,,,,,x,1,0.78380846302,2018_Nov_14_1535,59.9805890722,spanish_cond2,001,1030,
images/cake.jpg,cake,z,sounds/animalfarm_english.wav,,,,,,,,,0,1,1,1,0,191,191,23,941.850446349,9.62207559496e-06,942.503349904,0.652914138627,,,,,z,1,0.633780126111,2018_Nov_14_1535,59.9805890722,spanish_cond2,001,1030,
images/gamecontroller01.jpg,game controller,z,sounds/animalfarm_english.wav,,,,,,,,,0,1,1,1,0,192,192,112,943.624110966,9.30135138333e-06,944.22051599,0.596414645901,,,,,z,1,0.583770680591,2018_Nov_14_1535,59.9805890722,spanish_cond2,001,1030,
images/remotecontrol01c.jpg,remote control,z,sounds/animalfarm_english.wav,,,,,,,,,0,1,1,1,0,193,193,85,945.330294488,9.30123496801e-06,945.921006488,0.590722263441,,,,,z,1,0.56708707381,2018_Nov_14_1535,59.9805890722,spanish_cond2,001,1030,
images/comb02a.jpg,diploma,x,sounds/animalfarm_english.wav,,,,,,,,,0,1,1,1,0,194,194,166,947.025465617,9.94268339127e-06,947.93824753,0.912792176357,,,,,x,1,0.900515130488,2018_Nov_14_1535,59.9805890722,spanish_cond2,001,1030,
images/ant.jpg,ant,z,sounds/animalfarm_english.wav,,,,,,,,,0,1,1,1,0,195,195,98,949.033117683,9.62195917964e-06,949.955506533,0.922399434727,,,,,z,1,0.900520582916,2018_Nov_14_1535,59.9805890722,spanish_cond2,001,1030,
images/triangleruler02.jpg,bottle of red wine,x,sounds/animalfarm_english.wav,,,,,,,,,0,1,1,1,0,196,196,134,951.065596143,9.62207559496e-06,951.906068635,0.840483076405,,,,,x,1,0.817161564133,2018_Nov_14_1535,59.9805890722,spanish_cond2,001,1030,
images/djmixer01.jpg,light bulb,x,sounds/animalfarm_english.wav,,,,,,,,,0,1,1,1,0,197,197,196,953.027130225,9.62207559496e-06,953.856633944,0.829513982637,,,,,x,1,0.817155790981,2018_Nov_14_1535,59.9805890722,spanish_cond2,001,1030,
images/dragonfly02.jpg,dragon fly,z,sounds/animalfarm_english.wav,,,,,,,,,0,1,1,1,0,198,198,29,954.955146349,9.30135138333e-06,955.590792183,0.635655777063,,,,,z,1,0.617418856709,2018_Nov_14_1535,59.9805890722,spanish_cond2,001,1030,
images/boxingglove02a.jpg,bracelet,x,sounds/animalfarm_english.wav,,,,,,,,,0,1,1,1,0,199,199,135,956.701497602,9.30123496801e-06,957.474355894,0.77286823513,,,,,x,1,0.750478133908,2018_Nov_14_1535,59.9805890722,spanish_cond2,001,1030,
