images,name,corrAns,sounds,trials_3.thisRepN,trials_3.thisTrialN,trials_3.thisN,trials_3.thisIndex,trials_4.thisRepN,trials_4.thisTrialN,trials_4.thisN,trials_4.thisIndex,trials_2.thisRepN,trials_2.thisTrialN,trials_2.thisN,trials_2.thisIndex,trials.thisRepN,trials.thisTrialN,trials.thisN,trials.thisIndex,begin_global,begin_routine,end_global,end_routine,key_resp_2.keys,key_resp_2.corr,key_resp_2.rt,begin_book,key_resp_1.keys,key_resp_1.corr,key_resp_1.rt,date,frameRate,expName,session,participant,
images/volleyball.jpg,volley ball,z,,0,0,0,0,,,,,,,,,,,,,,,,,,,,,,,,2018_Nov_14_1534,60.00610069,spanish_cond1,001,1031,
images/puma.jpg,puma,z,,,,,,0,0,0,0,,,,,,,,,48.1529024791,1.02629419416e-05,50.5640423513,2.41115013533,z,1,2.40081917716,,,,,2018_Nov_14_1534,60.00610069,spanish_cond1,001,1031,
images/chameleon.jpg,50 dollar bill,x,sounds/animalfarm_spanish.wav,,,,,,,,,0,0,0,1,0,0,0,120,92.7255233872,9.94221772999e-06,94.2578749823,1.53236153733,,,,82.5599445414,x,1,1.51725797914,2018_Nov_14_1534,60.00610069,spanish_cond1,001,1031,
images/diaper01a.jpg,camera,x,sounds/animalfarm_spanish.wav,,,,,,,,,0,0,0,1,0,1,1,143,95.3835020255,9.62160993367e-06,96.6251214317,1.2416293486,,,,,x,1,1.21720156504,2018_Nov_14_1534,60.00610069,spanish_cond1,001,1031,
images/fireextinguisher02.jpg,fire extinguisher,z,sounds/animalfarm_spanish.wav,,,,,,,,,0,0,0,1,0,2,2,175,97.7407693439,9.30088572204e-06,98.8923257709,1.1515660485,,,,,z,1,1.13383260521,2018_Nov_14_1534,60.00610069,spanish_cond1,001,1031,
images/lighter02b.jpg,stapler,x,sounds/animalfarm_spanish.wav,,,,,,,,,0,0,0,1,0,3,3,227,99.9985542046,8.98016151041e-06,101.026172488,1.02762758394,,,,,x,1,1.01714524697,2018_Nov_14_1534,60.00610069,spanish_cond1,001,1031,
images/nailclipper03a.jpg,aquarium,x,sounds/animalfarm_spanish.wav,,,,,,,,,0,0,0,1,0,4,4,123,102.126808888,9.30076930672e-06,103.343404296,1.21660567145,,,,,x,1,1.20052873518,2018_Nov_14_1534,60.00610069,spanish_cond1,001,1031,
images/ashtray02b.jpg,ashtray,z,sounds/animalfarm_spanish.wav,,,,,,,,,0,0,0,1,0,5,5,43,104.456156128,8.98016151041e-06,106.410804722,1.95465885743,,,,,z,1,1.93403382355,2018_Nov_14_1534,60.00610069,spanish_cond1,001,1031,
images/headphones02b.jpg,headphones,z,sounds/animalfarm_spanish.wav,,,,,,,,,0,0,0,1,0,6,6,101,107.51872879,8.98016151041e-06,108.561321703,1.04260317574,,,,,z,1,1.03381551104,2018_Nov_14_1534,60.00610069,spanish_cond1,001,1031,
images/paintbrush03a.jpg,paint brush,z,sounds/animalfarm_spanish.wav,,,,,,,,,0,0,0,1,0,7,7,0,109.66157228,8.98004509509e-06,110.56179861,0.900236272719,,,,,z,1,0.88377030578,2018_Nov_14_1534,60.00610069,spanish_cond1,001,1031,
images/parrot01.jpg,chameleon,x,sounds/animalfarm_spanish.wav,,,,,,,,,0,0,0,1,0,8,8,150,111.676253774,8.98004509509e-06,113.195766398,1.51952192537,,,,,x,1,1.500521968,2018_Nov_14_1534,60.00610069,spanish_cond1,001,1031,
images/pen03c.jpg,pepper,x,sounds/animalfarm_spanish.wav,,,,,,,,,0,0,0,1,0,9,9,211,114.290202042,9.30088572204e-06,115.16290823,0.87271677074,,,,,x,1,0.850436192006,2018_Nov_14_1534,60.00610069,spanish_cond1,001,1031,
images/corn01.jpg,corn,z,sounds/animalfarm_spanish.wav,,,,,,,,,0,0,0,1,0,10,10,22,116.262961886,9.62149351835e-06,117.663508773,1.40055683011,,,,,z,1,1.38388624531,2018_Nov_14_1534,60.00610069,spanish_cond1,001,1031,
images/hairdryer03a.jpg,hairdryer,z,sounds/animalfarm_spanish.wav,,,,,,,,,0,0,0,1,0,11,11,119,118.763119839,9.30076930672e-06,119.764011434,1.00090121664,,,,,z,1,0.98379349371,2018_Nov_14_1534,60.00610069,spanish_cond1,001,1031,
images/beachumbrella01.jpg,beach umbrella,z,sounds/animalfarm_spanish.wav,,,,,,,,,0,0,0,1,0,12,12,92,120.870627936,8.98004509509e-06,122.23129807,1.36067975475,,,,,z,1,1.35058324109,2018_Nov_14_1534,60.00610069,spanish_cond1,001,1031,
images/cactus.jpg,cactus,z,sounds/animalfarm_spanish.wav,,,,,,,,,0,0,0,1,0,13,13,70,123.343722769,9.30076930672e-06,124.9819375,1.63822403213,,,,,z,1,1.6172747527,2018_Nov_14_1534,60.00610069,spanish_cond1,001,1031,
images/birthdaycandle.jpg,birthday candle,z,sounds/animalfarm_spanish.wav,,,,,,,,,0,0,0,1,0,14,14,55,126.076548577,9.30088572204e-06,127.099104332,1.02256633807,,,,,z,1,1.00046504056,2018_Nov_14_1534,60.00610069,spanish_cond1,001,1031,
images/cupcake.jpg,scissors,x,sounds/animalfarm_spanish.wav,,,,,,,,,0,0,0,1,0,15,15,219,128.218604705,8.98004509509e-06,129.28296152,1.06436643656,,,,,x,1,1.05047583289,2018_Nov_14_1534,60.00610069,spanish_cond1,001,1031,
images/corkscrew02a.jpg,masquerade mask,x,sounds/animalfarm_spanish.wav,,,,,,,,,0,0,0,1,0,16,16,201,130.386463853,9.30076930672e-06,131.933783664,1.54732943187,,,,,x,1,1.5341139388,2018_Nov_14_1534,60.00610069,spanish_cond1,001,1031,
images/sock03.jpg,sock,z,sounds/animalfarm_spanish.wav,,,,,,,,,0,0,0,1,0,17,17,90,133.039218321,9.62160993367e-06,134.084127778,1.04491971957,,,,,z,1,1.03381807671,2018_Nov_14_1534,60.00610069,spanish_cond1,001,1031,
images/blueberry02.jpg,blueberry,z,sounds/animalfarm_spanish.wav,,,,,,,,,0,0,0,1,0,18,18,46,135.197620788,9.30076930672e-06,136.151280289,0.953669443261,,,,,z,1,0.933786870912,2018_Nov_14_1534,60.00610069,spanish_cond1,001,1031,
images/tent.jpg,tent,z,sounds/animalfarm_spanish.wav,,,,,,,,,0,0,0,1,0,19,19,11,137.279758833,8.98004509509e-06,138.285160681,1.00541114877,,,,,z,1,0.983780023642,2018_Nov_14_1534,60.00610069,spanish_cond1,001,1031,
images/apricot.jpg,apricot,z,sounds/animalfarm_spanish.wav,,,,,,,,,0,0,0,1,0,20,20,32,139.402285498,9.30088572204e-06,140.652361909,1.25008603255,,,,,x,0,1.23381730705,2018_Nov_14_1534,60.00610069,spanish_cond1,001,1031,
images/cauliflower01.jpg,glue stick,x,sounds/animalfarm_spanish.wav,,,,,,,,,0,0,0,1,0,21,21,181,141.768774733,8.98004509509e-06,142.669525116,0.900760004763,,,,,x,1,0.883783775964,2018_Nov_14_1534,60.00610069,spanish_cond1,001,1031,
images/magnifyingglass01b.jpg,magnifying glass,z,sounds/animalfarm_spanish.wav,,,,,,,,,0,0,0,1,0,22,22,64,143.777653482,8.98004509509e-06,144.836721021,1.05907716055,,,,,z,1,1.050498283,2018_Nov_14_1534,60.00610069,spanish_cond1,001,1031,
images/feather03b.jpg,feather,z,sounds/animalfarm_spanish.wav,,,,,,,,,0,0,0,1,0,23,23,114,145.93766082,9.62149351835e-06,147.070578418,1.13292721915,,,,,z,1,1.11716811405,2018_Nov_14_1534,60.00610069,spanish_cond1,001,1031,
images/radish01.jpg,raisin,x,sounds/animalfarm_spanish.wav,,,,,,,,,0,0,0,1,0,24,24,214,148.181902735,8.98016151041e-06,149.221100209,1.03920741682,,,,,x,1,1.01714588841,2018_Nov_14_1534,60.00610069,spanish_cond1,001,1031,
images/scooter.jpg,pen,x,sounds/animalfarm_spanish.wav,,,,,,,,,0,0,0,1,0,25,25,212,150.314404682,9.30088572204e-06,151.104876288,0.790481868782,,,,,x,1,0.767075570999,2018_Nov_14_1534,60.00610069,spanish_cond1,001,1031,
images/glasses01b.jpg,calculator,x,sounds/animalfarm_spanish.wav,,,,,,,,,0,0,0,1,0,26,26,142,152.198145482,9.30076930672e-06,153.572154585,1.3740190448,,,,,x,1,1.3505627152,2018_Nov_14_1534,60.00610069,spanish_cond1,001,1031,
images/seagull.jpg,seagull,z,sounds/animalfarm_spanish.wav,,,,,,,,,0,0,0,1,0,27,27,50,154.679092125,8.98004509509e-06,155.906037414,1.22695491055,,,,,z,1,1.21718456701,2018_Nov_14_1534,60.00610069,spanish_cond1,001,1031,
images/bat.jpg,hand,x,sounds/animalfarm_spanish.wav,,,,,,,,,0,0,0,1,0,28,28,185,157.004445789,9.30076930672e-06,157.856505774,0.852070248686,,,,,x,1,0.833748288569,2018_Nov_14_1534,60.00610069,spanish_cond1,001,1031,
images/hat05.jpg,hat,z,sounds/animalfarm_spanish.wav,,,,,,,,,0,0,0,1,0,29,29,15,158.961194442,9.30076930672e-06,160.090385621,1.12920176249,,,,,z,1,1.11717100057,2018_Nov_14_1534,60.00610069,spanish_cond1,001,1031,
images/raisin.jpg,ruler,x,sounds/animalfarm_spanish.wav,,,,,,,,,0,0,0,1,0,30,30,218,161.196405909,9.30076930672e-06,162.307577244,1.11118127697,,,,,x,1,1.10047956917,2018_Nov_14_1534,60.00610069,spanish_cond1,001,1031,
images/pingpongpaddle01c (1).jpg,ping pong paddle,z,sounds/animalfarm_spanish.wav,,,,,,,,,0,0,0,1,0,31,31,10,163.419459289,9.62149351835e-06,164.374739377,0.955290029873,,,,,z,1,0.933786229463,2018_Nov_14_1534,60.00610069,spanish_cond1,001,1031,
images/panda.jpg,panda,z,sounds/animalfarm_spanish.wav,,,,,,,,,0,0,0,1,0,32,32,83,165.4844755,8.98016151041e-06,166.32520036,0.840734802769,,,,,z,1,0.817089891061,2018_Nov_14_1534,60.00610069,spanish_cond1,001,1031,
images/screw03c.jpg,screw,z,sounds/animalfarm_spanish.wav,,,,,,,,,0,0,0,1,0,33,33,84,167.419501945,9.30088572204e-06,168.592420094,1.17292712943,,,,,z,1,1.15050543507,2018_Nov_14_1534,60.00610069,spanish_cond1,001,1031,
images/cockroach02.jpg,belt,x,sounds/animalfarm_spanish.wav,,,,,,,,,0,0,0,1,0,34,34,129,169.691804733,8.98016151041e-06,170.492882152,0.801086719846,,,,,x,1,0.783754815231,2018_Nov_14_1534,60.00610069,spanish_cond1,001,1031,
images/orange.jpg,bat,x,sounds/animalfarm_spanish.wav,,,,,,,,,0,0,0,1,0,35,35,128,171.618362306,8.98004509509e-06,172.610056039,0.991703354055,,,,,x,1,0.967120984686,2018_Nov_14_1534,60.00610069,spanish_cond1,001,1031,
images/cake.jpg,cake,z,sounds/animalfarm_spanish.wav,,,,,,,,,0,0,0,1,0,36,36,23,173.724687276,8.98004509509e-06,174.643868984,0.919191329507,,,,,z,1,0.900440249243,2018_Nov_14_1534,60.00610069,spanish_cond1,001,1031,
images/camera01a.jpg,bull,x,sounds/animalfarm_spanish.wav,,,,,,,,,0,0,0,1,0,37,37,138,175.755251993,9.30088572204e-06,177.294517299,1.53927524865,,,,,x,1,1.51725894131,2018_Nov_14_1534,60.00610069,spanish_cond1,001,1031,
images/50dollarbill.jpg,cherry,x,sounds/animalfarm_spanish.wav,,,,,,,,,0,0,0,1,0,38,38,151,178.415024726,8.98004509509e-06,179.294999017,0.87998359208,,,,,x,1,0.867102286778,2018_Nov_14_1534,60.00610069,spanish_cond1,001,1031,
images/baseball01a.jpg,baseball,z,sounds/animalfarm_spanish.wav,,,,,,,,,0,0,0,1,0,39,39,74,180.427758822,9.62149351835e-06,181.595558317,1.16780943726,,,,,z,1,1.15051409439,2018_Nov_14_1534,60.00610069,spanish_cond1,001,1031,
images/leaf01a.jpg,leaf,z,sounds/animalfarm_spanish.wav,,,,,,,,,0,0,0,1,0,40,40,68,182.69916777,9.30076930672e-06,183.596035224,0.896877396386,,,,,z,1,0.88377992739,2018_Nov_14_1534,60.00610069,spanish_cond1,001,1031,
images/bandaid01.jpg,door handle,x,sounds/animalfarm_spanish.wav,,,,,,,,,0,0,0,1,0,41,41,170,184.704599124,8.98004509509e-06,185.479826376,0.77523687412,,,,,x,1,0.76709032408,2018_Nov_14_1534,60.00610069,spanish_cond1,001,1031,
images/candle08a.jpg,screw driver,x,sounds/animalfarm_spanish.wav,,,,,,,,,0,0,0,1,0,42,42,221,186.594436767,9.30076930672e-06,187.613663792,1.01923696767,,,,,x,1,1.0004695307,2018_Nov_14_1534,60.00610069,spanish_cond1,001,1031,
images/broadsword.jpg,teapot,x,sounds/animalfarm_spanish.wav,,,,,,,,,0,0,0,1,0,43,43,231,188.707045558,9.30076930672e-06,189.647463588,0.940427651396,,,,,x,1,0.91709127021,2018_Nov_14_1534,60.00610069,spanish_cond1,001,1031,
images/snowman.jpg,globe,x,sounds/animalfarm_spanish.wav,,,,,,,,,0,0,0,1,0,44,44,180,190.759573664,8.98016151041e-06,191.681349978,0.921785615035,,,,,x,1,0.900486111757,2018_Nov_14_1534,60.00610069,spanish_cond1,001,1031,
images/parkbench03.jpg,park bench,z,sounds/animalfarm_spanish.wav,,,,,,,,,0,0,0,1,0,45,45,71,192.787332421,8.65943729877e-06,193.615113757,0.827790636802,,,,,z,1,0.817066157935,2018_Nov_14_1534,60.00610069,spanish_cond1,001,1031,
images/computermouse02a.jpg,world map,x,sounds/animalfarm_spanish.wav,,,,,,,,,0,0,0,1,0,46,46,239,194.715039447,8.98016151041e-06,195.849069293,1.13405646617,,,,,x,1,1.11716683116,2018_Nov_14_1534,60.00610069,spanish_cond1,001,1031,
images/hand01a.jpg,cupcake,x,sounds/animalfarm_spanish.wav,,,,,,,,,0,0,0,1,0,47,47,163,196.961628053,9.30076930672e-06,197.682755683,0.721137572778,,,,,x,1,0.700399967143,2018_Nov_14_1534,60.00610069,spanish_cond1,001,1031,
images/flipflop01b.jpg,flip flop,z,sounds/animalfarm_spanish.wav,,,,,,,,,0,0,0,1,0,48,48,27,198.800415458,9.30076930672e-06,199.733265833,0.932860317407,,,,,z,1,0.917126869783,2018_Nov_14_1534,60.00610069,spanish_cond1,001,1031,
images/lychee02a.jpg,lychee,z,sounds/animalfarm_spanish.wav,,,,,,,,,0,0,0,1,0,49,49,62,200.858290568,9.30088572204e-06,201.933786871,1.07550592418,,,,,z,1,1.06716405705,2018_Nov_14_1534,60.00610069,spanish_cond1,001,1031,
images/eraser.jpg,eraser,z,sounds/animalfarm_spanish.wav,,,,,,,,,0,0,0,1,0,50,50,110,203.040131725,9.30076930672e-06,203.900920363,0.860798580572,,,,,z,1,0.850440682145,2018_Nov_14_1534,60.00610069,spanish_cond1,001,1031,
images/lettuce.jpg,mushroom,x,sounds/animalfarm_spanish.wav,,,,,,,,,0,0,0,1,0,51,51,205,205.025487755,8.98016151041e-06,206.03477606,1.00929792656,,,,,x,1,1.00048043509,2018_Nov_14_1534,60.00610069,spanish_cond1,001,1031,
images/cookingpot.jpg,grasshopper,x,sounds/animalfarm_spanish.wav,,,,,,,,,0,0,0,1,0,52,52,183,207.149815571,8.98004509509e-06,208.051924835,0.902118564816,,,,,x,1,0.883787303814,2018_Nov_14_1534,60.00610069,spanish_cond1,001,1031,
images/antelope.jpg,antelope,z,sounds/animalfarm_spanish.wav,,,,,,,,,0,0,0,1,0,53,53,12,209.154924925,9.62160993367e-06,210.269111006,1.11419666477,,,,,z,1,1.10049271851,2018_Nov_14_1534,60.00610069,spanish_cond1,001,1031,
images/bus.jpg,microphone,x,sounds/animalfarm_spanish.wav,,,,,,,,,0,0,0,1,0,54,54,203,211.388672315,9.62160993367e-06,212.119559065,0.730896691442,,,,,x,1,0.717070231098,2018_Nov_14_1534,60.00610069,spanish_cond1,001,1031,
images/licenseplate.jpg,license plate,z,sounds/animalfarm_spanish.wav,,,,,,,,,0,0,0,1,0,55,55,40,213.238112358,1.12251145765e-05,214.286751762,1.04865062842,,,,,z,1,1.03381583176,2018_Nov_14_1534,60.00610069,spanish_cond1,001,1031,
images/rubberglove02a.jpg,lady bug,x,sounds/animalfarm_spanish.wav,,,,,,,,,0,0,0,1,0,56,56,192,215.391596619,9.30088572204e-06,216.303907913,0.912321877433,,,,,x,1,0.900463661645,2018_Nov_14_1534,60.00610069,spanish_cond1,001,1031,
images/gamecontroller01.jpg,game controller,z,sounds/animalfarm_spanish.wav,,,,,,,,,0,0,0,1,0,57,57,112,217.424727077,8.98004509509e-06,218.104328823,0.679611367057,,,,,z,1,0.667051100289,2018_Nov_14_1534,60.00610069,spanish_cond1,001,1031,
images/mitten01.jpg,mitten,z,sounds/animalfarm_spanish.wav,,,,,,,,,0,0,0,1,0,58,58,102,219.22601617,9.30088572204e-06,220.071476427,0.845469878637,,,,,z,1,0.833720386145,2018_Nov_14_1534,60.00610069,spanish_cond1,001,1031,
images/crocodile.jpg,triangle ruler,x,sounds/animalfarm_spanish.wav,,,,,,,,,0,0,0,1,0,59,59,235,221.167249143,9.30088572204e-06,222.138647219,0.971407697303,,,,,x,1,0.950469963718,2018_Nov_14_1534,60.00610069,spanish_cond1,001,1031,
images/hairpin.jpg,hair pin,z,sounds/animalfarm_spanish.wav,,,,,,,,,0,0,0,1,0,60,60,28,223.230147976,8.65943729877e-06,224.489208651,1.25907061785,,,,,z,1,1.25053760305,2018_Nov_14_1534,60.00610069,spanish_cond1,001,1031,
images/doll.jpg,carrot,x,sounds/animalfarm_spanish.wav,,,,,,,,,0,0,0,1,0,61,61,146,225.601008593,9.62149351835e-06,226.389654032,0.788655381417,,,,,x,1,0.76706402516,2018_Nov_14_1534,60.00610069,spanish_cond1,001,1031,
images/aloe02.jpg,broad sword,x,sounds/animalfarm_spanish.wav,,,,,,,,,0,0,0,1,0,62,62,137,227.510011363,8.98016151041e-06,228.673545313,1.16354357125,,,,,x,1,1.15050992509,2018_Nov_14_1534,60.00610069,spanish_cond1,001,1031,
images/ruler02b.jpg,watermelon,x,sounds/animalfarm_spanish.wav,,,,,,,,,0,0,0,1,0,63,63,238,229.777342706,9.30088572204e-06,230.590676993,0.813343587797,,,,,x,1,0.800434059347,2018_Nov_14_1534,60.00610069,spanish_cond1,001,1031,
images/apple06.jpg,apple,z,sounds/animalfarm_spanish.wav,,,,,,,,,0,0,0,1,0,64,64,13,231.71976907,1.18665629998e-05,232.374439185,0.654681339744,,,,,z,1,0.633712175768,2018_Nov_14_1534,60.00610069,spanish_cond1,001,1031,
images/worldmap.jpg,scooter,x,sounds/animalfarm_spanish.wav,,,,,,,,,0,0,0,1,0,65,65,220,233.506545688,9.62149351835e-06,234.591636901,1.08510115591,,,,,x,1,1.0671563599,2018_Nov_14_1534,60.00610069,spanish_cond1,001,1031,
images/microphone01.jpg,diaper,x,sounds/animalfarm_spanish.wav,,,,,,,,,0,0,0,1,0,66,66,164,235.691116152,9.30088572204e-06,236.49209928,0.800993070356,,,,,x,1,0.783764436725,2018_Nov_14_1534,60.00610069,spanish_cond1,001,1031,
images/lipstick04.jpg,lipstick,z,sounds/animalfarm_spanish.wav,,,,,,,,,0,0,0,1,0,67,67,56,237.592500915,8.98004509509e-06,238.325867453,0.733376159798,,,,,z,1,0.717074400513,2018_Nov_14_1534,60.00610069,spanish_cond1,001,1031,
images/gorilla.jpg,gorilla,z,sounds/animalfarm_spanish.wav,,,,,,,,,0,0,0,1,0,68,68,80,239.438244045,9.30088572204e-06,240.209643532,0.771409108536,,,,,z,1,0.750402420526,2018_Nov_14_1534,60.00610069,spanish_cond1,001,1031,
images/graduationcap.jpg,graduation cap,z,sounds/animalfarm_spanish.wav,,,,,,,,,0,0,0,1,0,69,69,35,241.312869086,8.65932088345e-06,242.110106873,0.797247087583,,,,,z,1,0.783726591966,2018_Nov_14_1534,60.00610069,spanish_cond1,001,1031,
images/mattress.jpg,cat,x,sounds/animalfarm_spanish.wav,,,,,,,,,0,0,0,1,0,70,70,147,243.215044097,9.30076930672e-06,243.89386714,0.678832985228,,,,,x,1,0.667056231759,2018_Nov_14_1534,60.00610069,spanish_cond1,001,1031,
images/toucan.jpg,toucan,z,sounds/animalfarm_spanish.wav,,,,,,,,,0,0,0,1,0,71,71,81,244.995110017,9.62149351835e-06,245.827680631,0.832580876187,,,,,z,1,0.817110096221,2018_Nov_14_1534,60.00610069,spanish_cond1,001,1031,
images/highheelshoe02a.jpg,high heel shoe,z,sounds/animalfarm_spanish.wav,,,,,,,,,0,0,0,1,0,72,72,75,246.935043763,9.30076930672e-06,247.794802257,0.859768435359,,,,,z,1,0.850432022824,2018_Nov_14_1534,60.00610069,spanish_cond1,001,1031,
images/broom02.jpg,broom,z,sounds/animalfarm_spanish.wav,,,,,,,,,0,0,0,1,0,73,73,116,248.888845022,8.98004509509e-06,249.978665539,1.08983013825,,,,,z,1,1.06715186976,2018_Nov_14_1534,60.00610069,spanish_cond1,001,1031,
images/carrot02.jpg,corkscrew,x,sounds/animalfarm_spanish.wav,,,,,,,,,0,0,0,1,0,74,74,161,251.082172041,8.98004509509e-06,251.862458615,0.780296195531,,,,,x,1,0.767059855862,2018_Nov_14_1534,60.00610069,spanish_cond1,001,1031,
images/lip.jpg,boxing glove,x,sounds/animalfarm_spanish.wav,,,,,,,,,0,0,0,1,0,75,75,136,252.966428555,9.30088572204e-06,253.879609314,0.913190380903,,,,,x,1,0.900446022162,2018_Nov_14_1534,60.00610069,spanish_cond1,001,1031,
images/fork01.jpg,cooking pot,x,sounds/animalfarm_spanish.wav,,,,,,,,,0,0,0,1,0,76,76,160,254.97176177,9.62149351835e-06,256.230186783,1.25843495538,,,,,x,1,1.25054754526,2018_Nov_14_1534,60.00610069,spanish_cond1,001,1031,
images/donut.jpg,rhinoceros,x,sounds/animalfarm_spanish.wav,,,,,,,,,0,0,0,1,0,77,77,216,257.35666469,8.98004509509e-06,258.263992031,0.907337283017,,,,,x,1,0.883774795919,2018_Nov_14_1534,60.00610069,spanish_cond1,001,1031,
images/clothespin02a.jpg,clothes pin,z,sounds/animalfarm_spanish.wav,,,,,,,,,0,0,0,1,0,78,78,79,259.369757669,9.30076930672e-06,260.264643408,0.894895681762,,,,,z,1,0.883947662776,2018_Nov_14_1534,60.00610069,spanish_cond1,001,1031,
images/pineapple01a.jpg,pineapple,z,sounds/animalfarm_spanish.wav,,,,,,,,,0,0,0,1,0,79,79,51,261.377941422,8.65932088345e-06,262.09824577,0.720313649043,,,,,z,1,0.700401249924,2018_Nov_14_1534,60.00610069,spanish_cond1,001,1031,
images/lollipop03b.jpg,lollipop,z,sounds/animalfarm_spanish.wav,,,,,,,,,0,0,0,1,0,80,80,42,263.192751973,8.98016151041e-06,263.998708791,0.805966118816,,,,,z,1,0.783752890886,2018_Nov_14_1534,60.00610069,spanish_cond1,001,1031,
images/dresser02.jpg,dresser,z,sounds/animalfarm_spanish.wav,,,,,,,,,0,0,0,1,0,81,81,87,265.12222936,9.30076930672e-06,265.882493849,0.760274110944,,,,,z,1,0.750410117791,2018_Nov_14_1534,60.00610069,spanish_cond1,001,1031,
images/tank.jpg,wallet,x,sounds/animalfarm_spanish.wav,,,,,,,,,0,0,0,1,0,82,82,237,266.987821066,9.30088572204e-06,267.899647435,0.911835990148,,,,,x,1,0.900455002207,2018_Nov_14_1534,60.00610069,spanish_cond1,001,1031,
images/masquerademask02b.jpg,mirror,x,sounds/animalfarm_spanish.wav,,,,,,,,,0,0,0,1,0,83,83,204,269.005323593,9.94221772999e-06,270.200199679,1.19488634879,,,,,x,1,1.18385205674,2018_Nov_14_1534,60.00610069,spanish_cond1,001,1031,
images/butterfly.jpg,butterfly,z,sounds/animalfarm_spanish.wav,,,,,,,,,0,0,0,1,0,84,84,91,271.308480064,9.30088572204e-06,272.434075036,1.12560459296,,,,,z,1,1.11716939695,2018_Nov_14_1534,60.00610069,spanish_cond1,001,1031,
images/cherry01.jpg,highlighter,x,sounds/animalfarm_spanish.wav,,,,,,,,,0,0,0,1,0,85,85,187,273.544114237,8.65932088345e-06,274.384548527,0.840443591005,,,,,x,1,0.817102719797,2018_Nov_14_1534,60.00610069,spanish_cond1,001,1031,
images/highlighter03b.jpg,coin,x,sounds/animalfarm_spanish.wav,,,,,,,,,0,0,0,1,0,86,86,156,275.487687167,8.65932088345e-06,276.401689284,0.914011738962,,,,,x,1,0.900447304943,2018_Nov_14_1534,60.00610069,spanish_cond1,001,1031,
images/flashlight05.jpg,flash light,z,sounds/animalfarm_spanish.wav,,,,,,,,,0,0,0,1,0,87,87,8,277.504865127,8.98016151041e-06,278.185458211,0.680603026296,,,,,z,1,0.6670636083,2018_Nov_14_1534,60.00610069,spanish_cond1,001,1031,
images/nailpolish02b.jpg,nail polish,z,sounds/animalfarm_spanish.wav,,,,,,,,,0,0,0,1,0,88,88,94,279.295198183,9.30088572204e-06,280.002548743,0.707360182423,,,,,z,1,0.68371911929,2018_Nov_14_1534,60.00610069,spanish_cond1,001,1031,
images/electricguitar02.jpg,electric guitar,z,sounds/animalfarm_spanish.wav,,,,,,,,,0,0,0,1,0,89,89,100,281.105523176,8.98016151041e-06,281.819666858,0.714153303765,,,,,z,1,0.700401249924,2018_Nov_14_1534,60.00610069,spanish_cond1,001,1031,
images/ear.jpg,bullet,x,sounds/animalfarm_spanish.wav,,,,,,,,,0,0,0,1,0,90,90,139,282.923857451,8.98016151041e-06,283.520068749,0.596220919397,,,,,x,1,0.583708760096,2018_Nov_14_1534,60.00610069,spanish_cond1,001,1031,
images/honeycomb.jpg,honey comb,z,sounds/animalfarm_spanish.wav,,,,,,,,,0,0,0,1,0,91,91,59,284.635621087,9.30076930672e-06,285.353835318,0.718224173295,,,,,z,1,0.700390986982,2018_Nov_14_1534,60.00610069,spanish_cond1,001,1031,
images/bull.jpg,button,x,sounds/animalfarm_spanish.wav,,,,,,,,,0,0,0,1,0,92,92,141,286.460288255,9.30088572204e-06,287.20429364,0.744015007047,,,,,x,1,0.733743381687,2018_Nov_14_1534,60.00610069,spanish_cond1,001,1031,
images/saltshaker03c.jpg,salt shaker,z,sounds/animalfarm_spanish.wav,,,,,,,,,0,0,0,1,0,93,93,63,288.316681778,9.30076930672e-06,289.104744473,0.788072316675,,,,,z,1,0.767076533171,2018_Nov_14_1534,60.00610069,spanish_cond1,001,1031,
images/shotglass.jpg,shot glass,z,sounds/animalfarm_spanish.wav,,,,,,,,,0,0,0,1,0,94,94,86,290.214068795,9.30088572204e-06,291.438644301,1.22458544839,,,,,x,0,1.20051526499,2018_Nov_14_1534,60.00610069,spanish_cond1,001,1031,
images/leek.jpg,donut,x,sounds/animalfarm_spanish.wav,,,,,,,,,0,0,0,1,0,95,95,169,292.540034708,9.30088572204e-06,293.239068738,0.699043972651,,,,,x,1,0.683723609429,2018_Nov_14_1534,60.00610069,spanish_cond1,001,1031,
images/tulip02.jpg,sport shorts,x,sounds/animalfarm_spanish.wav,,,,,,,,,0,0,0,1,0,96,96,225,294.334624008,9.62160993367e-06,295.072839156,0.738224769826,,,,,x,1,0.717061251053,2018_Nov_14_1534,60.00610069,spanish_cond1,001,1031,
images/aquarium.jpg,computer mouse,x,sounds/animalfarm_spanish.wav,,,,,,,,,0,0,0,1,0,97,97,159,296.207621407,9.62149351835e-06,297.390070965,1.18245917978,,,,,x,1,1.16715164529,2018_Nov_14_1534,60.00610069,spanish_cond1,001,1031,
images/pictureframe04.jpg,picture frame,z,sounds/animalfarm_spanish.wav,,,,,,,,,0,0,0,1,0,98,98,41,298.512769214,9.30088572204e-06,299.207179458,0.694420185755,,,,,z,1,0.683728099451,2018_Nov_14_1534,60.00610069,spanish_cond1,001,1031,
images/cocktailshrimp01.jpg,cocktail shrimp,z,sounds/animalfarm_spanish.wav,,,,,,,,,0,0,0,1,0,99,99,30,300.322476184,9.30088572204e-06,301.407806012,1.08533944923,,,,,z,1,1.06725129229,2018_Nov_14_1534,60.00610069,spanish_cond1,001,1031,
images/parkingmeter.jpg,ear,x,sounds/animalfarm_spanish.wav,,,,,,,,,0,0,0,1,0,100,100,171,302.509949144,9.62149351835e-06,303.341505006,0.831565804663,,,,,x,1,0.817094060476,2018_Nov_14_1534,60.00610069,spanish_cond1,001,1031,
images/binder03b.jpg,dj mixer,x,sounds/animalfarm_spanish.wav,,,,,,,,,0,0,0,1,0,101,101,167,304.456188841,8.65943729877e-06,305.59204742,1.135867559,,,,,x,1,1.117167152,2018_Nov_14_1534,60.00610069,spanish_cond1,001,1031,
images/hanger02a.jpg,hanger,z,sounds/animalfarm_spanish.wav,,,,,,,,,0,0,0,1,0,102,102,88,306.686313405,9.30088572204e-06,307.509169158,0.822866337374,,,,,z,1,0.80041834421,2018_Nov_14_1534,60.00610069,spanish_cond1,001,1031,
images/tissuebox03.jpg,tissue box,z,sounds/animalfarm_spanish.wav,,,,,,,,,0,0,0,1,0,103,103,58,308.635860343,8.98016151041e-06,309.376299348,0.74044862634,,,,,z,1,0.717072796775,2018_Nov_14_1534,60.00610069,spanish_cond1,001,1031,
images/mirror02.jpg,8 ball,x,sounds/animalfarm_spanish.wav,,,,,,,,,0,0,0,1,0,104,104,121,310.479469738,8.98004509509e-06,311.293418841,0.813959044986,,,,,x,1,0.800427965703,2018_Nov_14_1534,60.00610069,spanish_cond1,001,1031,
images/stapler03a.jpg,candy cane,x,sounds/animalfarm_spanish.wav,,,,,,,,,0,0,0,1,0,105,105,145,312.405187993,8.98004509509e-06,313.277230615,0.872051922954,,,,,x,1,0.850429777754,2018_Nov_14_1534,60.00610069,spanish_cond1,001,1031,
images/bracelet02a.jpg,chess knight,x,sounds/animalfarm_spanish.wav,,,,,,,,,0,0,0,1,0,106,106,152,314.387183223,9.62160993367e-06,315.861192101,1.47401882045,,,,,x,1,1.45058782736,2018_Nov_14_1534,60.00610069,spanish_cond1,001,1031,
images/daisy.jpg,daisy,z,sounds/animalfarm_spanish.wav,,,,,,,,,0,0,0,1,0,107,107,6,316.96408924,9.30076930672e-06,317.611607671,0.647527731606,,,,,z,1,0.633721155929,2018_Nov_14_1534,60.00610069,spanish_cond1,001,1031,
images/drink.jpg,drink,z,sounds/animalfarm_spanish.wav,,,,,,,,,0,0,0,1,0,108,108,117,318.711861134,9.30088572204e-06,319.445380014,0.733528821496,,,,,z,1,0.717064137338,2018_Nov_14_1534,60.00610069,spanish_cond1,001,1031,
images/computerkeyboard01a.jpg,computer keyboard,z,sounds/animalfarm_spanish.wav,,,,,,,,,0,0,0,1,0,109,109,61,320.563574424,8.65943729877e-06,321.51255722,0.948992096586,,,,,z,1,0.933799378923,2018_Nov_14_1534,60.00610069,spanish_cond1,001,1031,
images/nametag01a.jpg,name tag,z,sounds/animalfarm_spanish.wav,,,,,,,,,0,0,0,1,0,110,110,108,322.632590947,8.98016151041e-06,323.529698939,0.897117613931,,,,,z,1,0.883781851735,2018_Nov_14_1534,60.00610069,spanish_cond1,001,1031,
images/doorhandle.jpg,doll,x,sounds/animalfarm_spanish.wav,,,,,,,,,0,0,0,1,0,111,111,168,324.633315769,9.30076930672e-06,325.746896655,1.11359050823,,,,,x,1,1.10049849143,2018_Nov_14_1534,60.00610069,spanish_cond1,001,1031,
images/dragonfly02.jpg,dragon fly,z,sounds/animalfarm_spanish.wav,,,,,,,,,0,0,0,1,0,112,112,29,326.843351538,8.98004509509e-06,327.730725749,0.887383832014,,,,,z,1,0.867132434272,2018_Nov_14_1534,60.00610069,spanish_cond1,001,1031,
images/swallow.jpg,mattress,x,sounds/animalfarm_spanish.wav,,,,,,,,,0,0,0,1,0,113,113,202,328.832931421,9.30088572204e-06,329.531149224,0.698227746179,,,,,x,1,0.683742852416,2018_Nov_14_1534,60.00610069,spanish_cond1,001,1031,
images/ceilingfan02.jpg,paper clip,x,sounds/animalfarm_spanish.wav,,,,,,,,,0,0,0,1,0,114,114,208,330.63079621,9.30076930672e-06,331.431622828,0.800836559967,,,,,x,1,0.783775661839,2018_Nov_14_1534,60.00610069,spanish_cond1,001,1031,
images/wallet01.jpg,lamp,x,sounds/animalfarm_spanish.wav,,,,,,,,,0,0,0,1,0,115,115,193,332.537106235,9.62149351835e-06,333.232036041,0.694940069108,,,,,x,1,0.683732910082,2018_Nov_14_1534,60.00610069,spanish_cond1,001,1031,
images/coin01b.jpg,arrow,x,sounds/animalfarm_spanish.wav,,,,,,,,,0,0,0,1,0,116,116,124,334.333853003,9.30076930672e-06,334.999273254,0.665429872344,,,,,x,1,0.650539591443,2018_Nov_14_1534,60.00610069,spanish_cond1,001,1031,
images/tape01a.jpg,tie,x,sounds/animalfarm_spanish.wav,,,,,,,,,0,0,0,1,0,117,117,232,336.126119665,9.30088572204e-06,337.199653497,1.07354377338,,,,,x,1,1.05048000207,2018_Nov_14_1534,60.00610069,spanish_cond1,001,1031,
images/puzzle.jpg,puzzle,z,sounds/animalfarm_spanish.wav,,,,,,,,,0,0,0,1,0,118,118,57,338.321639752,8.98016151041e-06,338.933410669,0.611780217383,,,,,z,1,0.600387683604,2018_Nov_14_1534,60.00610069,spanish_cond1,001,1031,
images/plate01b.jpg,plate,z,sounds/animalfarm_spanish.wav,,,,,,,,,0,0,0,1,0,119,119,3,340.032343417,9.30088572204e-06,340.750499598,0.718165802769,,,,,z,1,0.700392590486,2018_Nov_14_1534,60.00610069,spanish_cond1,001,1031,
images/dreamcatcher.jpg,dream catcher,z,sounds/animalfarm_spanish.wav,,,,,,,,,0,0,0,1,0,120,120,48,341.849812396,9.30088572204e-06,342.73431907,0.884516615886,,,,,z,1,0.867115756962,2018_Nov_14_1534,60.00610069,spanish_cond1,001,1031,
images/djmixer01.jpg,light bulb,x,sounds/animalfarm_spanish.wav,,,,,,,,,0,0,0,1,0,121,121,196,343.856594292,9.30076930672e-06,344.76813426,0.911549589131,,,,,x,1,0.900441532023,2018_Nov_14_1534,60.00610069,spanish_cond1,001,1031,
images/candycane01a.jpg,lip,x,sounds/animalfarm_spanish.wav,,,,,,,,,0,0,0,1,0,122,122,200,345.862687608,8.98016151041e-06,346.601910772,0.739233426983,,,,,x,1,0.717066703248,2018_Nov_14_1534,60.00610069,spanish_cond1,001,1031,
images/globe.jpg,cloud,x,sounds/animalfarm_spanish.wav,,,,,,,,,0,0,0,1,0,123,123,154,347.730686621,8.98004509509e-06,348.669080281,0.938403601991,,,,,x,1,0.917124304106,2018_Nov_14_1534,60.00610069,spanish_cond1,001,1031,
images/safe.jpg,safe,z,sounds/animalfarm_spanish.wav,,,,,,,,,0,0,0,1,0,124,124,78,349.781503698,9.62160993367e-06,350.769607316,0.988113561063,,,,,z,1,0.967159470776,2018_Nov_14_1534,60.00610069,spanish_cond1,001,1031,
images/lightbulb03b.jpg,treadmill,x,sounds/animalfarm_spanish.wav,,,,,,,,,0,0,0,1,0,125,125,234,351.873021773,8.98004509509e-06,352.620055696,0.747043544077,,,,,x,1,0.733765511075,2018_Nov_14_1534,60.00610069,spanish_cond1,001,1031,
images/electrictoothbrush01a.jpg,banjo,x,sounds/animalfarm_spanish.wav,,,,,,,,,0,0,0,1,0,126,126,127,353.715362409,8.98004509509e-06,354.720534623,1.00518183573,,,,,x,1,0.983799587353,2018_Nov_14_1534,60.00610069,spanish_cond1,001,1031,
images/notebook02b.jpg,notebook,z,sounds/animalfarm_spanish.wav,,,,,,,,,0,0,0,1,0,127,127,7,355.827600772,9.30076930672e-06,356.570974985,0.743383834604,,,,,z,1,0.733742740122,2018_Nov_14_1534,60.00610069,spanish_cond1,001,1031,
images/calculator02b.jpg,dice,x,sounds/animalfarm_spanish.wav,,,,,,,,,0,0,0,1,0,128,128,165,357.673793228,8.98004509509e-06,358.454763892,0.780980607145,,,,,x,1,0.767028746195,2018_Nov_14_1534,60.00610069,spanish_cond1,001,1031,
images/dolphin01.jpg,dolphin,z,sounds/animalfarm_spanish.wav,,,,,,,,,0,0,0,1,0,129,129,99,359.555439099,8.98016151041e-06,360.405259834,0.849830997875,,,,,z,1,0.833795113256,2018_Nov_14_1534,60.00610069,spanish_cond1,001,1031,
images/lantern03.jpg,lantern,z,sounds/animalfarm_spanish.wav,,,,,,,,,0,0,0,1,0,130,130,5,361.512054014,9.30088572204e-06,362.138993594,0.62694920192,,,,,z,1,0.617052816087,2018_Nov_14_1534,60.00610069,spanish_cond1,001,1031,
images/lamp04b.jpg,parking meter,x,sounds/animalfarm_spanish.wav,,,,,,,,,0,0,0,1,0,131,131,209,363.258724884,8.98016151041e-06,364.156133068,0.897417485015,,,,,x,1,0.88377639954,2018_Nov_14_1534,60.00610069,spanish_cond1,001,1031,
images/medal01.jpg,medal,z,sounds/animalfarm_spanish.wav,,,,,,,,,0,0,0,1,0,132,132,115,365.258404487,8.98016151041e-06,365.973239957,0.714845091803,,,,,z,1,0.700392269762,2018_Nov_14_1534,60.00610069,spanish_cond1,001,1031,
images/belt02a.jpg,snowman,x,sounds/animalfarm_spanish.wav,,,,,,,,,0,0,0,1,0,133,133,224,367.077699954,8.98004509509e-06,367.773669206,0.695979194366,,,,,x,1,0.683730665129,2018_Nov_14_1534,60.00610069,spanish_cond1,001,1031,
images/table02.jpg,table,z,sounds/animalfarm_spanish.wav,,,,,,,,,0,0,0,1,0,134,134,49,368.888961763,8.98016151041e-06,369.65745651,0.76850404765,,,,,z,1,0.750404024031,2018_Nov_14_1534,60.00610069,spanish_cond1,001,1031,
images/lock02a.jpg,lock,z,sounds/animalfarm_spanish.wav,,,,,,,,,0,0,0,1,0,135,135,65,370.768837594,9.30076930672e-06,371.757961095,0.989133122494,,,,,z,1,0.967134775594,2018_Nov_14_1534,60.00610069,spanish_cond1,001,1031,
images/cat.jpg,black olive,x,sounds/animalfarm_spanish.wav,,,,,,,,,0,0,0,1,0,136,136,133,372.888806215,8.65943729877e-06,374.10852798,1.21973138617,,,,,x,1,1.2005069264,2018_Nov_14_1534,60.00610069,spanish_cond1,001,1031,
images/spoon02b.jpg,spoon,z,sounds/animalfarm_spanish.wav,,,,,,,,,0,0,0,1,0,137,137,38,375.200576522,9.62160993367e-06,375.992310152,0.791744213551,,,,,z,1,0.783752890886,2018_Nov_14_1534,60.00610069,spanish_cond1,001,1031,
images/ant.jpg,ant,z,sounds/animalfarm_spanish.wav,,,,,,,,,0,0,0,1,0,138,138,98,377.087536045,8.98004509509e-06,377.909447605,0.821921182331,,,,,z,1,0.800431493553,2018_Nov_14_1534,60.00610069,spanish_cond1,001,1031,
images/cheetah.jpg,cheetah,z,sounds/animalfarm_spanish.wav,,,,,,,,,0,0,0,1,0,139,139,82,379.012707476,9.30076930672e-06,379.893255852,0.880558638833,,,,,z,1,0.867080477998,2018_Nov_14_1534,60.00610069,spanish_cond1,001,1031,
images/knife04.jpg,tooth brush,x,sounds/animalfarm_spanish.wav,,,,,,,,,0,0,0,1,0,140,140,233,380.991342547,9.30076930672e-06,381.927088041,0.935755436076,,,,,x,1,0.917127190623,2018_Nov_14_1534,60.00610069,spanish_cond1,001,1031,
images/umbrella01.jpg,umbrella,z,sounds/animalfarm_spanish.wav,,,,,,,,,0,0,0,1,0,141,141,53,383.04115738,8.98004509509e-06,383.727532363,0.686384603963,,,,,z,1,0.667078681989,2018_Nov_14_1534,60.00610069,spanish_cond1,001,1031,
images/beermug01b.jpg,beer mug,z,sounds/animalfarm_spanish.wav,,,,,,,,,0,0,0,1,0,142,142,111,384.845410546,8.98016151041e-06,386.278121249,1.43272064498,,,,,z,1,1.41723831918,2018_Nov_14_1534,60.00610069,spanish_cond1,001,1031,
images/volleyball.jpg,volley ball,z,sounds/animalfarm_spanish.wav,,,,,,,,,0,0,0,1,0,143,143,2,387.411518319,9.62160993367e-06,388.028556703,0.617048646789,,,,,z,1,0.600386079983,2018_Nov_14_1534,60.00610069,spanish_cond1,001,1031,
images/envelope02a.jpg,grand piano,x,sounds/animalfarm_spanish.wav,,,,,,,,,0,0,0,1,0,144,144,182,389.152310755,8.98004509509e-06,389.979018969,0.826718156808,,,,,x,1,0.817103681969,2018_Nov_14_1534,60.00610069,spanish_cond1,001,1031,
images/remotecontrol01c.jpg,remote control,z,sounds/animalfarm_spanish.wav,,,,,,,,,0,0,0,1,0,145,145,85,391.089814102,8.98004509509e-06,391.84615397,0.756349167903,,,,,z,1,0.73376005888,2018_Nov_14_1534,60.00610069,spanish_cond1,001,1031,
images/screwdriver02b.jpg,cola,x,sounds/animalfarm_spanish.wav,,,,,,,,,0,0,0,1,0,146,146,158,392.938373134,8.98016151041e-06,393.729917861,0.791554669384,,,,,x,1,0.76708102331,2018_Nov_14_1534,60.00610069,spanish_cond1,001,1031,
images/blackolive.jpg,tank,x,sounds/animalfarm_spanish.wav,,,,,,,,,0,0,0,1,0,147,147,229,394.846104579,9.62149351835e-06,395.730403748,0.884309111512,,,,,x,1,0.867113512009,2018_Nov_14_1534,60.00610069,spanish_cond1,001,1031,
images/sunglasses03a.jpg,sun glasses,z,sounds/animalfarm_spanish.wav,,,,,,,,,0,0,0,1,0,148,148,17,396.839749558,9.30088572204e-06,397.830904805,0.991164869163,,,,,z,1,0.967138624168,2018_Nov_14_1534,60.00610069,spanish_cond1,001,1031,
images/button07.jpg,radish,x,sounds/animalfarm_spanish.wav,,,,,,,,,0,0,0,1,0,149,149,215,398.944078702,8.98004509509e-06,399.964738373,1.02066929289,,,,,x,1,1.00045862631,2018_Nov_14_1534,60.00610069,spanish_cond1,001,1031,
images/bowtie.jpg,bowtie,z,sounds/animalfarm_spanish.wav,,,,,,,,,0,0,0,1,0,150,150,89,401.075779496,1.02629419416e-05,402.365324388,1.28955547558,,,,,z,1,1.26720305637,2018_Nov_14_1534,60.00610069,spanish_cond1,001,1031,
images/floorlamp.jpg,floor lamp,z,sounds/animalfarm_spanish.wav,,,,,,,,,0,0,0,1,0,151,151,26,403.458270299,8.98004509509e-06,404.699215557,1.24095519993,,,,,z,1,1.21718969836,2018_Nov_14_1534,60.00610069,spanish_cond1,001,1031,
images/watermelon01.jpg,orange,x,sounds/animalfarm_spanish.wav,,,,,,,,,0,0,0,1,0,152,152,207,405.829765616,8.98016151041e-06,406.549672275,0.719916600618,,,,,x,1,0.700407022843,2018_Nov_14_1534,60.00610069,spanish_cond1,001,1031,
images/bicycle.jpg,hand bag,x,sounds/animalfarm_spanish.wav,,,,,,,,,0,0,0,1,0,153,153,186,407.660708267,8.98016151041e-06,408.550141164,0.889442518936,,,,,x,1,0.867104531848,2018_Nov_14_1534,60.00610069,spanish_cond1,001,1031,
images/lightswitch02a.jpg,fork,x,sounds/animalfarm_spanish.wav,,,,,,,,,0,0,0,1,0,154,154,177,409.662741296,9.30088572204e-06,410.434039757,0.771308403113,,,,,x,1,0.750513068167,2018_Nov_14_1534,60.00610069,spanish_cond1,001,1031,
images/triangleruler02.jpg,bottle of red wine,x,sounds/animalfarm_spanish.wav,,,,,,,,,0,0,0,1,0,155,155,134,411.54563508,9.30076930672e-06,412.401077034,0.855451575364,,,,,x,1,0.83377394604,2018_Nov_14_1534,60.00610069,spanish_cond1,001,1031,
images/lion.jpg,lion,z,sounds/animalfarm_spanish.wav,,,,,,,,,0,0,0,1,0,156,156,44,413.514706991,9.30076930672e-06,414.101479888,0.586782839149,,,,,z,1,0.567029836704,2018_Nov_14_1534,60.00610069,spanish_cond1,001,1031,
images/kiwi03.jpg,backpack,x,sounds/animalfarm_spanish.wav,,,,,,,,,0,0,0,1,0,157,157,125,415.232534436,9.30088572204e-06,415.935267945,0.702743130503,,,,,x,1,0.683742210967,2018_Nov_14_1534,60.00610069,spanish_cond1,001,1031,
images/barrel01.jpg,barrel,z,sounds/animalfarm_spanish.wav,,,,,,,,,0,0,0,1,0,158,158,9,417.0664681,9.30088572204e-06,418.169131115,1.10267327819,,,,,z,1,1.08382469951,2018_Nov_14_1534,60.00610069,spanish_cond1,001,1031,
images/bowl02b (1).jpg,bowl,z,sounds/animalfarm_spanish.wav,,,,,,,,,0,0,0,1,0,159,159,24,419.288348615,9.30076930672e-06,419.919549251,0.631210257066,,,,,z,1,0.617044477374,2018_Nov_14_1534,60.00610069,spanish_cond1,001,1031,
images/hairband.jpg,hairband,z,sounds/animalfarm_spanish.wav,,,,,,,,,0,0,0,1,0,160,160,66,421.029912377,8.65932088345e-06,421.936704119,0.906801043078,,,,,z,1,0.883775758091,2018_Nov_14_1534,60.00610069,spanish_cond1,001,1031,
images/handbag02a.jpg,candle,x,sounds/animalfarm_spanish.wav,,,,,,,,,0,0,0,1,0,161,161,144,423.051293663,9.62149351835e-06,423.753813574,0.702530173934,,,,,x,1,0.683731627301,2018_Nov_14_1534,60.00610069,spanish_cond1,001,1031,
images/mushroom01.jpg,shower head,x,sounds/animalfarm_spanish.wav,,,,,,,,,0,0,0,1,0,162,162,222,424.924239426,8.65943729877e-06,425.520741294,0.596511810319,,,,,x,1,0.583547118353,2018_Nov_14_1534,60.00610069,spanish_cond1,001,1031,
images/scissors04a.jpg,leek,x,sounds/animalfarm_spanish.wav,,,,,,,,,0,0,0,1,0,163,163,194,426.61557527,8.98004509509e-06,427.354658601,0.739093273296,,,,,x,1,0.717056760914,2018_Nov_14_1534,60.00610069,spanish_cond1,001,1031,
images/cigar.jpg,crocodile,x,sounds/animalfarm_spanish.wav,,,,,,,,,0,0,0,1,0,164,164,162,428.453998339,8.65943729877e-06,429.205141938,0.751153220655,,,,,x,1,0.733764869627,2018_Nov_14_1534,60.00610069,spanish_cond1,001,1031,
images/8ball.jpg,nail clipper,x,sounds/animalfarm_spanish.wav,,,,,,,,,0,0,0,1,0,165,165,206,430.320535201,8.98016151041e-06,430.988884887,0.668359628529,,,,,x,1,0.650394947734,2018_Nov_14_1534,60.00610069,spanish_cond1,001,1031,
images/teapot.jpg,light switch,x,sounds/animalfarm_spanish.wav,,,,,,,,,0,0,0,1,0,166,166,197,432.106736771,9.30088572204e-06,432.805995945,0.699268795783,,,,,x,1,0.683692820487,2018_Nov_14_1534,60.00610069,spanish_cond1,001,1031,
images/axe01.jpg,axe,z,sounds/animalfarm_spanish.wav,,,,,,,,,0,0,0,1,0,167,167,104,433.90854254,9.30076930672e-06,434.689766572,0.781234294758,,,,,z,1,0.767065308057,2018_Nov_14_1534,60.00610069,spanish_cond1,001,1031,
images/pepper05a.jpg,lighter,x,sounds/animalfarm_spanish.wav,,,,,,,,,0,0,0,1,0,168,168,198,435.812244488,8.98016151041e-06,436.373519046,0.561284179334,,,,,x,1,0.550373363541,2018_Nov_14_1534,60.00610069,spanish_cond1,001,1031,
images/chessknight02b (1).jpg,cockroach,x,sounds/animalfarm_spanish.wav,,,,,,,,,0,0,0,1,0,169,169,155,437.483143559,8.98004509509e-06,438.207294275,0.724160016282,,,,,x,1,0.700414719991,2018_Nov_14_1534,60.00610069,spanish_cond1,001,1031,
images/flamingo.jpg,flamingo,z,sounds/animalfarm_spanish.wav,,,,,,,,,0,0,0,1,0,170,170,52,439.306268074,9.30076930672e-06,439.874349544,0.568091412191,,,,,z,1,0.550367269781,2018_Nov_14_1534,60.00610069,spanish_cond1,001,1031,
images/fryingpan01.jpg,frying pan,z,sounds/animalfarm_spanish.wav,,,,,,,,,0,0,0,1,0,171,171,45,440.975855089,8.98016151041e-06,441.59142619,0.615580721991,,,,,z,1,0.600376137765,2018_Nov_14_1534,60.00610069,spanish_cond1,001,1031,
images/bed.jpg,bed,z,sounds/animalfarm_spanish.wav,,,,,,,,,0,0,0,1,0,172,172,103,442.712289292,9.62149351835e-06,443.275168401,0.5628893713,,,,,z,1,0.550367269781,2018_Nov_14_1534,60.00610069,spanish_cond1,001,1031,
images/paperclip04.jpg,eye drops,x,sounds/animalfarm_spanish.wav,,,,,,,,,0,0,0,1,0,173,173,174,444.380305753,8.98004509509e-06,445.058940214,0.678643761785,,,,,x,1,0.667068739771,2018_Nov_14_1534,60.00610069,spanish_cond1,001,1031,
images/coffeepot03b.jpg,coffee pot,z,sounds/animalfarm_spanish.wav,,,,,,,,,0,0,0,1,0,174,174,107,446.181598053,9.62149351835e-06,447.026070179,0.844482068205,,,,,z,1,0.833769776626,2018_Nov_14_1534,60.00610069,spanish_cond1,001,1031,
images/sportshorts02.jpg,tape,x,sounds/animalfarm_spanish.wav,,,,,,,,,0,0,0,1,0,175,175,230,448.134998414,9.30088572204e-06,448.959874048,0.824885576032,,,,,x,1,0.800434380071,2018_Nov_14_1534,60.00610069,spanish_cond1,001,1031,
images/parkfountain.jpg,park fountain,z,sounds/animalfarm_spanish.wav,,,,,,,,,0,0,0,1,0,176,176,93,450.079819898,8.98004509509e-06,451.093720765,1.01391048834,,,,,z,1,1.00047979364,2018_Nov_14_1534,60.00610069,spanish_cond1,001,1031,
images/printer03a.jpg,printer,z,sounds/animalfarm_spanish.wav,,,,,,,,,0,0,0,1,0,177,177,72,452.203780813,9.30076930672e-06,452.910838237,0.707067687763,,,,,z,1,0.683751191013,2018_Nov_14_1534,60.00610069,spanish_cond1,001,1031,
images/grasshopper.jpg,cauliflower,x,sounds/animalfarm_spanish.wav,,,,,,,,,0,0,0,1,0,178,178,148,454.00291821,9.30076930672e-06,454.794598922,0.791690332931,,,,,x,1,0.783732364886,2018_Nov_14_1534,60.00610069,spanish_cond1,001,1031,
images/giraffe.jpg,lettuce,x,sounds/animalfarm_spanish.wav,,,,,,,,,0,0,0,1,0,179,179,195,455.896613125,8.65932088345e-06,456.661727187,0.765123683144,,,,,x,1,0.750420701457,2018_Nov_14_1534,60.00610069,spanish_cond1,001,1031,
images/straw.jpg,straw,z,sounds/animalfarm_spanish.wav,,,,,,,,,0,0,0,1,0,180,180,109,457.75375809,8.98016151041e-06,458.545506152,0.791757363011,,,,,z,1,0.783747117966,2018_Nov_14_1534,60.00610069,spanish_cond1,001,1031,
images/atm.jpg,atm,z,sounds/animalfarm_spanish.wav,,,,,,,,,0,0,0,1,0,181,181,96,459.682504561,8.98004509509e-06,460.679353831,0.996858890983,,,,,z,1,0.983801511698,2018_Nov_14_1534,60.00610069,spanish_cond1,001,1031,
images/bowlingball.jpg,bowling ball,z,sounds/animalfarm_spanish.wav,,,,,,,,,0,0,0,1,0,182,182,20,461.813194775,8.65943729877e-06,462.679993983,0.866808509454,,,,,z,1,0.850596550968,2018_Nov_14_1534,60.00610069,spanish_cond1,001,1031,
images/backpack01b.jpg,swallow,x,sounds/animalfarm_spanish.wav,,,,,,,,,0,0,0,1,0,183,183,228,463.810994972,9.30088572204e-06,464.513619116,0.702633765759,,,,,x,1,0.683705007657,2018_Nov_14_1534,60.00610069,spanish_cond1,001,1031,
images/weight01.jpg,weight,z,sounds/animalfarm_spanish.wav,,,,,,,,,0,0,0,1,0,184,184,67,465.619331195,9.62149351835e-06,466.530770778,0.911449204548,,,,,z,1,0.900414912496,2018_Nov_14_1534,60.00610069,spanish_cond1,001,1031,
images/cloud.jpg,ceiling fan,x,sounds/animalfarm_spanish.wav,,,,,,,,,0,0,0,1,0,185,185,149,467.637015568,8.98016151041e-06,468.39787114,0.760865514516,,,,,x,1,0.750393119757,2018_Nov_14_1534,60.00610069,spanish_cond1,001,1031,
images/ladder.jpg,ladder,z,sounds/animalfarm_spanish.wav,,,,,,,,,0,0,0,1,0,186,186,113,469.491590301,8.98016151041e-06,470.365018103,0.8734377441,,,,,z,1,0.850437154295,2018_Nov_14_1534,60.00610069,spanish_cond1,001,1031,
images/banjo.jpg,knife,x,sounds/animalfarm_spanish.wav,,,,,,,,,0,0,0,1,0,187,187,191,471.462904669,9.30088572204e-06,472.332154161,0.869259434054,,,,,x,1,0.8504387578,2018_Nov_14_1534,60.00610069,spanish_cond1,001,1031,
images/ostrich.jpg,ostrich,z,sounds/animalfarm_spanish.wav,,,,,,,,,0,0,0,1,0,188,188,76,473.433188572,9.30076930672e-06,474.165937408,0.732759098988,,,,,z,1,0.717076645466,2018_Nov_14_1534,60.00610069,spanish_cond1,001,1031,
images/battery03b.jpg,battery,z,sounds/animalfarm_spanish.wav,,,,,,,,,0,0,0,1,0,189,189,34,475.275972761,9.30076930672e-06,475.916363562,0.640400743228,,,,,z,1,0.617056985386,2018_Nov_14_1534,60.00610069,spanish_cond1,001,1031,
images/radio03a.jpg,radio,z,sounds/animalfarm_spanish.wav,,,,,,,,,0,0,0,1,0,190,190,37,477.031314234,9.30088572204e-06,477.766789491,0.735484878649,,,,,z,1,0.717060930212,2018_Nov_14_1534,60.00610069,spanish_cond1,001,1031,
images/treadmill.jpg,lily,x,sounds/animalfarm_spanish.wav,,,,,,,,,0,0,0,1,0,191,191,199,478.872128574,9.30076930672e-06,480.000686015,1.12856770365,,,,,x,1,1.11718190496,2018_Nov_14_1534,60.00610069,spanish_cond1,001,1031,
images/bullet (2).jpg,rubber glove,x,sounds/animalfarm_spanish.wav,,,,,,,,,0,0,0,1,0,192,192,217,481.107099824,9.62149351835e-06,481.884463377,0.777373495279,,,,,x,1,0.767087116838,2018_Nov_14_1534,60.00610069,spanish_cond1,001,1031,
images/lily.jpg,kiwi,x,sounds/animalfarm_spanish.wav,,,,,,,,,0,0,0,1,0,193,193,190,482.982421784,8.98016151041e-06,483.901606699,0.919194536749,,,,,x,1,0.900446663611,2018_Nov_14_1534,60.00610069,spanish_cond1,001,1031,
images/dryingmachine01.jpg,drying machine,z,sounds/animalfarm_spanish.wav,,,,,,,,,0,0,0,1,0,194,194,18,485.024442216,8.65932088345e-06,485.668710494,0.644277578569,,,,,z,1,0.633733984549,2018_Nov_14_1534,60.00610069,spanish_cond1,001,1031,
images/toothbrush03a.jpg,parrot,x,sounds/animalfarm_spanish.wav,,,,,,,,,0,0,0,1,0,195,195,210,486.762252939,8.98016151041e-06,487.452459857,0.690216218238,,,,,x,1,0.667065853369,2018_Nov_14_1534,60.00610069,spanish_cond1,001,1031,
images/key03b.jpg,cigar,x,sounds/animalfarm_spanish.wav,,,,,,,,,0,0,0,1,0,196,196,153,488.554672584,9.30088572204e-06,490.203138415,1.64847737679,,,,,x,1,1.63397324004,2018_Nov_14_1534,60.00610069,spanish_cond1,001,1031,
images/icecube02 (2).jpg,aloe,x,sounds/animalfarm_spanish.wav,,,,,,,,,0,0,0,1,0,197,197,122,491.314844386,9.62149351835e-06,492.10358123,0.788746785955,,,,,x,1,0.767082306091,2018_Nov_14_1534,60.00610069,spanish_cond1,001,1031,
images/boxingglove02a.jpg,bracelet,x,sounds/animalfarm_spanish.wav,,,,,,,,,0,0,0,1,0,198,198,135,493.215754487,9.62149351835e-06,494.154066684,0.938322460395,,,,,x,1,0.917104740278,2018_Nov_14_1534,60.00610069,spanish_cond1,001,1031,
images/arrow02.jpg,hammer,x,sounds/animalfarm_spanish.wav,,,,,,,,,0,0,0,1,0,199,199,184,495.250713677,9.62149351835e-06,496.387951342,1.13724760723,,,,,x,1,1.11716458621,2018_Nov_14_1534,60.00610069,spanish_cond1,001,1031,
images/pouch01b.jpg,pouch,z,sounds/animalfarm_spanish.wav,,,,,,,,,0,0,0,1,0,200,200,25,497.501678155,9.30076930672e-06,498.721838341,1.22017012793,,,,,z,1,1.20051686862,2018_Nov_14_1534,60.00610069,spanish_cond1,001,1031,
images/gluestick.jpg,squirrel,x,sounds/animalfarm_spanish.wav,,,,,,,,,0,0,0,1,0,201,201,226,499.830667474,9.30076930672e-06,500.655635475,0.824977301178,,,,,x,1,0.817095343256,2018_Nov_14_1534,60.00610069,spanish_cond1,001,1031,
images/bench02.jpg,electric toothbrush,x,sounds/animalfarm_spanish.wav,,,,,,,,,0,0,0,1,0,202,202,172,501.765302644,9.30076930672e-06,502.839493304,1.07420060306,,,,,x,1,1.05048160581,2018_Nov_14_1534,60.00610069,spanish_cond1,001,1031,
images/egg01b (1).jpg,egg,z,sounds/animalfarm_spanish.wav,,,,,,,,,0,0,0,1,0,203,203,19,503.953088303,9.30076930672e-06,505.42345928,1.47038091952,,,,,z,1,1.45059680752,2018_Nov_14_1534,60.00610069,spanish_cond1,001,1031,
images/banana04a.jpg,banana,z,sounds/animalfarm_spanish.wav,,,,,,,,,0,0,0,1,0,204,204,118,506.528878543,9.30088572204e-06,507.29056285,0.761693928274,,,,,z,1,0.750409797067,2018_Nov_14_1534,60.00610069,spanish_cond1,001,1031,
images/comb02a.jpg,diploma,x,sounds/animalfarm_spanish.wav,,,,,,,,,0,0,0,1,0,205,205,166,508.396277815,8.98004509509e-06,509.024311684,0.628043169854,,,,,x,1,0.617011443479,2018_Nov_14_1534,60.00610069,spanish_cond1,001,1031,
images/squirrel.jpg,binder,x,sounds/animalfarm_spanish.wav,,,,,,,,,0,0,0,1,0,206,206,132,510.128215235,8.98016151041e-06,510.741395064,0.61318913009,,,,,x,1,0.600373892696,2018_Nov_14_1534,60.00610069,spanish_cond1,001,1031,
images/plant01.jpg,plant,z,sounds/animalfarm_spanish.wav,,,,,,,,,0,0,0,1,0,207,207,47,511.853846063,8.98004509509e-06,512.625175312,0.771339191939,,,,,z,1,0.750403703307,2018_Nov_14_1534,60.00610069,spanish_cond1,001,1031,
images/croissant02b.jpg,croissant,z,sounds/animalfarm_spanish.wav,,,,,,,,,0,0,0,1,0,208,208,39,513.737593277,9.30088572204e-06,515.225961327,1.48839338718,,,,,z,1,1.4673414781,2018_Nov_14_1534,60.00610069,spanish_cond1,001,1031,
images/swan.jpg,swan,z,sounds/animalfarm_spanish.wav,,,,,,,,,0,0,0,1,0,209,209,54,516.318980361,8.65932088345e-06,517.159610931,0.840640190989,,,,,z,1,0.8171014369,2018_Nov_14_1534,60.00610069,spanish_cond1,001,1031,
images/skateboard.jpg,key,x,sounds/animalfarm_spanish.wav,,,,,,,,,0,0,0,1,0,210,210,189,518.251496228,9.30076930672e-06,518.893355595,0.641868668026,,,,,x,1,0.633713458548,2018_Nov_14_1534,60.00610069,spanish_cond1,001,1031,
images/mailbox01.jpg,mail box,z,sounds/animalfarm_spanish.wav,,,,,,,,,0,0,0,1,0,211,211,73,520.014477838,9.30088572204e-06,520.893836993,0.879368776339,,,,,z,1,0.867093627341,2018_Nov_14_1534,60.00610069,spanish_cond1,001,1031,
images/grandpiano.jpg,tulip,x,sounds/animalfarm_spanish.wav,,,,,,,,,0,0,0,1,0,212,212,236,522.009463737,8.98016151041e-06,522.694276825,0.684823029675,,,,,x,1,0.667062646127,2018_Nov_14_1534,60.00610069,spanish_cond1,001,1031,
images/peach01.jpg,peach,z,sounds/animalfarm_spanish.wav,,,,,,,,,0,0,0,1,0,213,213,106,523.82414568,9.30076930672e-06,525.061504352,1.23736829334,,,,,z,1,1.21718135977,2018_Nov_14_1534,60.00610069,spanish_cond1,001,1031,
images/tie01.jpg,bench,x,sounds/animalfarm_spanish.wav,,,,,,,,,0,0,0,1,0,214,214,130,526.16103588,8.98004509509e-06,527.295372653,1.13434639492,,,,,x,1,1.11716490693,2018_Nov_14_1534,60.00610069,spanish_cond1,001,1031,
images/puma.jpg,puma,z,sounds/animalfarm_spanish.wav,,,,,,,,,0,0,0,1,0,215,215,4,528.394998151,9.30088572204e-06,529.012470145,0.617481936351,,,,,z,1,0.600380948512,2018_Nov_14_1534,60.00610069,spanish_cond1,001,1031,
images/elbow.jpg,elbow,z,sounds/animalfarm_spanish.wav,,,,,,,,,0,0,0,1,0,216,216,105,530.123640197,9.30076930672e-06,530.94626311,0.822632854804,,,,,z,1,0.800437266589,2018_Nov_14_1534,60.00610069,spanish_cond1,001,1031,
images/razor04a.jpg,razor,z,sounds/animalfarm_spanish.wav,,,,,,,,,0,0,0,1,0,217,217,36,532.047568527,9.62149351835e-06,532.896726659,0.849168074317,,,,,z,1,0.833769456018,2018_Nov_14_1534,60.00610069,spanish_cond1,001,1031,
images/marker01a.jpg,marker,z,sounds/animalfarm_spanish.wav,,,,,,,,,0,0,0,1,0,218,218,95,533.996245037,8.98004509509e-06,534.647147681,0.65091226541,,,,,z,1,0.633714741562,2018_Nov_14_1534,60.00610069,spanish_cond1,001,1031,
images/ladybug03.jpg,giraffe,x,sounds/animalfarm_spanish.wav,,,,,,,,,0,0,0,1,0,219,219,178,535.749985167,8.98016151041e-06,536.380892666,0.630917121191,,,,,x,1,0.617042232421,2018_Nov_14_1534,60.00610069,spanish_cond1,001,1031,
images/flower01.jpg,bus,x,sounds/animalfarm_spanish.wav,,,,,,,,,0,0,0,1,0,220,220,140,537.496335961,9.30088572204e-06,538.131321386,0.634995367262,,,,,x,1,0.617045439547,2018_Nov_14_1534,60.00610069,spanish_cond1,001,1031,
images/charcoalbarbecue.jpg,charcoal barbecue,z,sounds/animalfarm_spanish.wav,,,,,,,,,0,0,0,1,0,221,221,77,539.249593089,8.65943729877e-06,540.165138821,0.915555032436,,,,,z,1,0.900440569967,2018_Nov_14_1534,60.00610069,spanish_cond1,001,1031,
images/bottleofredwine02.jpg,pipe,x,sounds/animalfarm_spanish.wav,,,,,,,,,0,0,0,1,0,222,222,213,541.26464854,9.30088572204e-06,542.198976462,0.934337863931,,,,,x,1,0.91713552922,2018_Nov_14_1534,60.00610069,spanish_cond1,001,1031,
images/hammer02a.jpg,flower,x,sounds/animalfarm_spanish.wav,,,,,,,,,0,0,0,1,0,223,223,176,543.2953935,8.98016151041e-06,544.016066032,0.720682153711,,,,,x,1,0.700399325578,2018_Nov_14_1534,60.00610069,spanish_cond1,001,1031,
images/thumbtack02a.jpg,thumb tack,z,sounds/animalfarm_spanish.wav,,,,,,,,,0,0,0,1,0,224,224,60,545.127761099,8.65932088345e-06,546.516658237,1.38890643918,,,,,z,1,1.36722335767,2018_Nov_14_1534,60.00610069,spanish_cond1,001,1031,
images/lemon02.jpg,lemon,z,sounds/animalfarm_spanish.wav,,,,,,,,,0,0,0,1,0,225,225,14,547.62947774,9.62160993367e-06,548.250406429,0.620938631706,,,,,z,1,0.600366836879,2018_Nov_14_1534,60.00610069,spanish_cond1,001,1031,
images/handfan01b.jpg,handfan,z,sounds/animalfarm_spanish.wav,,,,,,,,,0,0,0,1,0,226,226,69,549.367411298,8.98016151041e-06,550.367596994,1.00019531709,,,,,z,1,0.983784834389,2018_Nov_14_1534,60.00610069,spanish_cond1,001,1031,
images/redfox.jpg,red fox,z,sounds/animalfarm_spanish.wav,,,,,,,,,0,0,0,1,0,227,227,1,551.481015277,8.98004509509e-06,552.184702921,0.703697265591,,,,,z,1,0.683732589474,2018_Nov_14_1534,60.00610069,spanish_cond1,001,1031,
images/rhinoceros01.jpg,envelope,x,sounds/animalfarm_spanish.wav,,,,,,,,,0,0,0,1,0,228,228,173,553.297826464,8.98016151041e-06,554.535264353,1.23744751059,,,,,x,1,1.21719386778,2018_Nov_14_1534,60.00610069,spanish_cond1,001,1031,
images/pipe.jpg,icecube,x,sounds/animalfarm_spanish.wav,,,,,,,,,0,0,0,1,0,229,229,188,555.645656985,9.30076930672e-06,557.185910102,1.54026241763,,,,,z,0,1.51727369439,2018_Nov_14_1534,60.00610069,spanish_cond1,001,1031,
images/showerhead01.jpg,skateboard,x,sounds/animalfarm_spanish.wav,,,,,,,,,0,0,0,1,0,230,230,223,558.294007358,9.30076930672e-06,559.336418424,1.04242068727,,,,,x,1,1.03380236158,2018_Nov_14_1534,60.00610069,spanish_cond1,001,1031,
images/diploma01.jpg,glasses,x,sounds/animalfarm_spanish.wav,,,,,,,,,0,0,0,1,0,231,231,179,560.468795933,8.98016151041e-06,561.270211068,0.801424756297,,,,,x,1,0.783746476518,2018_Nov_14_1534,60.00610069,spanish_cond1,001,1031,
images/candy.jpg,candy,z,sounds/animalfarm_spanish.wav,,,,,,,,,0,0,0,1,0,232,232,31,562.373683574,8.98004509509e-06,563.137336125,0.763661851874,,,,,z,1,0.750414928538,2018_Nov_14_1534,60.00610069,spanish_cond1,001,1031,
,,,sounds/animalfarm_spanish.wav,,,,,,,,,0,0,0,1,,,,,,,,,,,,,,,,2018_Nov_14_1534,60.00610069,spanish_cond1,001,1031,
images/cake.jpg,cake,z,sounds/greatgatsby_english.wav,,,,,,,,,0,1,1,0,0,0,0,23,584.277352488,9.94221772999e-06,585.759440886,1.48209834041,,,,574.140135029,z,1,1.46724718704,2018_Nov_14_1534,60.00610069,spanish_cond1,001,1031,
images/skateboard.jpg,key,x,sounds/greatgatsby_english.wav,,,,,,,,,0,1,1,0,0,1,1,189,586.850513485,8.98004509509e-06,587.54318608,0.692681895802,,,,,x,1,0.683718477841,2018_Nov_14_1534,60.00610069,spanish_cond1,001,1031,
images/paintbrush03a.jpg,paint brush,z,sounds/greatgatsby_english.wav,,,,,,,,,0,1,1,0,0,2,2,0,588.643549229,9.30076930672e-06,589.427009946,0.78347033856,,,,,z,1,0.767106359941,2018_Nov_14_1534,60.00610069,spanish_cond1,001,1031,
images/spoon02b.jpg,spoon,z,sounds/greatgatsby_english.wav,,,,,,,,,0,1,1,0,0,3,3,38,590.517956502,8.98016151041e-06,591.127400612,0.609454051941,,,,,z,1,0.600379344891,2018_Nov_14_1534,60.00610069,spanish_cond1,001,1031,
images/dreamcatcher.jpg,dream catcher,z,sounds/greatgatsby_english.wav,,,,,,,,,0,1,1,0,0,4,4,48,592.225517133,8.98016151041e-06,593.094552706,0.869045515312,,,,,z,1,0.850449983031,2018_Nov_14_1534,60.00610069,spanish_cond1,001,1031,
images/acousticguitar02.jpg,acoustic guitar,z,sounds/greatgatsby_english.wav,,,,,,,,,0,1,1,0,0,5,5,97,594.206923525,9.62149351835e-06,595.011676369,0.804762465181,,,,,z,1,0.783763153828,2018_Nov_14_1534,60.00610069,spanish_cond1,001,1031,
images/cockroach02.jpg,belt,x,sounds/greatgatsby_english.wav,,,,,,,,,0,1,1,0,0,6,6,129,596.11008346,2.98267696053e-05,596.828777164,0.718710702029,,,,,x,1,0.70040830574,2018_Nov_14_1534,60.00610069,spanish_cond1,001,1031,
images/toucan.jpg,toucan,z,sounds/greatgatsby_english.wav,,,,,,,,,0,1,1,0,0,7,7,81,597.929773089,9.62149351835e-06,598.729227997,0.799465491902,,,,,z,1,0.783759625978,2018_Nov_14_1534,60.00610069,spanish_cond1,001,1031,
images/sunglasses03a.jpg,sun glasses,z,sounds/greatgatsby_english.wav,,,,,,,,,0,1,1,0,0,8,8,17,599.838084071,8.98016151041e-06,600.446312661,0.60823789041,,,,,z,1,0.583712608786,2018_Nov_14_1534,60.00610069,spanish_cond1,001,1031,
images/baseball01a.jpg,baseball,z,sounds/greatgatsby_english.wav,,,,,,,,,0,1,1,0,0,9,9,74,601.579770347,9.30076930672e-06,602.346761569,0.767001164495,,,,,z,1,0.750400496181,2018_Nov_14_1534,60.00610069,spanish_cond1,001,1031,
images/handfan01b.jpg,handfan,z,sounds/greatgatsby_english.wav,,,,,,,,,0,1,1,0,0,10,10,69,603.46180557,8.65943729877e-06,604.130538193,0.66874192399,,,,,z,1,0.650397834252,2018_Nov_14_1534,60.00610069,spanish_cond1,001,1031,
images/electricguitar02.jpg,electric guitar,z,sounds/greatgatsby_english.wav,,,,,,,,,0,1,1,0,0,11,11,100,605.232817951,9.30076930672e-06,606.864518264,1.63171025598,,,,,z,1,1.61728886433,2018_Nov_14_1534,60.00610069,spanish_cond1,001,1031,
images/pipe.jpg,icecube,x,sounds/greatgatsby_english.wav,,,,,,,,,0,1,1,0,0,12,12,188,607.973872092,9.30076930672e-06,609.3817926,1.4079304504,,,,,x,1,1.38389265968,2018_Nov_14_1534,60.00610069,spanish_cond1,001,1031,
images/honeycomb.jpg,honey comb,z,sounds/greatgatsby_english.wav,,,,,,,,,0,1,1,0,0,13,13,59,610.494895618,8.98004509509e-06,611.16554934,0.670663343626,,,,,z,1,0.650387250585,2018_Nov_14_1534,60.00610069,spanish_cond1,001,1031,
images/lily.jpg,kiwi,x,sounds/greatgatsby_english.wav,,,,,,,,,0,1,1,0,0,14,14,190,612.265272977,9.30088572204e-06,612.965978267,0.700715232524,,,,,x,1,0.683718798682,2018_Nov_14_1534,60.00610069,spanish_cond1,001,1031,
images/broom02.jpg,broom,z,sounds/greatgatsby_english.wav,,,,,,,,,0,1,1,0,0,15,15,116,614.058976455,8.98004509509e-06,614.882956004,0.823988849297,,,,,z,1,0.800267927465,2018_Nov_14_1534,60.00610069,spanish_cond1,001,1031,
images/ostrich.jpg,ostrich,z,sounds/greatgatsby_english.wav,,,,,,,,,0,1,1,0,0,16,16,76,615.982537884,8.98016151041e-06,616.583528196,0.601000575116,,,,,z,1,0.583701383672,2018_Nov_14_1534,60.00610069,spanish_cond1,001,1031,
images/worldmap.jpg,scooter,x,sounds/greatgatsby_english.wav,,,,,,,,,0,1,1,0,0,17,17,220,617.714149776,9.62149351835e-06,618.5840128,0.869872966898,,,,,x,1,0.850443247822,2018_Nov_14_1534,60.00610069,spanish_cond1,001,1031,
images/button07.jpg,radish,x,sounds/greatgatsby_english.wav,,,,,,,,,0,1,1,0,0,18,18,215,619.695288048,9.30076930672e-06,620.451106107,0.755828001653,,,,,x,1,0.733732156456,2018_Nov_14_1534,60.00610069,spanish_cond1,001,1031,
images/bowl02b (1).jpg,bowl,z,sounds/greatgatsby_english.wav,,,,,,,,,0,1,1,0,0,19,19,24,621.56882778,9.30088572204e-06,622.218257368,0.649439850589,,,,,z,1,0.633761245525,2018_Nov_14_1534,60.00610069,spanish_cond1,001,1031,
images/squirrel.jpg,binder,x,sounds/greatgatsby_english.wav,,,,,,,,,0,1,1,0,0,20,20,132,623.320450852,9.62149351835e-06,624.018650054,0.698209144524,,,,,x,1,0.683736117324,2018_Nov_14_1534,60.00610069,spanish_cond1,001,1031,
images/pen03c.jpg,pepper,x,sounds/greatgatsby_english.wav,,,,,,,,,0,1,1,0,0,21,21,211,625.110714633,8.98004509509e-06,625.902432227,0.791726894677,,,,,x,1,0.783696123865,2018_Nov_14_1534,60.00610069,spanish_cond1,001,1031,
images/umbrella01.jpg,umbrella,z,sounds/greatgatsby_english.wav,,,,,,,,,0,1,1,0,0,22,22,53,627.013212927,9.30088572204e-06,627.536158835,0.522955849767,,,,,x,0,0.500351987663,2018_Nov_14_1534,60.00610069,spanish_cond1,001,1031,
images/weight01.jpg,weight,z,sounds/greatgatsby_english.wav,,,,,,,,,0,1,1,0,0,23,23,67,628.639319283,8.65932088345e-06,629.253230669,0.61392100784,,,,,z,1,0.600365554099,2018_Nov_14_1534,60.00610069,spanish_cond1,001,1031,
images/graduationcap.jpg,graduation cap,z,sounds/greatgatsby_english.wav,,,,,,,,,0,1,1,0,0,24,24,35,630.353652189,8.98004509509e-06,630.970154333,0.616511123953,,,,,z,1,0.600216740975,2018_Nov_14_1534,60.00610069,spanish_cond1,001,1031,
images/candle08a.jpg,screw driver,x,sounds/greatgatsby_english.wav,,,,,,,,,0,1,1,0,0,25,25,221,632.082043754,8.98016151041e-06,632.80410307,0.72206893703,,,,,x,1,0.700404136325,2018_Nov_14_1534,60.00610069,spanish_cond1,001,1031,
images/hat05.jpg,hat,z,sounds/greatgatsby_english.wav,,,,,,,,,0,1,1,0,0,26,26,15,633.905925484,9.30076930672e-06,634.554512546,0.648597004358,,,,,z,1,0.63371666579,2018_Nov_14_1534,60.00610069,spanish_cond1,001,1031,
images/teapot.jpg,light switch,x,sounds/greatgatsby_english.wav,,,,,,,,,0,1,1,0,0,27,27,197,635.669138972,9.62149351835e-06,636.521663999,0.852534968639,,,,,x,1,0.833774587372,2018_Nov_14_1534,60.00610069,spanish_cond1,001,1031,
images/crocodile.jpg,triangle ruler,x,sounds/greatgatsby_english.wav,,,,,,,,,0,1,1,0,0,28,28,235,637.617238512,9.30088572204e-06,638.338765436,0.721536545665,,,,,x,1,0.700405098498,2018_Nov_14_1534,60.00610069,spanish_cond1,001,1031,
images/bus.jpg,microphone,x,sounds/greatgatsby_english.wav,,,,,,,,,0,1,1,0,0,29,29,203,639.4551247,8.98016151041e-06,640.172530402,0.717415323365,,,,,x,1,0.700401249924,2018_Nov_14_1534,60.00610069,spanish_cond1,001,1031,
images/pictureframe04.jpg,picture frame,z,sounds/greatgatsby_english.wav,,,,,,,,,0,1,1,0,0,30,30,41,641.292526925,8.65943729877e-06,642.123005497,0.830488193315,,,,,z,1,0.817101116176,2018_Nov_14_1534,60.00610069,spanish_cond1,001,1031,
images/razor04a.jpg,razor,z,sounds/greatgatsby_english.wav,,,,,,,,,0,1,1,0,0,31,31,36,643.220770511,9.30076930672e-06,644.256853496,1.03609292721,,,,,z,1,1.01714524697,2018_Nov_14_1534,60.00610069,spanish_cond1,001,1031,
images/medal01.jpg,medal,z,sounds/greatgatsby_english.wav,,,,,,,,,0,1,1,0,0,32,32,115,645.357473219,8.98016151041e-06,646.040613443,0.683149845456,,,,,z,1,0.667057514656,2018_Nov_14_1534,60.00610069,spanish_cond1,001,1031,
images/barrel01.jpg,barrel,z,sounds/greatgatsby_english.wav,,,,,,,,,0,1,1,0,0,33,33,9,647.168658698,9.30076930672e-06,648.007771631,0.839122875594,,,,,z,1,0.817118114326,2018_Nov_14_1534,60.00610069,spanish_cond1,001,1031,
images/screw03c.jpg,screw,z,sounds/greatgatsby_english.wav,,,,,,,,,0,1,1,0,0,34,34,84,649.099720751,8.98004509509e-06,649.74150058,0.641789130052,,,,,z,1,0.63372019364,2018_Nov_14_1534,60.00610069,spanish_cond1,001,1031,
images/headphones02b.jpg,headphones,z,sounds/greatgatsby_english.wav,,,,,,,,,0,1,1,0,0,35,35,101,650.84702119,9.62149351835e-06,651.54193015,0.694919222384,,,,,z,1,0.683727778727,2018_Nov_14_1534,60.00610069,spanish_cond1,001,1031,
images/printer03a.jpg,printer,z,sounds/greatgatsby_english.wav,,,,,,,,,0,1,1,0,0,36,36,72,652.649104059,9.30076930672e-06,653.325690096,0.676595658646,,,,,z,1,0.667057193816,2018_Nov_14_1534,60.00610069,spanish_cond1,001,1031,
images/basketball01.jpg,basket ball,z,sounds/greatgatsby_english.wav,,,,,,,,,0,1,1,0,0,37,37,33,654.462763874,9.62149351835e-06,655.159467249,0.696713317186,,,,,z,1,0.683682236704,2018_Nov_14_1534,60.00610069,spanish_cond1,001,1031,
images/radio03a.jpg,radio,z,sounds/greatgatsby_english.wav,,,,,,,,,0,1,1,0,0,38,38,37,656.271990409,8.98004509509e-06,656.843207215,0.571226427564,,,,,z,1,0.550350271864,2018_Nov_14_1534,60.00610069,spanish_cond1,001,1031,
images/shotglass.jpg,shot glass,z,sounds/greatgatsby_english.wav,,,,,,,,,0,1,1,0,0,39,39,86,657.949953287,9.62160993367e-06,658.910373517,0.960430492996,,,,,z,1,0.95046322851,2018_Nov_14_1534,60.00610069,spanish_cond1,001,1031,
images/wallet01.jpg,lamp,x,sounds/greatgatsby_english.wav,,,,,,,,,0,1,1,0,0,40,40,193,660.013383549,9.30076930672e-06,660.910855235,0.897481307737,,,,,x,1,0.883761967183,2018_Nov_14_1534,60.00610069,spanish_cond1,001,1031,
images/lightswitch02a.jpg,fork,x,sounds/greatgatsby_english.wav,,,,,,,,,0,1,1,0,0,41,41,177,662.021038439,9.30088572204e-06,662.911343688,0.89031519182,,,,,x,1,0.867121209158,2018_Nov_14_1534,60.00610069,spanish_cond1,001,1031,
images/highheelshoe02a.jpg,high heel shoe,z,sounds/greatgatsby_english.wav,,,,,,,,,0,1,1,0,0,42,42,75,664.016291496,9.30076930672e-06,664.761778598,0.745497043361,,,,,z,1,0.733746588812,2018_Nov_14_1534,60.00610069,spanish_cond1,001,1031,
images/butterfly.jpg,butterfly,z,sounds/greatgatsby_english.wav,,,,,,,,,0,1,1,0,0,43,43,91,665.866914346,9.30076930672e-06,666.395515148,0.528610102483,,,,,z,1,0.517029628158,2018_Nov_14_1534,60.00610069,spanish_cond1,001,1031,
images/swan.jpg,swan,z,sounds/greatgatsby_english.wav,,,,,,,,,0,1,1,0,0,44,44,54,667.486337587,9.62149351835e-06,668.062570097,0.576242772979,,,,,z,1,0.566977238981,2018_Nov_14_1534,60.00610069,spanish_cond1,001,1031,
images/dice05a.jpg,band aid,x,sounds/greatgatsby_english.wav,,,,,,,,,0,1,1,0,0,45,45,126,669.172697816,9.30076930672e-06,669.963036003,0.790348770795,,,,,x,1,0.767080702586,2018_Nov_14_1534,60.00610069,spanish_cond1,001,1031,
images/bull.jpg,button,x,sounds/greatgatsby_english.wav,,,,,,,,,0,1,1,0,0,46,46,141,671.067052127,9.30076930672e-06,671.780138723,0.713096538908,,,,,x,1,0.700406060671,2018_Nov_14_1534,60.00610069,spanish_cond1,001,1031,
images/lamp04b.jpg,parking meter,x,sounds/greatgatsby_english.wav,,,,,,,,,0,1,1,0,0,47,47,209,672.899875786,9.30076930672e-06,674.13070208,1.23083783966,,,,,x,1,1.21719771647,2018_Nov_14_1534,60.00610069,spanish_cond1,001,1031,
images/cola.jpg,comb,x,sounds/greatgatsby_english.wav,,,,,,,,,0,1,1,0,0,48,48,157,675.24965146,9.30088572204e-06,676.014513117,0.764871278428,,,,,x,1,0.750350784976,2018_Nov_14_1534,60.00610069,spanish_cond1,001,1031,
images/lightbulb03b.jpg,treadmill,x,sounds/greatgatsby_english.wav,,,,,,,,,0,1,1,0,0,49,49,234,677.115814685,9.30076930672e-06,677.914945348,0.799139963347,,,,,x,1,0.783756098128,2018_Nov_14_1534,60.00610069,spanish_cond1,001,1031,
images/lion.jpg,lion,z,sounds/greatgatsby_english.wav,,,,,,,,,0,1,1,0,0,50,50,44,679.025257159,9.30088572204e-06,679.698735442,0.673487904365,,,,,z,1,0.650422208826,2018_Nov_14_1534,60.00610069,spanish_cond1,001,1031,
images/parkingmeter.jpg,ear,x,sounds/greatgatsby_english.wav,,,,,,,,,0,1,1,0,0,51,51,171,680.798531883,8.98004509509e-06,681.482452413,0.683930151514,,,,,x,1,0.667027367163,2018_Nov_14_1534,60.00610069,spanish_cond1,001,1031,
images/gamecontroller01.jpg,game controller,z,sounds/greatgatsby_english.wav,,,,,,,,,0,1,1,0,0,52,52,112,682.600777035,1.02629419416e-05,683.299586884,0.698821073864,,,,,z,1,0.683742210967,2018_Nov_14_1534,60.00610069,spanish_cond1,001,1031,
images/lighter02b.jpg,stapler,x,sounds/greatgatsby_english.wav,,,,,,,,,0,1,1,0,0,53,53,227,684.399282619,9.62149351835e-06,685.016646531,0.617373854504,,,,,x,1,0.600366195431,2018_Nov_14_1534,60.00610069,spanish_cond1,001,1031,
images/dryingmachine01.jpg,drying machine,z,sounds/greatgatsby_english.wav,,,,,,,,,0,1,1,0,0,54,54,18,686.135687316,9.30076930672e-06,686.733753324,0.598075308953,,,,,z,1,0.58373537974,2018_Nov_14_1534,60.00610069,spanish_cond1,001,1031,
images/pouch01b.jpg,pouch,z,sounds/greatgatsby_english.wav,,,,,,,,,0,1,1,0,0,55,55,25,687.844558078,9.30088572204e-06,688.450805915,0.606257458683,,,,,z,1,0.583702987293,2018_Nov_14_1534,60.00610069,spanish_cond1,001,1031,
images/lock02a.jpg,lock,z,sounds/greatgatsby_english.wav,,,,,,,,,0,1,1,0,0,56,56,65,689.559548455,9.62160993367e-06,690.201236559,0.641698366962,,,,,z,1,0.633727890905,2018_Nov_14_1534,60.00610069,spanish_cond1,001,1031,
images/corn01.jpg,corn,z,sounds/greatgatsby_english.wav,,,,,,,,,0,1,1,0,0,57,57,22,691.299025948,8.98004509509e-06,692.001674467,0.702658140217,,,,,z,1,0.683741569519,2018_Nov_14_1534,60.00610069,spanish_cond1,001,1031,
images/nametag01a.jpg,name tag,z,sounds/greatgatsby_english.wav,,,,,,,,,0,1,1,0,0,58,58,108,693.12124604,9.30076930672e-06,693.852110018,0.730874561821,,,,,z,1,0.717067023972,2018_Nov_14_1534,60.00610069,spanish_cond1,001,1031,
images/paperclip04.jpg,eye drops,x,sounds/greatgatsby_english.wav,,,,,,,,,0,1,1,0,0,59,59,174,694.956936915,9.30088572204e-06,695.719220964,0.762293991051,,,,,x,1,0.750402741251,2018_Nov_14_1534,60.00610069,spanish_cond1,001,1031,
images/tank.jpg,wallet,x,sounds/greatgatsby_english.wav,,,,,,,,,0,1,1,0,0,60,60,237,696.821938822,9.94221772999e-06,697.469636534,0.647707333555,,,,,x,1,0.633706402848,2018_Nov_14_1534,60.00610069,spanish_cond1,001,1031,
images/lantern03.jpg,lantern,z,sounds/greatgatsby_english.wav,,,,,,,,,0,1,1,0,0,61,61,5,698.574398005,8.98016151041e-06,699.336761912,0.76237384975,,,,,z,1,0.750404986204,2018_Nov_14_1534,60.00610069,spanish_cond1,001,1031,
images/dragonfly02.jpg,dragon fly,z,sounds/greatgatsby_english.wav,,,,,,,,,0,1,1,0,0,62,62,29,700.43297337,9.30088572204e-06,700.903828311,0.470864561852,,,,,z,1,0.450352099957,2018_Nov_14_1534,60.00610069,spanish_cond1,001,1031,
images/swallow.jpg,mattress,x,sounds/greatgatsby_english.wav,,,,,,,,,0,1,1,0,0,63,63,202,702.003892551,9.30076930672e-06,702.720907297,0.717024689075,,,,,x,1,0.700396118453,2018_Nov_14_1534,60.00610069,spanish_cond1,001,1031,
images/chameleon.jpg,50 dollar bill,x,sounds/greatgatsby_english.wav,,,,,,,,,0,1,1,0,0,64,64,120,703.829277484,8.98004509509e-06,704.571352149,0.742084286525,,,,,x,1,0.733742740122,2018_Nov_14_1534,60.00610069,spanish_cond1,001,1031,
images/carrot02.jpg,corkscrew,x,sounds/greatgatsby_english.wav,,,,,,,,,0,1,1,0,0,65,65,161,705.672215617,9.30088572204e-06,706.321788886,0.649583532126,,,,,x,1,0.633734946721,2018_Nov_14_1534,60.00610069,spanish_cond1,001,1031,
images/sock03.jpg,sock,z,sounds/greatgatsby_english.wav,,,,,,,,,0,1,1,0,0,66,66,90,707.425817838,8.98016151041e-06,708.188918434,0.76311085897,,,,,z,1,0.750438020099,2018_Nov_14_1534,60.00610069,spanish_cond1,001,1031,
images/tie01.jpg,bench,x,sounds/greatgatsby_english.wav,,,,,,,,,0,1,1,0,0,67,67,130,709.28609429,9.30076930672e-06,710.00601057,0.719926542835,,,,,x,1,0.700415682164,2018_Nov_14_1534,60.00610069,spanish_cond1,001,1031,
images/seagull.jpg,seagull,z,sounds/greatgatsby_english.wav,,,,,,,,,0,1,1,0,0,68,68,50,711.111377236,8.98004509509e-06,712.056487044,0.945119430427,,,,,z,1,0.933735556086,2018_Nov_14_1534,60.00610069,spanish_cond1,001,1031,
images/kiwi03.jpg,backpack,x,sounds/greatgatsby_english.wav,,,,,,,,,0,1,1,0,0,69,69,125,713.183211904,9.30076930672e-06,714.023629517,0.84042723442,,,,,x,1,0.817087325267,2018_Nov_14_1534,60.00610069,spanish_cond1,001,1031,
images/fireextinguisher02.jpg,fire extinguisher,z,sounds/greatgatsby_english.wav,,,,,,,,,0,1,1,0,0,70,70,175,715.132231903,9.30076930672e-06,716.457549967,1.32532800594,,,,,z,1,1.31721801788,2018_Nov_14_1534,60.00610069,spanish_cond1,001,1031,
images/gps.jpg,gps,z,sounds/greatgatsby_english.wav,,,,,,,,,0,1,1,0,0,71,71,21,717.574002881,9.30088572204e-06,718.408029873,0.834036613815,,,,,z,1,0.817109775497,2018_Nov_14_1534,60.00610069,spanish_cond1,001,1031,
images/50dollarbill.jpg,cherry,x,sounds/greatgatsby_english.wav,,,,,,,,,0,1,1,0,0,72,72,151,719.527766294,8.98004509509e-06,720.15843518,0.630678507034,,,,,x,1,0.617034535273,2018_Nov_14_1534,60.00610069,spanish_cond1,001,1031,
images/hairdryer03a.jpg,hairdryer,z,sounds/greatgatsby_english.wav,,,,,,,,,0,1,1,0,0,73,73,119,721.256069021,9.30088572204e-06,721.958871484,0.702812084812,,,,,z,1,0.683719440014,2018_Nov_14_1534,60.00610069,spanish_cond1,001,1031,
images/fork01.jpg,cooking pot,x,sounds/greatgatsby_english.wav,,,,,,,,,0,1,1,0,0,74,74,160,723.051230802,9.30076930672e-06,723.725956356,0.674735496053,,,,,x,1,0.650382760563,2018_Nov_14_1534,60.00610069,spanish_cond1,001,1031,
images/hanger02a.jpg,hanger,z,sounds/greatgatsby_english.wav,,,,,,,,,0,1,1,0,0,75,75,88,724.817252174,8.98016151041e-06,725.593100978,0.775858104229,,,,,z,1,0.767100587022,2018_Nov_14_1534,60.00610069,spanish_cond1,001,1031,
images/eraser.jpg,eraser,z,sounds/greatgatsby_english.wav,,,,,,,,,0,1,1,0,0,76,76,110,726.698280665,9.62149351835e-06,727.493527115,0.795257034362,,,,,z,1,0.783738458529,2018_Nov_14_1534,60.00610069,spanish_cond1,001,1031,
images/lettuce.jpg,mushroom,x,sounds/greatgatsby_english.wav,,,,,,,,,0,1,1,0,0,77,77,205,728.6148915,9.30088572204e-06,729.310738879,0.695857321727,,,,,x,1,0.683836822631,2018_Nov_14_1534,60.00610069,spanish_cond1,001,1031,
images/peach01.jpg,peach,z,sounds/greatgatsby_english.wav,,,,,,,,,0,1,1,0,0,78,78,106,730.437493245,9.30076930672e-06,731.144415006,0.706931382767,,,,,z,1,0.683721043635,2018_Nov_14_1534,60.00610069,spanish_cond1,001,1031,
images/tape01a.jpg,tie,x,sounds/greatgatsby_english.wav,,,,,,,,,0,1,1,0,0,79,79,232,732.268090803,9.62149351835e-06,732.8948325,0.62675131904,,,,,x,1,0.617031969479,2018_Nov_14_1534,60.00610069,spanish_cond1,001,1031,
images/coin01b.jpg,arrow,x,sounds/greatgatsby_english.wav,,,,,,,,,0,1,1,0,0,80,80,124,733.995994557,9.30088572204e-06,734.678596296,0.682611360447,,,,,x,1,0.667059438885,2018_Nov_14_1534,60.00610069,spanish_cond1,001,1031,
images/cherry01.jpg,highlighter,x,sounds/greatgatsby_english.wav,,,,,,,,,0,1,1,0,0,81,81,187,735.785387268,9.30076930672e-06,736.529050448,0.743673121906,,,,,x,1,0.733750437386,2018_Nov_14_1534,60.00610069,spanish_cond1,001,1031,
images/microphone01.jpg,diaper,x,sounds/greatgatsby_english.wav,,,,,,,,,0,1,1,0,0,82,82,164,737.626995385,9.30076930672e-06,738.312871331,0.685885887942,,,,,x,1,0.667126789689,2018_Nov_14_1534,60.00610069,spanish_cond1,001,1031,
images/hairpin.jpg,hair pin,z,sounds/greatgatsby_english.wav,,,,,,,,,0,1,1,0,0,83,83,28,739.402299931,9.62149351835e-06,740.096573228,0.694283880643,,,,,z,1,0.683737400221,2018_Nov_14_1534,60.00610069,spanish_cond1,001,1031,
images/desktopcomputer.jpg,desktop computer,z,sounds/greatgatsby_english.wav,,,,,,,,,0,1,1,0,0,84,84,16,741.230563947,9.30076930672e-06,741.963681608,0.733127282816,,,,,z,1,0.717067023972,2018_Nov_14_1534,60.00610069,spanish_cond1,001,1031,
images/cigar.jpg,crocodile,x,sounds/greatgatsby_english.wav,,,,,,,,,0,1,1,0,0,85,85,162,743.060663109,8.98016151041e-06,743.797464855,0.736811687704,,,,,x,1,0.717075362569,2018_Nov_14_1534,60.00610069,spanish_cond1,001,1031,
images/chessknight02b (1).jpg,cockroach,x,sounds/greatgatsby_english.wav,,,,,,,,,0,1,1,0,0,86,86,155,744.904521382,8.98004509509e-06,745.614550897,0.71003881644,,,,,x,1,0.700390345417,2018_Nov_14_1534,60.00610069,spanish_cond1,001,1031,
images/doorhandle.jpg,doll,x,sounds/greatgatsby_english.wav,,,,,,,,,0,1,1,0,0,87,87,168,746.715722575,8.98004509509e-06,747.281640804,0.565927850665,,,,,x,1,0.550369514967,2018_Nov_14_1534,60.00610069,spanish_cond1,001,1031,
images/birthdaycandle.jpg,birthday candle,z,sounds/greatgatsby_english.wav,,,,,,,,,0,1,1,0,0,88,88,55,748.376270483,8.98004509509e-06,749.065412938,0.689152076957,,,,,z,1,0.667072909069,2018_Nov_14_1534,60.00610069,spanish_cond1,001,1031,
images/pingpongpaddle01c (1).jpg,ping pong paddle,z,sounds/greatgatsby_english.wav,,,,,,,,,0,1,1,0,0,89,89,10,750.174783764,9.30088572204e-06,750.832486264,0.657712763292,,,,,z,1,0.633707365021,2018_Nov_14_1534,60.00610069,spanish_cond1,001,1031,
images/cupcake.jpg,scissors,x,sounds/greatgatsby_english.wav,,,,,,,,,0,1,1,0,0,90,90,219,751.949901973,8.98016151041e-06,753.583152956,1.63326028455,,,,,x,1,1.61729912739,2018_Nov_14_1534,60.00610069,spanish_cond1,001,1031,
images/diploma01.jpg,glasses,x,sounds/greatgatsby_english.wav,,,,,,,,,0,1,1,0,0,91,91,179,754.712593012,8.98004509509e-06,755.950375031,1.23779196129,,,,,x,1,1.217183284,2018_Nov_14_1534,60.00610069,spanish_cond1,001,1031,
images/safe.jpg,safe,z,sounds/greatgatsby_english.wav,,,,,,,,,0,1,1,0,0,92,92,78,757.059760289,9.30076930672e-06,757.66745777,0.607707102667,,,,,z,1,0.58370683575,2018_Nov_14_1534,60.00610069,spanish_cond1,001,1031,
images/key03b.jpg,cigar,x,sounds/greatgatsby_english.wav,,,,,,,,,0,1,1,0,0,93,93,153,758.766783076,9.62149351835e-06,759.451216434,0.684443620499,,,,,x,1,0.667045648093,2018_Nov_14_1534,60.00610069,spanish_cond1,001,1031,
images/bench02.jpg,electric toothbrush,x,sounds/greatgatsby_english.wav,,,,,,,,,0,1,1,0,0,94,94,172,760.557841916,9.30088572204e-06,761.268325247,0.710492952727,,,,,z,0,0.700391307706,2018_Nov_14_1534,60.00610069,spanish_cond1,001,1031,
images/clothespin02a.jpg,clothes pin,z,sounds/greatgatsby_english.wav,,,,,,,,,0,1,1,0,0,95,95,79,762.371908722,9.30076930672e-06,763.035418458,0.663519357098,,,,,z,1,0.65038179839,2018_Nov_14_1534,60.00610069,spanish_cond1,001,1031,
images/remotecontrol01c.jpg,remote control,z,sounds/greatgatsby_english.wav,,,,,,,,,0,1,1,0,0,96,96,85,764.143497754,9.30076930672e-06,764.752517874,0.609029742307,,,,,z,1,0.600395380869,2018_Nov_14_1534,60.00610069,spanish_cond1,001,1031,
images/toothbrush03a.jpg,parrot,x,sounds/greatgatsby_english.wav,,,,,,,,,0,1,1,0,0,97,97,210,765.84341023,9.30076930672e-06,766.636282087,0.792881478439,,,,,x,1,0.783752890886,2018_Nov_14_1534,60.00610069,spanish_cond1,001,1031,
images/puma.jpg,puma,z,sounds/greatgatsby_english.wav,,,,,,,,,0,1,1,0,0,98,98,4,767.733524973,8.65932088345e-06,768.453386089,0.719870417262,,,,,z,1,0.700398042798,2018_Nov_14_1534,60.00610069,spanish_cond1,001,1031,
images/axe01.jpg,axe,z,sounds/greatgatsby_english.wav,,,,,,,,,0,1,1,0,0,99,99,104,769.555968284,9.30076930672e-06,770.553895806,0.997937785229,,,,,z,1,0.983803756768,2018_Nov_14_1534,60.00610069,spanish_cond1,001,1031,
images/cocktailshrimp01.jpg,cocktail shrimp,z,sounds/greatgatsby_english.wav,,,,,,,,,0,1,1,0,0,100,100,30,771.666793243,9.62160993367e-06,773.237874065,1.57109044341,,,,,z,1,1.55060492165,2018_Nov_14_1534,60.00610069,spanish_cond1,001,1031,
images/triangleruler02.jpg,bottle of red wine,x,sounds/greatgatsby_english.wav,,,,,,,,,0,1,1,0,0,101,101,134,774.348206402,8.98016151041e-06,774.92162269,0.573426230345,,,,,x,1,0.550374004873,2018_Nov_14_1534,60.00610069,spanish_cond1,001,1031,
images/raisin.jpg,ruler,x,sounds/greatgatsby_english.wav,,,,,,,,,0,1,1,0,0,102,102,218,776.025000265,9.30088572204e-06,776.60533315,0.580342827947,,,,,x,1,0.567001613555,2018_Nov_14_1534,60.00610069,spanish_cond1,001,1031,
images/cauliflower01.jpg,glue stick,x,sounds/greatgatsby_english.wav,,,,,,,,,0,1,1,0,0,103,103,181,777.719514421,9.30088572204e-06,778.705851206,0.986346085905,,,,,x,1,0.967127719778,2018_Nov_14_1534,60.00610069,spanish_cond1,001,1031,
images/thumbtack02a.jpg,thumb tack,z,sounds/greatgatsby_english.wav,,,,,,,,,0,1,1,0,0,104,104,60,779.81442152,9.30076930672e-06,780.589658073,0.775245854165,,,,,z,1,0.767098983401,2018_Nov_14_1534,60.00610069,spanish_cond1,001,1031,
images/atm.jpg,atm,z,sounds/greatgatsby_english.wav,,,,,,,,,0,1,1,0,0,105,105,96,781.727128258,9.62160993367e-06,782.456828352,0.729710356682,,,,,z,1,0.717139826855,2018_Nov_14_1534,60.00610069,spanish_cond1,001,1031,
images/mirror02.jpg,8 ball,x,sounds/greatgatsby_english.wav,,,,,,,,,0,1,1,0,0,106,106,121,783.556426589,8.65932088345e-06,784.27384993,0.717432642006,,,,,x,1,0.700392269762,2018_Nov_14_1534,60.00610069,spanish_cond1,001,1031,
images/lychee02a.jpg,lychee,z,sounds/greatgatsby_english.wav,,,,,,,,,0,1,1,0,0,107,107,62,785.395475058,8.98004509509e-06,786.274342232,0.878876795294,,,,,z,1,0.867092023836,2018_Nov_14_1534,60.00610069,spanish_cond1,001,1031,
images/glasses01b.jpg,calculator,x,sounds/greatgatsby_english.wav,,,,,,,,,0,1,1,0,0,108,108,142,787.365457165,9.62149351835e-06,788.274826516,0.909379613353,,,,,x,1,0.90045371931,2018_Nov_14_1534,60.00610069,spanish_cond1,001,1031,
images/grandpiano.jpg,tulip,x,sounds/greatgatsby_english.wav,,,,,,,,,0,1,1,0,0,109,109,236,789.387496244,9.30076930672e-06,790.058586783,0.671100161038,,,,,x,1,0.650384684908,2018_Nov_14_1534,60.00610069,spanish_cond1,001,1031,
images/magnifyingglass01b.jpg,magnifying glass,z,sounds/greatgatsby_english.wav,,,,,,,,,0,1,1,0,0,110,110,64,791.163151013,8.98016151041e-06,792.142420463,0.979279392282,,,,,x,0,0.967134134029,2018_Nov_14_1534,60.00610069,spanish_cond1,001,1031,
images/cheetah.jpg,cheetah,z,sounds/greatgatsby_english.wav,,,,,,,,,0,1,1,0,0,111,111,82,793.243431461,9.62149351835e-06,793.909526181,0.666104341624,,,,,z,1,0.65039494785,2018_Nov_14_1534,60.00610069,spanish_cond1,001,1031,
images/gorilla.jpg,gorilla,z,sounds/greatgatsby_english.wav,,,,,,,,,0,1,1,0,0,112,112,80,795.018542614,9.94233414531e-06,795.626586149,0.608053798554,,,,,z,1,0.583698817878,2018_Nov_14_1534,60.00610069,spanish_cond1,001,1031,
images/lollipop03b.jpg,lollipop,z,sounds/greatgatsby_english.wav,,,,,,,,,0,1,1,0,0,113,113,42,796.718133731,9.62149351835e-06,797.393682888,0.675558778341,,,,,z,1,0.667049496667,2018_Nov_14_1534,60.00610069,spanish_cond1,001,1031,
images/ceilingfan02.jpg,paper clip,x,sounds/greatgatsby_english.wav,,,,,,,,,0,1,1,0,0,114,114,208,798.490133601,9.94221772999e-06,799.293987473,0.803863493493,,,,,x,1,0.783597342786,2018_Nov_14_1534,60.00610069,spanish_cond1,001,1031,
images/giraffe.jpg,lettuce,x,sounds/greatgatsby_english.wav,,,,,,,,,0,1,1,0,0,115,115,195,800.39324575,9.30088572204e-06,801.227941759,0.834708196693,,,,,x,1,0.817083156086,2018_Nov_14_1534,60.00610069,spanish_cond1,001,1031,
images/feather03b.jpg,feather,z,sounds/greatgatsby_english.wav,,,,,,,,,0,1,1,0,0,116,116,114,802.327305551,9.30076930672e-06,803.111725535,0.784429925843,,,,,z,1,0.767080061021,2018_Nov_14_1534,60.00610069,spanish_cond1,001,1031,
images/grasshopper.jpg,cauliflower,x,sounds/greatgatsby_english.wav,,,,,,,,,0,1,1,0,0,117,117,148,804.203943096,8.98016151041e-06,804.928828896,0.724895101273,,,,,x,1,0.717066703131,2018_Nov_14_1534,60.00610069,spanish_cond1,001,1031,
images/mailbox01.jpg,mail box,z,sounds/greatgatsby_english.wav,,,,,,,,,0,1,1,0,0,118,118,73,806.046310672,9.94221772999e-06,806.829303462,0.783003052813,,,,,z,1,0.767103794264,2018_Nov_14_1534,60.00610069,spanish_cond1,001,1031,
images/nailclipper03a.jpg,aquarium,x,sounds/greatgatsby_english.wav,,,,,,,,,0,1,1,0,0,119,119,123,807.92736482,8.98016151041e-06,808.646398805,0.719043286401,,,,,x,1,0.700410550693,2018_Nov_14_1534,60.00610069,spanish_cond1,001,1031,
images/boxingglove02a.jpg,bracelet,x,sounds/greatgatsby_english.wav,,,,,,,,,0,1,1,0,0,120,120,135,809.756172452,8.98004509509e-06,810.38014347,0.623981280252,,,,,z,0,0.60037774127,2018_Nov_14_1534,60.00610069,spanish_cond1,001,1031,
images/arrow02.jpg,hammer,x,sounds/greatgatsby_english.wav,,,,,,,,,0,1,1,0,0,121,121,184,811.477129141,9.30088572204e-06,812.063877663,0.586758785415,,,,,x,1,0.56703079876,2018_Nov_14_1534,60.00610069,spanish_cond1,001,1031,
images/cookingpot.jpg,grasshopper,x,sounds/greatgatsby_english.wav,,,,,,,,,0,1,1,0,0,122,122,183,813.176268366,8.98004509509e-06,813.880986476,0.704727410804,,,,,x,1,0.68373355153,2018_Nov_14_1534,60.00610069,spanish_cond1,001,1031,
images/broadsword.jpg,teapot,x,sounds/greatgatsby_english.wav,,,,,,,,,0,1,1,0,0,123,123,231,814.972189607,8.98004509509e-06,815.498041217,0.525861231261,,,,,x,1,0.517028024653,2018_Nov_14_1534,60.00610069,spanish_cond1,001,1031,
images/8ball.jpg,nail clipper,x,sounds/greatgatsby_english.wav,,,,,,,,,0,1,1,0,0,124,124,206,816.613833452,8.98016151041e-06,817.265128013,0.651304823929,,,,,x,1,0.633690366987,2018_Nov_14_1534,60.00610069,spanish_cond1,001,1031,
images/tent.jpg,tent,z,sounds/greatgatsby_english.wav,,,,,,,,,0,1,1,0,0,125,125,11,818.389969939,9.30076930672e-06,819.148908582,0.75894890551,,,,,z,1,0.750378046068,2018_Nov_14_1534,60.00610069,spanish_cond1,001,1031,
images/hand01a.jpg,cupcake,x,sounds/greatgatsby_english.wav,,,,,,,,,0,1,1,0,0,126,126,163,820.261139888,9.30088572204e-06,821.216069752,0.954939806135,,,,,x,1,0.933729141718,2018_Nov_14_1534,60.00610069,spanish_cond1,001,1031,
images/radish01.jpg,raisin,x,sounds/greatgatsby_english.wav,,,,,,,,,0,1,1,0,0,127,127,214,822.325164761,9.62149351835e-06,823.016511188,0.691357010975,,,,,x,1,0.66706136323,2018_Nov_14_1534,60.00610069,spanish_cond1,001,1031,
images/parkfountain.jpg,park fountain,z,sounds/greatgatsby_english.wav,,,,,,,,,0,1,1,0,0,128,128,93,824.134973719,8.98004509509e-06,825.083687112,0.948723014328,,,,,z,1,0.933806434739,2018_Nov_14_1534,60.00610069,spanish_cond1,001,1031,
images/icecube02 (2).jpg,aloe,x,sounds/greatgatsby_english.wav,,,,,,,,,0,1,1,0,0,129,129,122,826.19248706,9.62160993367e-06,826.867431022,0.67495358421,,,,,x,1,0.66704693099,2018_Nov_14_1534,60.00610069,spanish_cond1,001,1031,
images/backpack01b.jpg,swallow,x,sounds/greatgatsby_english.wav,,,,,,,,,0,1,1,0,0,130,130,228,827.997881339,8.98004509509e-06,828.667721721,0.669850003556,,,,,x,1,0.650238116854,2018_Nov_14_1534,60.00610069,spanish_cond1,001,1031,
images/pineapple01a.jpg,pineapple,z,sounds/greatgatsby_english.wav,,,,,,,,,0,1,1,0,0,131,131,51,829.779225319,9.30088572204e-06,830.434965989,0.655750612495,,,,,z,1,0.633717307239,2018_Nov_14_1534,60.00610069,spanish_cond1,001,1031,
images/elbow.jpg,elbow,z,sounds/greatgatsby_english.wav,,,,,,,,,0,1,1,0,0,132,132,105,831.544950669,9.30076930672e-06,832.302085274,0.757145189214,,,,,z,1,0.733746588812,2018_Nov_14_1534,60.00610069,spanish_cond1,001,1031,
images/corkscrew02a.jpg,masquerade mask,x,sounds/greatgatsby_english.wav,,,,,,,,,0,1,1,0,0,133,133,201,833.404764325,9.30076930672e-06,834.252545616,0.847790912609,,,,,x,1,0.833757589338,2018_Nov_14_1534,60.00610069,spanish_cond1,001,1031,
images/ladybug03.jpg,giraffe,x,sounds/greatgatsby_english.wav,,,,,,,,,0,1,1,0,0,134,134,178,835.354610814,9.30076930672e-06,836.036325768,0.681724896654,,,,,x,1,0.667072588345,2018_Nov_14_1534,60.00610069,spanish_cond1,001,1031,
images/envelope02a.jpg,grand piano,x,sounds/greatgatsby_english.wav,,,,,,,,,0,1,1,0,0,135,135,182,837.157580467,9.30088572204e-06,837.870083999,0.712513474165,,,,,x,1,0.700404457166,2018_Nov_14_1534,60.00610069,spanish_cond1,001,1031,
images/tissuebox03.jpg,tissue box,z,sounds/greatgatsby_english.wav,,,,,,,,,0,1,1,0,0,136,136,58,838.993960886,9.30076930672e-06,839.80389749,0.809946225258,,,,,z,1,0.800410646945,2018_Nov_14_1534,60.00610069,spanish_cond1,001,1031,
images/plant01.jpg,plant,z,sounds/greatgatsby_english.wav,,,,,,,,,0,1,1,0,0,137,137,47,840.913827647,9.30088572204e-06,841.554300872,0.64048284688,,,,,z,1,0.617044798215,2018_Nov_14_1534,60.00610069,spanish_cond1,001,1031,
images/treadmill.jpg,lily,x,sounds/greatgatsby_english.wav,,,,,,,,,0,1,1,0,0,138,138,199,842.658737136,8.98004509509e-06,843.488119494,0.829392621643,,,,,x,1,0.817110096221,2018_Nov_14_1534,60.00610069,spanish_cond1,001,1031,
images/drink.jpg,drink,z,sounds/greatgatsby_english.wav,,,,,,,,,0,1,1,0,0,139,139,117,844.586762313,9.62160993367e-06,845.355215046,0.768462354317,,,,,z,1,0.750409155618,2018_Nov_14_1534,60.00610069,spanish_cond1,001,1031,
images/snowman.jpg,globe,x,sounds/greatgatsby_english.wav,,,,,,,,,0,1,1,0,0,140,140,180,846.4647504,8.98004509509e-06,847.055622069,0.590881931945,,,,,x,1,0.567022781004,2018_Nov_14_1534,60.00610069,spanish_cond1,001,1031,
images/flower01.jpg,bus,x,sounds/greatgatsby_english.wav,,,,,,,,,0,1,1,0,0,141,141,140,848.168234388,8.98016151041e-06,848.85606158,0.68783681374,,,,,x,1,0.667049817392,2018_Nov_14_1534,60.00610069,spanish_cond1,001,1031,
images/watermelon01.jpg,orange,x,sounds/greatgatsby_english.wav,,,,,,,,,0,1,1,0,0,142,142,207,849.983673866,8.98004509509e-06,850.689852524,0.706189241959,,,,,x,1,0.683739324566,2018_Nov_14_1534,60.00610069,spanish_cond1,001,1031,
images/fryingpan01.jpg,frying pan,z,sounds/greatgatsby_english.wav,,,,,,,,,0,1,1,0,0,143,143,45,851.789431839,9.30088572204e-06,852.55695866,0.767537083826,,,,,z,1,0.750415890594,2018_Nov_14_1534,60.00610069,spanish_cond1,001,1031,
images/licenseplate.jpg,license plate,z,sounds/greatgatsby_english.wav,,,,,,,,,0,1,1,0,0,144,144,40,853.672409972,8.98016151041e-06,854.357380853,0.684980502003,,,,,z,1,0.667048855219,2018_Nov_14_1534,60.00610069,spanish_cond1,001,1031,
images/battery03b.jpg,battery,z,sounds/greatgatsby_english.wav,,,,,,,,,0,1,1,0,0,145,145,34,855.464921984,8.98004509509e-06,856.191149667,0.726237304742,,,,,z,1,0.717041045777,2018_Nov_14_1534,60.00610069,spanish_cond1,001,1031,
images/hammer02a.jpg,flower,x,sounds/greatgatsby_english.wav,,,,,,,,,0,1,1,0,0,146,146,176,857.284598784,8.98016151041e-06,857.908243952,0.623654789757,,,,,x,1,0.600375175476,2018_Nov_14_1534,60.00610069,spanish_cond1,001,1031,
images/bat.jpg,hand,x,sounds/greatgatsby_english.wav,,,,,,,,,0,1,1,0,0,147,147,185,859.004657142,9.62149351835e-06,859.691996522,0.68734900211,,,,,x,1,0.667042440851,2018_Nov_14_1534,60.00610069,spanish_cond1,001,1031,
images/bed.jpg,bed,z,sounds/greatgatsby_english.wav,,,,,,,,,0,1,1,0,0,148,148,103,860.809241288,8.65932088345e-06,861.642478352,0.833246365306,,,,,z,1,0.817100795568,2018_Nov_14_1534,60.00610069,spanish_cond1,001,1031,
images/stapler03a.jpg,candy cane,x,sounds/greatgatsby_english.wav,,,,,,,,,0,1,1,0,0,149,149,145,862.752103507,8.98016151041e-06,863.476259995,0.724166110042,,,,,x,1,0.700411512866,2018_Nov_14_1534,60.00610069,spanish_cond1,001,1031,
images/orange.jpg,bat,x,sounds/greatgatsby_english.wav,,,,,,,,,0,1,1,0,0,150,150,128,864.599034896,8.98016151041e-06,865.310015019,0.710989423678,,,,,x,1,0.700393873383,2018_Nov_14_1534,60.00610069,spanish_cond1,001,1031,
images/cloud.jpg,ceiling fan,x,sounds/greatgatsby_english.wav,,,,,,,,,0,1,1,0,0,151,151,149,866.413847692,9.30088572204e-06,867.110447796,0.696610046085,,,,,x,1,0.683724250761,2018_Nov_14_1534,60.00610069,spanish_cond1,001,1031,
images/floorlamp.jpg,floor lamp,z,sounds/greatgatsby_english.wav,,,,,,,,,0,1,1,0,0,152,152,26,868.201719881,9.30088572204e-06,868.927562703,0.725852443604,,,,,z,1,0.717070551822,2018_Nov_14_1534,60.00610069,spanish_cond1,001,1031,
images/eyedrops.jpg,bicycle,x,sounds/greatgatsby_english.wav,,,,,,,,,0,1,1,0,0,153,153,131,870.026261327,8.65932088345e-06,870.944551439,0.91829973436,,,,,x,1,0.900291756843,2018_Nov_14_1534,60.00610069,spanish_cond1,001,1031,
images/banana04a.jpg,banana,z,sounds/greatgatsby_english.wav,,,,,,,,,0,1,1,0,0,154,154,118,872.050554729,9.30076930672e-06,873.111898081,1.06135297322,,,,,z,1,1.05048385065,2018_Nov_14_1534,60.00610069,spanish_cond1,001,1031,
images/scooter.jpg,pen,x,sounds/greatgatsby_english.wav,,,,,,,,,0,1,1,0,0,155,155,212,874.203287228,9.30076930672e-06,874.99568314,0.792405533371,,,,,x,1,0.783750004368,2018_Nov_14_1534,60.00610069,spanish_cond1,001,1031,
images/lipstick04.jpg,lipstick,z,sounds/greatgatsby_english.wav,,,,,,,,,0,1,1,0,0,156,156,56,876.093493055,9.30076930672e-06,877.096190611,1.00270781945,,,,,z,1,0.983808888122,2018_Nov_14_1534,60.00610069,spanish_cond1,001,1031,
images/ant.jpg,ant,z,sounds/greatgatsby_english.wav,,,,,,,,,0,1,1,0,0,157,157,98,878.189529722,9.62149351835e-06,879.296711649,1.10719186964,,,,,z,1,1.08382085094,2018_Nov_14_1534,60.00610069,spanish_cond1,001,1031,
images/flashlight05.jpg,flash light,z,sounds/greatgatsby_english.wav,,,,,,,,,0,1,1,0,0,158,158,8,880.39755395,9.30076930672e-06,880.963782634,0.566238305415,,,,,z,1,0.550361496978,2018_Nov_14_1534,60.00610069,spanish_cond1,001,1031,
images/mushroom01.jpg,shower head,x,sounds/greatgatsby_english.wav,,,,,,,,,0,1,1,0,0,159,159,222,882.078362557,9.30088572204e-06,882.730890918,0.652538304101,,,,,x,1,0.633737833239,2018_Nov_14_1534,60.00610069,spanish_cond1,001,1031,
images/notebook02b.jpg,notebook,z,sounds/greatgatsby_english.wav,,,,,,,,,0,1,1,0,0,160,160,7,883.836169386,8.98004509509e-06,884.531313432,0.695153346285,,,,,z,1,0.683735475992,2018_Nov_14_1534,60.00610069,spanish_cond1,001,1031,
images/gluestick.jpg,squirrel,x,sounds/greatgatsby_english.wav,,,,,,,,,0,1,1,0,0,161,161,226,885.637359057,8.65943729877e-06,886.131696305,0.494346869644,,,,,x,1,0.483685893007,2018_Nov_14_1534,60.00610069,spanish_cond1,001,1031,
images/bowlingball.jpg,bowling ball,z,sounds/greatgatsby_english.wav,,,,,,,,,0,1,1,0,0,162,162,20,887.262143093,9.30076930672e-06,887.982147891,0.720014419523,,,,,z,1,0.700408626464,2018_Nov_14_1534,60.00610069,spanish_cond1,001,1031,
images/volleyball.jpg,volley ball,z,sounds/greatgatsby_english.wav,,,,,,,,,0,1,1,0,0,163,163,2,889.113019631,8.98004509509e-06,889.765898858,0.652888848563,,,,,z,1,0.633711534319,2018_Nov_14_1534,60.00610069,spanish_cond1,001,1031,
images/redfox.jpg,red fox,z,sounds/greatgatsby_english.wav,,,,,,,,,0,1,1,0,0,164,164,1,890.878233115,8.98016151041e-06,891.516322766,0.638099593809,,,,,z,1,0.617039345903,2018_Nov_14_1534,60.00610069,spanish_cond1,001,1031,
images/beachumbrella01.jpg,beach umbrella,z,sounds/greatgatsby_english.wav,,,,,,,,,0,1,1,0,0,165,165,92,892.620463328,9.62149351835e-06,893.233413523,0.612960458384,,,,,z,1,0.600385438534,2018_Nov_14_1534,60.00610069,spanish_cond1,001,1031,
images/cactus.jpg,cactus,z,sounds/greatgatsby_english.wav,,,,,,,,,0,1,1,0,0,166,166,70,894.344033224,9.30088572204e-06,894.917134246,0.573110964848,,,,,z,1,0.550357969012,2018_Nov_14_1534,60.00610069,spanish_cond1,001,1031,
images/parkbench03.jpg,park bench,z,sounds/greatgatsby_english.wav,,,,,,,,,0,1,1,0,0,167,167,71,896.021087829,8.65932088345e-06,896.684251511,0.66317266121,,,,,z,1,0.65039975848,2018_Nov_14_1534,60.00610069,spanish_cond1,001,1031,
images/calculator02b.jpg,dice,x,sounds/greatgatsby_english.wav,,,,,,,,,0,1,1,0,0,168,168,165,897.78410536,9.94221772999e-06,898.417985271,0.633889853372,,,,,x,1,0.617050250294,2018_Nov_14_1534,60.00610069,spanish_cond1,001,1031,
images/tulip02.jpg,sport shorts,x,sounds/greatgatsby_english.wav,,,,,,,,,0,1,1,0,0,169,169,225,899.51136864,8.98004509509e-06,900.218579047,0.707220028737,,,,,x,1,0.683890061802,2018_Nov_14_1534,60.00610069,spanish_cond1,001,1031,
images/apple06.jpg,apple,z,sounds/greatgatsby_english.wav,,,,,,,,,0,1,1,0,0,170,170,13,901.34426414,9.30076930672e-06,901.85216037,0.5079064928,,,,,z,1,0.483692948706,2018_Nov_14_1534,60.00610069,spanish_cond1,001,1031,
images/aquarium.jpg,computer mouse,x,sounds/greatgatsby_english.wav,,,,,,,,,0,1,1,0,0,171,171,159,902.98792113,9.30076930672e-06,903.619237866,0.631326036062,,,,,x,1,0.617050891859,2018_Nov_14_1534,60.00610069,spanish_cond1,001,1031,
images/knife04.jpg,tooth brush,x,sounds/greatgatsby_english.wav,,,,,,,,,0,1,1,0,0,172,172,233,904.714203336,9.30088572204e-06,905.352988624,0.638795230421,,,,,x,1,0.617048646789,2018_Nov_14_1534,60.00610069,spanish_cond1,001,1031,
images/lip.jpg,boxing glove,x,sounds/greatgatsby_english.wav,,,,,,,,,0,1,1,0,0,173,173,136,906.453920084,9.30076930672e-06,907.120072213,0.666161750094,,,,,x,1,0.650384043343,2018_Nov_14_1534,60.00610069,spanish_cond1,001,1031,
images/leek.jpg,donut,x,sounds/greatgatsby_english.wav,,,,,,,,,0,1,1,0,0,174,174,169,908.21965281,9.62149351835e-06,909.03720678,0.817563911784,,,,,x,1,0.800420910004,2018_Nov_14_1534,60.00610069,spanish_cond1,001,1031,
images/panda.jpg,panda,z,sounds/greatgatsby_english.wav,,,,,,,,,0,1,1,0,0,175,175,83,910.14535984,9.62160993367e-06,910.754286632,0.608937054989,,,,,z,1,0.600377420662,2018_Nov_14_1534,60.00610069,spanish_cond1,001,1031,
images/belt02a.jpg,snowman,x,sounds/greatgatsby_english.wav,,,,,,,,,0,1,1,0,0,176,176,224,911.855874602,9.62160993367e-06,912.438123776,0.582259757677,,,,,x,1,0.567073454265,2018_Nov_14_1534,60.00610069,spanish_cond1,001,1031,
images/electrictoothbrush01a.jpg,banjo,x,sounds/greatgatsby_english.wav,,,,,,,,,0,1,1,0,0,177,177,127,913.531283605,9.30076930672e-06,914.455167035,0.923893050873,,,,,x,1,0.900443456369,2018_Nov_14_1534,60.00610069,spanish_cond1,001,1031,
images/showerhead01.jpg,skateboard,x,sounds/greatgatsby_english.wav,,,,,,,,,0,1,1,0,0,178,178,223,915.561424654,9.30076930672e-06,916.188942167,0.627527135075,,,,,x,1,0.617065324099,2018_Nov_14_1534,60.00610069,spanish_cond1,001,1031,
images/antelope.jpg,antelope,z,sounds/greatgatsby_english.wav,,,,,,,,,0,1,1,0,0,179,179,12,917.292674455,8.98016151041e-06,918.072746148,0.78008131485,,,,,z,1,0.767122395802,2018_Nov_14_1534,60.00610069,spanish_cond1,001,1031,
images/comb02a.jpg,diploma,x,sounds/greatgatsby_english.wav,,,,,,,,,0,1,1,0,0,180,180,166,919.175817758,9.62149351835e-06,919.789809324,0.614001187263,,,,,x,1,0.600391211454,2018_Nov_14_1534,60.00610069,spanish_cond1,001,1031,
images/bottleofredwine02.jpg,pipe,x,sounds/greatgatsby_english.wav,,,,,,,,,0,1,1,0,0,181,181,213,920.886523026,9.30088572204e-06,921.673583157,0.787070074002,,,,,x,1,0.767061780207,2018_Nov_14_1534,60.00610069,spanish_cond1,001,1031,
images/bicycle.jpg,hand bag,x,sounds/greatgatsby_english.wav,,,,,,,,,0,1,1,0,0,182,182,186,922.781970021,9.30076930672e-06,923.424005142,0.64204474201,,,,,x,1,0.6337262874,2018_Nov_14_1534,60.00610069,spanish_cond1,001,1031,
images/beermug01b.jpg,beer mug,z,sounds/greatgatsby_english.wav,,,,,,,,,0,1,1,0,0,183,183,111,924.539819506,8.98004509509e-06,925.257773956,0.717964392039,,,,,z,1,0.700389383361,2018_Nov_14_1534,60.00610069,spanish_cond1,001,1031,
images/scissors04a.jpg,leek,x,sounds/greatgatsby_english.wav,,,,,,,,,0,1,1,0,0,184,184,194,926.350234621,8.98004509509e-06,927.041528771,0.691304092645,,,,,x,1,0.667051741621,2018_Nov_14_1534,60.00610069,spanish_cond1,001,1031,
images/ashtray02b.jpg,ashtray,z,sounds/greatgatsby_english.wav,,,,,,,,,0,1,1,0,0,185,185,43,928.154451225,9.30076930672e-06,928.925327942,0.770887300721,,,,,x,0,0.750407551997,2018_Nov_14_1534,60.00610069,spanish_cond1,001,1031,
images/apricot.jpg,apricot,z,sounds/greatgatsby_english.wav,,,,,,,,,0,1,1,0,0,186,186,32,930.04054064,9.30088572204e-06,930.942473509,0.901942490833,,,,,z,1,0.883781851735,2018_Nov_14_1534,60.00610069,spanish_cond1,001,1031,
images/djmixer01.jpg,light bulb,x,sounds/greatgatsby_english.wav,,,,,,,,,0,1,1,0,0,187,187,196,932.062753227,9.62149351835e-06,932.70956223,0.646818304085,,,,,x,1,0.633708968642,2018_Nov_14_1534,60.00610069,spanish_cond1,001,1031,
images/cat.jpg,black olive,x,sounds/greatgatsby_english.wav,,,,,,,,,0,1,1,0,0,188,188,133,933.838550074,9.30076930672e-06,934.459978121,0.621437668335,,,,,x,1,0.60037196835,2018_Nov_14_1534,60.00610069,spanish_cond1,001,1031,
images/bullet (2).jpg,rubber glove,x,sounds/greatgatsby_english.wav,,,,,,,,,0,1,1,0,0,189,189,217,935.563682827,9.30076930672e-06,936.377128724,0.813455518219,,,,,x,1,0.8004087226,2018_Nov_14_1534,60.00610069,spanish_cond1,001,1031,
images/doll.jpg,carrot,x,sounds/greatgatsby_english.wav,,,,,,,,,0,1,1,0,0,190,190,146,937.487130401,9.30088572204e-06,938.560972121,1.07385166234,,,,,x,1,1.0504761535,2018_Nov_14_1534,60.00610069,spanish_cond1,001,1031,
images/screwdriver02b.jpg,cola,x,sounds/greatgatsby_english.wav,,,,,,,,,0,1,1,0,0,191,191,158,939.653078393,8.65943729877e-06,940.328071425,0.675003295415,,,,,x,1,0.667064570356,2018_Nov_14_1534,60.00610069,spanish_cond1,001,1031,
images/ladder.jpg,ladder,z,sounds/greatgatsby_english.wav,,,,,,,,,0,1,1,0,0,192,192,113,941.419051657,8.98016151041e-06,942.111824957,0.692782921949,,,,,z,1,0.683728099335,2018_Nov_14_1534,60.00610069,spanish_cond1,001,1031,
images/croissant02b.jpg,croissant,z,sounds/greatgatsby_english.wav,,,,,,,,,0,1,1,0,0,193,193,39,943.221399439,9.62149351835e-06,944.062298449,0.840908952407,,,,,z,1,0.817097588326,2018_Nov_14_1534,60.00610069,spanish_cond1,001,1031,
images/mitten01.jpg,mitten,z,sounds/greatgatsby_english.wav,,,,,,,,,0,1,1,0,0,194,194,102,945.181261299,8.98004509509e-06,946.179500238,0.998248881311,,,,,z,1,0.983825565549,2018_Nov_14_1534,60.00610069,spanish_cond1,001,1031,
images/table02.jpg,table,z,sounds/greatgatsby_english.wav,,,,,,,,,0,1,1,0,0,195,195,49,947.292759445,9.30076930672e-06,948.013243075,0.720493250876,,,,,z,1,0.700397080625,2018_Nov_14_1534,60.00610069,spanish_cond1,001,1031,
images/nailpolish02b.jpg,nail polish,z,sounds/greatgatsby_english.wav,,,,,,,,,0,1,1,0,0,196,196,94,949.120229364,9.30088572204e-06,950.030414621,0.910194877768,,,,,z,1,0.90045949223,2018_Nov_14_1534,60.00610069,spanish_cond1,001,1031,
images/handbag02a.jpg,candle,x,sounds/greatgatsby_english.wav,,,,,,,,,0,1,1,0,0,197,197,144,951.145298263,8.98004509509e-06,951.914183644,0.768894681707,,,,,x,1,0.750406910549,2018_Nov_14_1534,60.00610069,spanish_cond1,001,1031,
images/masquerademask02b.jpg,mirror,x,sounds/greatgatsby_english.wav,,,,,,,,,0,1,1,0,0,198,198,204,953.017198486,9.62149351835e-06,954.114950031,1.09776148677,,,,,x,1,1.08405818196,2018_Nov_14_1534,60.00610069,spanish_cond1,001,1031,
images/highlighter03b.jpg,coin,x,sounds/greatgatsby_english.wav,,,,,,,,,0,1,1,0,0,199,199,156,955.215307086,8.65932088345e-06,955.81512742,0.599829634768,,,,,x,1,0.583702345728,2018_Nov_14_1534,60.00610069,spanish_cond1,001,1031,
images/parrot01.jpg,chameleon,x,sounds/greatgatsby_english.wav,,,,,,,,,0,1,1,0,0,200,200,150,956.927229156,9.30088572204e-06,958.048993796,1.12177394086,,,,,x,1,1.10049592576,2018_Nov_14_1534,60.00610069,spanish_cond1,001,1031,
images/camera01a.jpg,bull,x,sounds/greatgatsby_english.wav,,,,,,,,,0,1,1,0,0,201,201,138,959.158213243,8.98004509509e-06,959.682726177,0.524523196975,,,,,x,1,0.500345894019,2018_Nov_14_1534,60.00610069,spanish_cond1,001,1031,
