images,name,corrAns,sounds,trials_3.thisRepN,trials_3.thisTrialN,trials_3.thisN,trials_3.thisIndex,trials_4.thisRepN,trials_4.thisTrialN,trials_4.thisN,trials_4.thisIndex,trials_2.thisRepN,trials_2.thisTrialN,trials_2.thisN,trials_2.thisIndex,trials.thisRepN,trials.thisTrialN,trials.thisN,trials.thisIndex,begin_global,begin_routine,end_global,end_routine,key_resp_2.keys,key_resp_2.corr,begin_book,key_resp_1.keys,key_resp_1.corr,key_resp_1.rt,date,frameRate,expName,session,participant,
images/volleyball.jpg,volley ball,z,,0,0,0,0,,,,,,,,,,,,,,,,,,,,,,,2018_Nov_14_1534,59.984917177,chinese_cond1,001,1033,
images/puma.jpg,puma,z,,,,,,0,0,0,0,,,,,,,,,48.1438615419,1.21872872114e-05,51.006754334,2.86290530011,None,0,,,,,2018_Nov_14_1534,59.984917177,chinese_cond1,001,1033,
images/eyedrops.jpg,bicycle,x,sounds/greatgatsby_english.wav,,,,,,,,,0,0,0,0,0,0,0,131,93.1627739979,9.62160993367e-06,95.8345890535,2.67182563944,,,83.0031972438,x,1,2.65091638931,2018_Nov_14_1534,59.984917177,chinese_cond1,001,1033,
images/ladybug03.jpg,giraffe,x,sounds/greatgatsby_english.wav,,,,,,,,,0,0,0,0,0,1,1,178,96.942618629,9.30076930672e-06,98.2184876321,1.27587990754,,,,x,1,1.26723237161,2018_Nov_14_1534,59.984917177,chinese_cond1,001,1033,
images/thumbtack02a.jpg,thumb tack,z,sounds/greatgatsby_english.wav,,,,,,,,,0,0,0,0,0,2,2,60,99.3279909095,9.62160993367e-06,102.319316112,2.99133610737,,,,None,0,,2018_Nov_14_1534,59.984917177,chinese_cond1,001,1033,
images/rhinoceros01.jpg,envelope,x,sounds/greatgatsby_english.wav,,,,,,,,,0,0,0,0,0,3,3,173,103.430825806,9.62160993367e-06,104.770066883,1.33925101941,,,,x,1,1.31723080005,2018_Nov_14_1534,59.984917177,chinese_cond1,001,1033,
images/notebook02b.jpg,notebook,z,sounds/greatgatsby_english.wav,,,,,,,,,0,0,0,0,0,4,4,7,105.875894404,9.62149351835e-06,107.137416381,1.26153159805,,,,z,1,1.25059605553,2018_Nov_14_1534,59.984917177,chinese_cond1,001,1033,
images/lightswitch02a.jpg,fork,x,sounds/greatgatsby_english.wav,,,,,,,,,0,0,0,0,0,5,5,177,108.248704457,9.30088572204e-06,110.304750035,2.0560555202,,,,x,1,2.03407506994,2018_Nov_14_1534,59.984917177,chinese_cond1,001,1033,
images/ostrich.jpg,ostrich,z,sounds/greatgatsby_english.wav,,,,,,,,,0,0,0,0,0,6,6,76,111.40394702,8.98004509509e-06,113.238637741,1.83470098441,,,,z,1,1.81719167228,2018_Nov_14_1534,59.984917177,chinese_cond1,001,1033,
images/banjo.jpg,knife,x,sounds/greatgatsby_english.wav,,,,,,,,,0,0,0,0,0,7,7,191,114.334398547,9.30076930672e-06,115.189288447,0.854899522034,,,,x,1,0.833792388672,2018_Nov_14_1534,59.984917177,chinese_cond1,001,1033,
images/beachumbrella01.jpg,beach umbrella,z,sounds/greatgatsby_english.wav,,,,,,,,,0,0,0,0,0,8,8,92,116.293952401,9.30088572204e-06,117.50651604,1.21257326019,,,,z,1,1.20050558087,2018_Nov_14_1534,59.984917177,chinese_cond1,001,1033,
images/parkbench03.jpg,park bench,z,sounds/greatgatsby_english.wav,,,,,,,,,0,0,0,0,0,9,9,71,118.611109436,8.98016151041e-06,120.023778078,1.41267922556,,,,z,1,1.40057690861,2018_Nov_14_1534,59.984917177,chinese_cond1,001,1033,
images/broom02.jpg,broom,z,sounds/greatgatsby_english.wav,,,,,,,,,0,0,0,0,0,10,10,116,121.118217202,9.62149351835e-06,122.27433212,1.15612518031,,,,z,1,1.1338509518,2018_Nov_14_1534,59.984917177,chinese_cond1,001,1033,
images/computerkeyboard01a.jpg,computer keyboard,z,sounds/greatgatsby_english.wav,,,,,,,,,0,0,0,0,0,11,11,61,123.389611218,9.30088572204e-06,124.224814448,0.835213813582,,,,z,1,0.817118869163,2018_Nov_14_1534,59.984917177,chinese_cond1,001,1033,
images/chessknight02b (1).jpg,cockroach,x,sounds/greatgatsby_english.wav,,,,,,,,,0,0,0,0,0,12,12,155,125.332341137,1.02630583569e-05,126.492028218,1.15969766502,,,,z,0,1.15052254684,2018_Nov_14_1534,59.984917177,chinese_cond1,001,1033,
images/triangleruler02.jpg,bottle of red wine,x,sounds/greatgatsby_english.wav,,,,,,,,,0,0,0,0,0,13,13,134,127.601313086,9.94221772999e-06,129.192689989,1.59138716571,,,,x,1,1.56728965195,2018_Nov_14_1534,59.984917177,chinese_cond1,001,1033,
images/mailbox01.jpg,mail box,z,sounds/greatgatsby_english.wav,,,,,,,,,0,0,0,0,0,14,14,73,130.310442791,9.94221772999e-06,131.693294543,1.38286233658,,,,z,1,1.36724205723,2018_Nov_14_1534,59.984917177,chinese_cond1,001,1033,
images/cigar.jpg,crocodile,x,sounds/greatgatsby_english.wav,,,,,,,,,0,0,0,0,0,15,15,162,132.790125908,9.62160993367e-06,134.460625055,1.67050941021,,,,z,0,1.65063608123,2018_Nov_14_1534,59.984917177,chinese_cond1,001,1033,
images/squirrel.jpg,binder,x,sounds/greatgatsby_english.wav,,,,,,,,,0,0,0,0,0,16,16,132,135.562560335,9.94221772999e-06,136.811198724,1.24864897283,,,,x,1,1.2338439601,2018_Nov_14_1534,59.984917177,chinese_cond1,001,1033,
images/lip.jpg,boxing glove,x,sounds/greatgatsby_english.wav,,,,,,,,,0,0,0,0,0,17,17,136,137.914328681,3.91276553273e-05,139.611888462,1.69758768287,,,,x,1,1.68398953439,2018_Nov_14_1534,59.984917177,chinese_cond1,001,1033,
images/candycane01a.jpg,lip,x,sounds/greatgatsby_english.wav,,,,,,,,,0,0,0,0,0,18,18,200,140.704739708,8.98016151041e-06,142.079168749,1.37443834159,,,,x,1,1.35056629276,2018_Nov_14_1534,59.984917177,chinese_cond1,001,1033,
images/lipstick04.jpg,lipstick,z,sounds/greatgatsby_english.wav,,,,,,,,,0,0,0,0,0,19,19,56,143.177644437,9.62149351835e-06,144.646454873,1.46881973627,,,,z,1,1.45060612611,2018_Nov_14_1534,59.984917177,chinese_cond1,001,1033,
images/carrot02.jpg,corkscrew,x,sounds/greatgatsby_english.wav,,,,,,,,,0,0,0,0,0,20,20,161,145.747515874,8.98016151041e-06,147.213741638,1.46623666852,,,,x,1,1.45060708828,2018_Nov_14_1534,59.984917177,chinese_cond1,001,1033,
images/cupcake.jpg,scissors,x,sounds/greatgatsby_english.wav,,,,,,,,,0,0,0,0,0,21,21,219,148.331392772,9.30088572204e-06,150.531220995,2.19983848615,,,,z,0,2.18409023993,2018_Nov_14_1534,59.984917177,chinese_cond1,001,1033,
images/seagull.jpg,seagull,z,sounds/greatgatsby_english.wav,,,,,,,,,0,0,0,0,0,22,22,50,151.637692519,9.30088572204e-06,152.998486208,1.36080331041,,,,z,1,1.35058457381,2018_Nov_14_1534,59.984917177,chinese_cond1,001,1033,
images/blueberry02.jpg,blueberry,z,sounds/greatgatsby_english.wav,,,,,,,,,0,0,0,0,0,23,23,46,154.109648884,9.94233414531e-06,154.932285396,0.822647737456,,,,z,1,0.800440859864,2018_Nov_14_1534,59.984917177,chinese_cond1,001,1033,
images/swallow.jpg,mattress,x,sounds/greatgatsby_english.wav,,,,,,,,,0,0,0,0,0,24,24,202,156.03269149,9.62160993367e-06,157.23285294,1.20017139206,,,,x,1,1.18387375481,2018_Nov_14_1534,59.984917177,chinese_cond1,001,1033,
images/orange.jpg,bat,x,sounds/greatgatsby_english.wav,,,,,,,,,0,0,0,0,0,25,25,128,158.355973609,9.62149351835e-06,159.300018153,0.944055448403,,,,x,1,0.93381394085,2018_Nov_14_1534,59.984917177,chinese_cond1,001,1033,
images/eraser.jpg,eraser,z,sounds/greatgatsby_english.wav,,,,,,,,,0,0,0,0,0,26,26,110,160.405365879,9.62149351835e-06,162.634172312,2.22881637514,,,,x,0,2.2174728784,2018_Nov_14_1534,59.984917177,chinese_cond1,001,1033,
images/cheetah.jpg,cheetah,z,sounds/greatgatsby_english.wav,,,,,,,,,0,0,0,0,0,27,27,82,163.735250632,9.30076930672e-06,164.951391566,1.21615087625,,,,z,1,1.20054053923,2018_Nov_14_1534,59.984917177,chinese_cond1,001,1033,
images/ear.jpg,bullet,x,sounds/greatgatsby_english.wav,,,,,,,,,0,0,0,0,0,28,28,139,166.05395802,9.62160993367e-06,166.985220645,0.931273208,,,,x,1,0.917121819803,2018_Nov_14_1534,59.984917177,chinese_cond1,001,1033,
images/lollipop03b.jpg,lollipop,z,sounds/greatgatsby_english.wav,,,,,,,,,0,0,0,0,0,29,29,42,168.07678164,9.30088572204e-06,169.052406063,0.975634044618,,,,z,1,0.967173808371,2018_Nov_14_1534,59.984917177,chinese_cond1,001,1033,
images/sportshorts02.jpg,tape,x,sounds/greatgatsby_english.wav,,,,,,,,,0,0,0,0,0,30,30,230,170.160297088,9.30088572204e-06,171.553001638,1.39271385036,,,,x,1,1.38390467223,2018_Nov_14_1534,59.984917177,chinese_cond1,001,1033,
images/computermouse02a.jpg,world map,x,sounds/greatgatsby_english.wav,,,,,,,,,0,0,0,0,0,31,31,239,172.652616198,8.98016151041e-06,174.003593652,1.35098707571,,,,x,1,1.33391811035,2018_Nov_14_1534,59.984917177,chinese_cond1,001,1033,
images/bowlingball.jpg,bowling ball,z,sounds/greatgatsby_english.wav,,,,,,,,,0,0,0,0,0,32,32,20,175.133995596,9.30076930672e-06,177.537791237,2.4038055829,,,,z,1,2.38416830287,2018_Nov_14_1534,59.984917177,chinese_cond1,001,1033,
images/broadsword.jpg,teapot,x,sounds/greatgatsby_english.wav,,,,,,,,,0,0,0,0,0,33,33,231,178.62848565,8.98004509509e-06,180.321986736,1.69351070782,,,,x,1,1.68418709701,2018_Nov_14_1534,59.984917177,chinese_cond1,001,1033,
images/mirror02.jpg,8 ball,x,sounds/greatgatsby_english.wav,,,,,,,,,0,0,0,0,0,34,34,121,181.422912074,8.98004509509e-06,183.205849074,1.78294630081,,,,x,1,1.76736675261,2018_Nov_14_1534,59.984917177,chinese_cond1,001,1033,
images/giraffe.jpg,lettuce,x,sounds/greatgatsby_english.wav,,,,,,,,,0,0,0,0,0,35,35,195,184.306168253,9.30088572204e-06,185.889645535,1.58348754561,,,,x,1,1.56712768902,2018_Nov_14_1534,59.984917177,chinese_cond1,001,1033,
images/radio03a.jpg,radio,z,sounds/greatgatsby_english.wav,,,,,,,,,0,0,0,0,0,36,36,37,187.002043298,9.62160993367e-06,188.85720613,1.85517341574,,,,z,1,1.8340338897,2018_Nov_14_1534,59.984917177,chinese_cond1,001,1033,
images/donut.jpg,rhinoceros,x,sounds/greatgatsby_english.wav,,,,,,,,,0,0,0,0,0,37,37,216,189.981405697,8.98004509509e-06,191.541382964,1.55998913397,,,,x,1,1.55080856371,2018_Nov_14_1534,59.984917177,chinese_cond1,001,1033,
images/diploma01.jpg,glasses,x,sounds/greatgatsby_english.wav,,,,,,,,,0,0,0,0,0,38,38,179,192.670695106,9.30076930672e-06,194.325207072,1.65452254936,,,,x,1,1.63399142656,2018_Nov_14_1534,59.984917177,chinese_cond1,001,1033,
images/pipe.jpg,icecube,x,sounds/greatgatsby_english.wav,,,,,,,,,0,0,0,0,0,39,39,188,195.432940945,8.98016151041e-06,197.876085873,2.44315422908,,,,x,1,2.43419591675,2018_Nov_14_1534,59.984917177,chinese_cond1,001,1033,
images/hairband.jpg,hairband,z,sounds/greatgatsby_english.wav,,,,,,,,,0,0,0,0,0,40,40,66,198.984078566,9.94221772999e-06,200.293325076,1.30925677309,,,,z,1,1.30057203374,2018_Nov_14_1534,59.984917177,chinese_cond1,001,1033,
images/highheelshoe02a.jpg,high heel shoe,z,sounds/greatgatsby_english.wav,,,,,,,,,0,0,0,0,0,41,41,75,201.398459204,9.62160993367e-06,203.27738055,1.87893193006,,,,z,1,1.8673607232,2018_Nov_14_1534,59.984917177,chinese_cond1,001,1033,
images/lily.jpg,kiwi,x,sounds/greatgatsby_english.wav,,,,,,,,,0,0,0,0,0,42,42,190,204.375747836,8.98004509509e-06,205.494591722,1.11885446997,,,,x,1,1.10052155261,2018_Nov_14_1534,59.984917177,chinese_cond1,001,1033,
images/flashlight05.jpg,flash light,z,sounds/greatgatsby_english.wav,,,,,,,,,0,0,0,0,0,43,43,8,206.595259201,9.62160993367e-06,207.62844524,1.03319662169,,,,z,1,1.01716646389,2018_Nov_14_1534,59.984917177,chinese_cond1,001,1033,
images/cat.jpg,black olive,x,sounds/greatgatsby_english.wav,,,,,,,,,0,0,0,0,0,44,44,133,208.757495996,9.62160993367e-06,211.579489146,2.82200341381,,,,x,1,2.80101751187,2018_Nov_14_1534,59.984917177,chinese_cond1,001,1033,
images/calculator02b.jpg,dice,x,sounds/greatgatsby_english.wav,,,,,,,,,0,0,0,0,0,45,45,165,212.679956498,9.30088572204e-06,215.397005065,2.7170591515,,,,x,1,2.70091064845,2018_Nov_14_1534,59.984917177,chinese_cond1,001,1033,
images/tent.jpg,tent,z,sounds/greatgatsby_english.wav,,,,,,,,,0,0,0,0,0,46,46,11,216.521634074,8.98016151041e-06,217.480851495,0.959227042506,,,,z,1,0.950499006081,2018_Nov_14_1534,59.984917177,chinese_cond1,001,1033,
images/handfan01b.jpg,handfan,z,sounds/greatgatsby_english.wav,,,,,,,,,0,0,0,0,0,47,47,69,218.593829759,8.98016151041e-06,219.881430328,1.28761083237,,,,z,1,1.26723654091,2018_Nov_14_1534,59.984917177,chinese_cond1,001,1033,
images/grandpiano.jpg,tulip,x,sounds/greatgatsby_english.wav,,,,,,,,,0,0,0,0,0,48,48,236,220.993932966,9.62149351835e-06,222.365360722,1.37143801886,,,,x,1,1.35058040451,2018_Nov_14_1534,59.984917177,chinese_cond1,001,1033,
images/weight01.jpg,weight,z,sounds/greatgatsby_english.wav,,,,,,,,,0,0,0,0,0,49,49,67,223.468632437,9.30088572204e-06,224.482550021,1.01392752666,,,,z,1,1.00050416961,2018_Nov_14_1534,59.984917177,chinese_cond1,001,1033,
images/lemon02.jpg,lemon,z,sounds/greatgatsby_english.wav,,,,,,,,,0,0,0,0,0,50,50,14,225.593162343,9.62149351835e-06,226.333015287,0.739863527706,,,,z,1,0.717114315019,2018_Nov_14_1534,59.984917177,chinese_cond1,001,1033,
images/chameleon.jpg,50 dollar bill,x,sounds/greatgatsby_english.wav,,,,,,,,,0,0,0,0,0,51,51,120,227.443316833,9.62160993367e-06,228.466839299,1.02353240771,,,,x,1,1.00048813375,2018_Nov_14_1534,59.984917177,chinese_cond1,001,1033,
images/cauliflower01.jpg,glue stick,x,sounds/greatgatsby_english.wav,,,,,,,,,0,0,0,0,0,52,52,181,229.581598192,9.62160993367e-06,230.717401358,1.13581374974,,,,x,1,1.11719827924,2018_Nov_14_1534,59.984917177,chinese_cond1,001,1033,
images/leek.jpg,donut,x,sounds/greatgatsby_english.wav,,,,,,,,,0,0,0,0,0,53,53,169,231.816674674,9.62149351835e-06,233.2680393,1.45137520926,,,,x,1,1.43395313271,2018_Nov_14_1534,59.984917177,chinese_cond1,001,1033,
images/bed.jpg,bed,z,sounds/greatgatsby_english.wav,,,,,,,,,0,0,0,0,0,54,54,103,234.385909164,9.62160993367e-06,235.601920527,1.21602162672,,,,z,1,1.20054182201,2018_Nov_14_1534,59.984917177,chinese_cond1,001,1033,
images/swan.jpg,swan,z,sounds/greatgatsby_english.wav,,,,,,,,,0,0,0,0,0,55,55,54,236.692175877,9.62149351835e-06,238.452617994,1.76045205921,,,,x,0,1.75068264955,2018_Nov_14_1534,59.984917177,chinese_cond1,001,1033,
images/hammer02a.jpg,flower,x,sounds/greatgatsby_english.wav,,,,,,,,,0,0,0,0,0,56,56,176,239.546617734,9.94221772999e-06,240.936562179,1.38995470805,,,,x,1,1.36723628431,2018_Nov_14_1534,59.984917177,chinese_cond1,001,1033,
images/ceilingfan02.jpg,paper clip,x,sounds/greatgatsby_english.wav,,,,,,,,,0,0,0,0,0,57,57,208,242.033487193,9.30076930672e-06,244.070687024,2.03720977367,,,,x,1,2.01744356484,2018_Nov_14_1534,59.984917177,chinese_cond1,001,1033,
images/cactus.jpg,cactus,z,sounds/greatgatsby_english.wav,,,,,,,,,0,0,0,0,0,58,58,70,245.181015831,9.94233414531e-06,246.221172688,1.04016712017,,,,x,0,1.01716357737,2018_Nov_14_1534,59.984917177,chinese_cond1,001,1033,
images/belt02a.jpg,snowman,x,sounds/greatgatsby_english.wav,,,,,,,,,0,0,0,0,0,59,59,224,247.323061464,9.62160993367e-06,248.67178138,1.34873082023,,,,x,1,1.33390720584,2018_Nov_14_1534,59.984917177,chinese_cond1,001,1033,
images/handbag02a.jpg,candle,x,sounds/greatgatsby_english.wav,,,,,,,,,0,0,0,0,0,60,60,144,249.786653487,9.62149351835e-06,251.155699587,1.36905636243,,,,x,1,1.35057559365,2018_Nov_14_1534,59.984917177,chinese_cond1,001,1033,
images/daisy.jpg,daisy,z,sounds/greatgatsby_english.wav,,,,,,,,,0,0,0,0,0,61,61,6,252.257228517,9.94233414531e-06,253.156396187,0.899194932193,,,,z,1,0.883936102618,2018_Nov_14_1534,59.984917177,chinese_cond1,001,1033,
images/scissors04a.jpg,leek,x,sounds/greatgatsby_english.wav,,,,,,,,,0,0,0,0,0,62,62,194,254.249198684,9.62160993367e-06,255.340064683,1.09087690245,,,,x,1,1.06718413555,2018_Nov_14_1534,59.984917177,chinese_cond1,001,1033,
images/backpack01b.jpg,swallow,x,sounds/greatgatsby_english.wav,,,,,,,,,0,0,0,0,0,63,63,228,256.47060229,8.98016151041e-06,257.773986706,1.30339435756,,,,x,1,1.28389626939,2018_Nov_14_1534,59.984917177,chinese_cond1,001,1033,
images/tank.jpg,wallet,x,sounds/greatgatsby_english.wav,,,,,,,,,0,0,0,0,0,64,64,237,258.877670223,9.62160993367e-06,260.157898434,1.28023879428,,,,x,1,1.26723108871,2018_Nov_14_1534,59.984917177,chinese_cond1,001,1033,
images/screw03c.jpg,screw,z,sounds/greatgatsby_english.wav,,,,,,,,,0,0,0,0,0,65,65,84,261.250286562,9.94233414531e-06,262.541824915,1.29154893616,,,,z,1,1.26724712458,2018_Nov_14_1534,59.984917177,chinese_cond1,001,1033,
images/dresser02.jpg,dresser,z,sounds/greatgatsby_english.wav,,,,,,,,,0,0,0,0,0,66,66,87,263.662610431,9.30088572204e-06,266.659366042,2.99676619424,,,,None,0,,2018_Nov_14_1534,59.984917177,chinese_cond1,001,1033,
images/arrow02.jpg,hammer,x,sounds/greatgatsby_english.wav,,,,,,,,,0,0,0,0,0,67,67,184,267.757043462,9.62160993367e-06,268.893354325,1.13632080588,,,,x,1,1.11719090259,2018_Nov_14_1534,59.984917177,chinese_cond1,001,1033,
images/cola.jpg,comb,x,sounds/greatgatsby_english.wav,,,,,,,,,0,0,0,0,0,68,68,157,270.012832914,9.30076930672e-06,271.243944351,1.23112170049,,,,x,1,1.2172316981,2018_Nov_14_1534,59.984917177,chinese_cond1,001,1033,
images/desktopcomputer.jpg,desktop computer,z,sounds/greatgatsby_english.wav,,,,,,,,,0,0,0,0,0,69,69,16,272.377977792,9.30088572204e-06,273.494483319,1.11651546927,,,,z,1,1.10053053277,2018_Nov_14_1534,59.984917177,chinese_cond1,001,1033,
images/medal01.jpg,medal,z,sounds/greatgatsby_english.wav,,,,,,,,,0,0,0,0,0,70,70,115,274.593836173,9.62149351835e-06,275.795170491,1.20134522207,,,,z,1,1.18401358824,2018_Nov_14_1534,59.984917177,chinese_cond1,001,1033,
images/tie01.jpg,bench,x,sounds/greatgatsby_english.wav,,,,,,,,,0,0,0,0,0,71,71,130,276.892201021,8.98016151041e-06,278.245657951,1.35346687201,,,,x,1,1.33393895696,2018_Nov_14_1534,59.984917177,chinese_cond1,001,1033,
images/puzzle.jpg,puzzle,z,sounds/greatgatsby_english.wav,,,,,,,,,0,0,0,0,0,72,72,57,279.365155783,9.94233414531e-06,280.462853087,1.0977075675,,,,x,0,1.08386567282,2018_Nov_14_1534,59.984917177,chinese_cond1,001,1033,
images/peach01.jpg,peach,z,sounds/greatgatsby_english.wav,,,,,,,,,0,0,0,0,0,73,73,106,281.590265292,9.30076930672e-06,282.463346673,0.873091323301,,,,z,1,0.850480019581,2018_Nov_14_1534,59.984917177,chinese_cond1,001,1033,
images/aloe02.jpg,broad sword,x,sounds/greatgatsby_english.wav,,,,,,,,,0,0,0,0,0,74,74,137,283.58470788,9.62149351835e-06,284.947261993,1.36256405548,,,,x,1,1.35058168741,2018_Nov_14_1534,59.984917177,chinese_cond1,001,1033,
images/clothespin02a.jpg,clothes pin,z,sounds/greatgatsby_english.wav,,,,,,,,,0,0,0,0,0,75,75,79,286.052366935,1.02629419416e-05,287.197819562,1.14546288992,,,,z,1,1.13381438993,2018_Nov_14_1534,59.984917177,chinese_cond1,001,1033,
images/acousticguitar02.jpg,acoustic guitar,z,sounds/greatgatsby_english.wav,,,,,,,,,0,0,0,0,0,76,76,97,288.311004369,8.98016151041e-06,289.331679494,1.02068538859,,,,z,1,1.00050609407,2018_Nov_14_1534,59.984917177,chinese_cond1,001,1033,
images/icecube02 (2).jpg,aloe,x,sounds/greatgatsby_english.wav,,,,,,,,,0,0,0,0,0,77,77,122,290.440663208,8.98004509509e-06,291.515530478,1.07487689215,,,,x,1,1.05050997471,2018_Nov_14_1534,59.984917177,chinese_cond1,001,1033,
images/charcoalbarbecue.jpg,charcoal barbecue,z,sounds/greatgatsby_english.wav,,,,,,,,,0,0,0,0,0,78,78,77,292.632717532,9.62160993367e-06,294.016157483,1.38345053466,,,,z,1,1.36727348773,2018_Nov_14_1534,59.984917177,chinese_cond1,001,1033,
images/hanger02a.jpg,hanger,z,sounds/greatgatsby_english.wav,,,,,,,,,0,0,0,0,0,79,79,88,295.10839327,9.30088572204e-06,296.049796055,0.941413047723,,,,z,1,0.916969799204,2018_Nov_14_1534,59.984917177,chinese_cond1,001,1033,
images/lightbulb03b.jpg,treadmill,x,sounds/greatgatsby_english.wav,,,,,,,,,0,0,0,0,0,80,80,234,297.151588295,9.94221772999e-06,298.783971317,1.63239328563,,,,x,1,1.61731854861,2018_Nov_14_1534,59.984917177,chinese_cond1,001,1033,
images/axe01.jpg,axe,z,sounds/greatgatsby_english.wav,,,,,,,,,0,0,0,0,0,81,81,104,299.887048356,9.62149351835e-06,300.984514422,1.09747632931,,,,z,1,1.08386086207,2018_Nov_14_1534,59.984917177,chinese_cond1,001,1033,
images/graduationcap.jpg,graduation cap,z,sounds/greatgatsby_english.wav,,,,,,,,,0,0,0,0,0,82,82,35,302.0857701,8.98004509509e-06,304.051920495,1.96616001672,,,,z,1,1.95073345141,2018_Nov_14_1534,59.984917177,chinese_cond1,001,1033,
images/paperclip04.jpg,eye drops,x,sounds/greatgatsby_english.wav,,,,,,,,,0,0,0,0,0,83,83,174,305.157665271,9.94221772999e-06,307.669478941,2.51182329166,,,,x,1,2.50087459967,2018_Nov_14_1534,59.984917177,chinese_cond1,001,1033,
images/teapot.jpg,light switch,x,sounds/greatgatsby_english.wav,,,,,,,,,0,0,0,0,0,84,84,197,308.78471346,1.02630583569e-05,309.970027883,1.185324686,,,,x,1,1.16720504628,2018_Nov_14_1534,59.984917177,chinese_cond1,001,1033,
images/dragonfly02.jpg,dragon fly,z,sounds/greatgatsby_english.wav,,,,,,,,,0,0,0,0,0,85,85,29,311.066056168,9.30076930672e-06,312.920763259,1.8547170331,,,,z,1,1.83405569859,2018_Nov_14_1534,59.984917177,chinese_cond1,001,1033,
images/remotecontrol01c.jpg,remote control,z,sounds/greatgatsby_english.wav,,,,,,,,,0,0,0,0,0,86,86,85,314.028985907,9.30088572204e-06,315.404685635,1.37570967013,,,,z,1,1.36726001743,2018_Nov_14_1534,59.984917177,chinese_cond1,001,1033,
images/bowtie.jpg,bowtie,z,sounds/greatgatsby_english.wav,,,,,,,,,0,0,0,0,0,87,87,89,316.514298598,9.94233414531e-06,317.805268958,1.2909809436,,,,z,1,1.26723333367,2018_Nov_14_1534,59.984917177,chinese_cond1,001,1033,
images/puma.jpg,puma,z,sounds/greatgatsby_english.wav,,,,,,,,,0,0,0,0,0,88,88,4,318.902905326,9.62149351835e-06,320.122511624,1.21961816517,,,,z,1,1.20048986562,2018_Nov_14_1534,59.984917177,chinese_cond1,001,1033,
images/lock02a.jpg,lock,z,sounds/greatgatsby_english.wav,,,,,,,,,0,0,0,0,0,89,89,65,321.232201881,9.30076930672e-06,322.689791655,1.45760003687,,,,z,1,1.43394511472,2018_Nov_14_1534,59.984917177,chinese_cond1,001,1033,
images/doll.jpg,carrot,x,sounds/greatgatsby_english.wav,,,,,,,,,0,0,0,0,0,90,90,146,323.800191982,9.94233414531e-06,325.573824294,1.77364225383,,,,x,1,1.75068425317,2018_Nov_14_1534,59.984917177,chinese_cond1,001,1033,
images/barrel01.jpg,barrel,z,sounds/greatgatsby_english.wav,,,,,,,,,0,0,0,0,0,91,91,9,326.70307582,9.62149351835e-06,327.957750775,1.25468521786,,,,x,0,1.23390104808,2018_Nov_14_1534,59.984917177,chinese_cond1,001,1033,
images/ant.jpg,ant,z,sounds/greatgatsby_english.wav,,,,,,,,,0,0,0,0,0,92,92,98,329.051426268,9.30076930672e-06,329.94156603,0.890149704996,,,,z,1,0.867143275915,2018_Nov_14_1534,59.984917177,chinese_cond1,001,1033,
images/diaper01a.jpg,camera,x,sounds/greatgatsby_english.wav,,,,,,,,,0,0,0,0,0,93,93,143,331.060382014,8.98016151041e-06,332.825597386,1.76522499369,,,,z,0,1.75068681885,2018_Nov_14_1534,59.984917177,chinese_cond1,001,1033,
images/bullet (2).jpg,rubber glove,x,sounds/greatgatsby_english.wav,,,,,,,,,0,0,0,0,0,94,94,217,333.930679879,8.98016151041e-06,335.34287097,1.41220103414,,,,x,1,1.40059551038,2018_Nov_14_1534,59.984917177,chinese_cond1,001,1033,
images/dreamcatcher.jpg,dream catcher,z,sounds/greatgatsby_english.wav,,,,,,,,,0,0,0,0,0,95,95,48,336.440269686,9.62149351835e-06,337.810147729,1.3698886272,,,,z,1,1.35059066745,2018_Nov_14_1534,59.984917177,chinese_cond1,001,1033,
images/aquarium.jpg,computer mouse,x,sounds/greatgatsby_english.wav,,,,,,,,,0,0,0,0,0,96,96,159,338.945852435,9.30088572204e-06,341.260979641,2.31513746956,,,,x,1,2.30081385549,2018_Nov_14_1534,59.984917177,chinese_cond1,001,1033,
images/nailpolish02b.jpg,nail polish,z,sounds/greatgatsby_english.wav,,,,,,,,,0,0,0,0,0,97,97,94,342.368249755,8.98016151041e-06,344.278377985,1.9101381721,,,,z,1,1.9007067997,2018_Nov_14_1534,59.984917177,chinese_cond1,001,1033,
images/parrot01.jpg,chameleon,x,sounds/greatgatsby_english.wav,,,,,,,,,0,0,0,0,0,98,98,150,345.391267089,8.98016151041e-06,348.246026777,2.85476963106,,,,x,1,2.83429687901,2018_Nov_14_1534,59.984917177,chinese_cond1,001,1033,
images/lychee02a.jpg,lychee,z,sounds/greatgatsby_english.wav,,,,,,,,,0,0,0,0,0,99,99,62,349.368758415,9.30088572204e-06,350.730112399,1.36138381099,,,,z,1,1.35064679326,2018_Nov_14_1534,59.984917177,chinese_cond1,001,1033,
images/highlighter03b.jpg,coin,x,sounds/greatgatsby_english.wav,,,,,,,,,0,0,0,0,0,100,100,156,351.830715735,8.98004509509e-06,354.830971348,3.00026555499,,,,None,0,,2018_Nov_14_1534,59.984917177,chinese_cond1,001,1033,
images/nailclipper03a.jpg,aquarium,x,sounds/greatgatsby_english.wav,,,,,,,,,0,0,0,0,0,101,101,123,355.929005727,9.94233414531e-06,357.114828169,1.18583302491,,,,x,1,1.16720568773,2018_Nov_14_1534,59.984917177,chinese_cond1,001,1033,
images/boxingglove02a.jpg,bracelet,x,sounds/greatgatsby_english.wav,,,,,,,,,0,0,0,0,0,102,102,135,358.224540554,9.30088572204e-06,359.898849197,1.67431922664,,,,x,1,1.65064506128,2018_Nov_14_1534,59.984917177,chinese_cond1,001,1033,
images/candle08a.jpg,screw driver,x,sounds/greatgatsby_english.wav,,,,,,,,,0,0,0,0,0,103,103,221,361.011370116,9.30088572204e-06,363.032949027,2.02158949431,,,,x,1,2.0007504815,2018_Nov_14_1534,59.984917177,chinese_cond1,001,1033,
images/pen03c.jpg,pepper,x,sounds/greatgatsby_english.wav,,,,,,,,,0,0,0,0,0,104,104,211,364.125910921,8.98016151041e-06,365.200149904,1.07424828375,,,,x,1,1.05052184127,2018_Nov_14_1534,59.984917177,chinese_cond1,001,1033,
images/skateboard.jpg,key,x,sounds/greatgatsby_english.wav,,,,,,,,,0,0,0,0,0,105,105,189,366.290128473,9.62149351835e-06,367.700742913,1.41062470211,,,,x,1,1.40060032113,2018_Nov_14_1534,59.984917177,chinese_cond1,001,1033,
images/leaf01a.jpg,leaf,z,sounds/greatgatsby_english.wav,,,,,,,,,0,0,0,0,0,106,106,68,368.802689739,9.62149351835e-06,369.651217223,0.848537747632,,,,z,1,0.833788219257,2018_Nov_14_1534,59.984917177,chinese_cond1,001,1033,
images/flower01.jpg,bus,x,sounds/greatgatsby_english.wav,,,,,,,,,0,0,0,0,0,107,107,140,370.76499568,9.94233414531e-06,373.702200258,2.93721484102,,,,x,1,2.91762310301,2018_Nov_14_1534,59.984917177,chinese_cond1,001,1033,
images/scooter.jpg,pen,x,sounds/greatgatsby_english.wav,,,,,,,,,0,0,0,0,0,108,108,212,374.793971645,9.30076930672e-06,377.036352172,2.24239079049,,,,x,1,2.23413228616,2018_Nov_14_1534,59.984917177,chinese_cond1,001,1033,
images/feather03b.jpg,feather,z,sounds/greatgatsby_english.wav,,,,,,,,,0,0,0,0,0,109,109,114,378.135799638,9.62160993367e-06,379.620311495,1.48452179891,,,,z,1,1.46727515536,2018_Nov_14_1534,59.984917177,chinese_cond1,001,1033,
images/straw.jpg,straw,z,sounds/greatgatsby_english.wav,,,,,,,,,0,0,0,0,0,110,110,109,380.710477364,8.98016151041e-06,382.637731968,1.92726454604,,,,z,1,1.91740725946,2018_Nov_14_1534,59.984917177,chinese_cond1,001,1033,
images/cockroach02.jpg,belt,x,sounds/greatgatsby_english.wav,,,,,,,,,0,0,0,0,0,111,111,129,383.735503679,9.30076930672e-06,385.171670412,1.43617635418,,,,x,1,1.41726870905,2018_Nov_14_1534,59.984917177,chinese_cond1,001,1033,
images/hairpin.jpg,hair pin,z,sounds/greatgatsby_english.wav,,,,,,,,,0,0,0,0,0,112,112,28,386.261606967,9.94233414531e-06,387.738959101,1.47736271797,,,,z,1,1.46728189057,2018_Nov_14_1534,59.984917177,chinese_cond1,001,1033,
images/toucan.jpg,toucan,z,sounds/greatgatsby_english.wav,,,,,,,,,0,0,0,0,0,113,113,81,388.839369685,8.98016151041e-06,390.1895617,1.35020163585,,,,x,0,1.3339174689,2018_Nov_14_1534,59.984917177,chinese_cond1,001,1033,
images/dice05a.jpg,band aid,x,sounds/greatgatsby_english.wav,,,,,,,,,0,0,0,0,0,114,114,126,391.300612765,9.94233414531e-06,392.456804975,1.15620247356,,,,x,1,1.13390066312,2018_Nov_14_1534,59.984917177,chinese_cond1,001,1033,
images/bicycle.jpg,hand bag,x,sounds/greatgatsby_english.wav,,,,,,,,,0,0,0,0,0,115,115,186,393.566507419,9.30088572204e-06,395.724229457,2.1577313391,,,,x,1,2.1341056024,2018_Nov_14_1534,59.984917177,chinese_cond1,001,1033,
images/corkscrew02a.jpg,masquerade mask,x,sounds/greatgatsby_english.wav,,,,,,,,,0,0,0,0,0,116,116,201,396.827456592,9.30088572204e-06,399.075057457,2.24761016527,,,,x,1,2.23414383212,2018_Nov_14_1534,59.984917177,chinese_cond1,001,1033,
images/parkingmeter.jpg,ear,x,sounds/greatgatsby_english.wav,,,,,,,,,0,0,0,0,0,117,117,171,400.175710183,9.30076930672e-06,401.325598349,1.14989842835,,,,x,1,1.13386281836,2018_Nov_14_1534,59.984917177,chinese_cond1,001,1033,
images/safe.jpg,safe,z,sounds/greatgatsby_english.wav,,,,,,,,,0,0,0,0,0,118,118,78,402.436244667,4.23348974437e-05,403.759527107,1.32330104127,,,,z,1,1.30057556159,2018_Nov_14_1534,59.984917177,chinese_cond1,001,1033,
images/hairdryer03a.jpg,hairdryer,z,sounds/greatgatsby_english.wav,,,,,,,,,0,0,0,0,0,119,119,119,404.858243014,9.30088572204e-06,406.210116556,1.35188348428,,,,z,1,1.33388700057,2018_Nov_14_1534,59.984917177,chinese_cond1,001,1033,
images/showerhead01.jpg,skateboard,x,sounds/greatgatsby_english.wav,,,,,,,,,0,0,0,0,0,120,120,223,407.316164411,9.62160993367e-06,408.910776723,1.59462225437,,,,x,1,1.58395066322,2018_Nov_14_1534,59.984917177,chinese_cond1,001,1033,
images/panda.jpg,panda,z,sounds/greatgatsby_english.wav,,,,,,,,,0,0,0,0,0,121,121,83,410.01887397,9.30088572204e-06,410.911265177,0.892401149729,,,,z,1,0.883808456594,2018_Nov_14_1534,59.984917177,chinese_cond1,001,1033,
images/electrictoothbrush01a.jpg,banjo,x,sounds/greatgatsby_english.wav,,,,,,,,,0,0,0,0,0,122,122,127,412.005025661,9.30088572204e-06,413.211834004,1.20681796456,,,,x,1,1.18388498004,2018_Nov_14_1534,59.984917177,chinese_cond1,001,1033,
images/snowman.jpg,globe,x,sounds/greatgatsby_english.wav,,,,,,,,,0,0,0,0,0,123,123,180,414.321704825,9.62160993367e-06,415.512384549,1.19069030834,,,,x,1,1.1672024806,2018_Nov_14_1534,59.984917177,chinese_cond1,001,1033,
images/spoon02b.jpg,spoon,z,sounds/greatgatsby_english.wav,,,,,,,,,0,0,0,0,0,124,124,38,416.602811483,9.62160993367e-06,417.496189221,0.893388000899,,,,z,1,0.883794024237,2018_Nov_14_1534,59.984917177,chinese_cond1,001,1033,
images/watermelon01.jpg,orange,x,sounds/greatgatsby_english.wav,,,,,,,,,0,0,0,0,0,125,125,207,418.62423228,9.62160993367e-06,419.61339167,0.989169653156,,,,x,1,0.967165148933,2018_Nov_14_1534,59.984917177,chinese_cond1,001,1033,
images/rubberglove02a.jpg,lady bug,x,sounds/greatgatsby_english.wav,,,,,,,,,0,0,0,0,0,126,126,192,420.717253828,9.62160993367e-06,421.713894621,0.996651376947,,,,x,1,0.983823915245,2018_Nov_14_1534,59.984917177,chinese_cond1,001,1033,
images/grasshopper.jpg,cauliflower,x,sounds/greatgatsby_english.wav,,,,,,,,,0,0,0,0,0,127,127,148,422.806941826,9.30088572204e-06,424.23118841,1.42425684689,,,,x,1,1.40060930117,2018_Nov_14_1534,59.984917177,chinese_cond1,001,1033,
images/volleyball.jpg,volley ball,z,sounds/greatgatsby_english.wav,,,,,,,,,0,0,0,0,0,128,128,2,425.362334421,8.98016151041e-06,426.448378094,1.08605393593,,,,z,1,1.06717900396,2018_Nov_14_1534,59.984917177,chinese_cond1,001,1033,
images/drink.jpg,drink,z,sounds/greatgatsby_english.wav,,,,,,,,,0,0,0,0,0,129,129,117,427.547145316,9.62160993367e-06,428.415532018,0.868396644248,,,,z,1,0.850467832177,2018_Nov_14_1534,59.984917177,chinese_cond1,001,1033,
images/button07.jpg,radish,x,sounds/greatgatsby_english.wav,,,,,,,,,0,0,0,0,0,130,130,215,429.526478529,9.94233414531e-06,430.866124674,1.33965640783,,,,x,1,1.31724202516,2018_Nov_14_1534,59.984917177,chinese_cond1,001,1033,
images/pineapple01a.jpg,pineapple,z,sounds/greatgatsby_english.wav,,,,,,,,,0,0,0,0,0,131,131,51,431.978313328,8.98016151041e-06,432.966635642,0.988332256791,,,,z,1,0.967165469658,2018_Nov_14_1534,59.984917177,chinese_cond1,001,1033,
images/ladder.jpg,ladder,z,sounds/greatgatsby_english.wav,,,,,,,,,0,0,0,0,0,132,132,113,434.058380409,9.30088572204e-06,434.833768655,0.775398188271,,,,z,1,0.767123647849,2018_Nov_14_1534,59.984917177,chinese_cond1,001,1033,
images/coffeepot03b.jpg,coffee pot,z,sounds/greatgatsby_english.wav,,,,,,,,,0,0,0,0,0,133,133,107,435.956174122,9.30076930672e-06,436.884267405,0.928102904465,,,,z,1,0.91716062685,2018_Nov_14_1534,59.984917177,chinese_cond1,001,1033,
images/microphone01.jpg,diaper,x,sounds/greatgatsby_english.wav,,,,,,,,,0,0,0,0,0,134,134,164,437.982315255,9.30088572204e-06,439.534899637,1.55259464565,,,,x,1,1.5339608941,2018_Nov_14_1534,59.984917177,chinese_cond1,001,1033,
images/lettuce.jpg,mushroom,x,sounds/greatgatsby_english.wav,,,,,,,,,0,0,0,0,0,135,135,205,440.657246092,9.62160993367e-06,441.518726439,0.861490289681,,,,x,1,0.850477133063,2018_Nov_14_1534,59.984917177,chinese_cond1,001,1033,
images/crocodile.jpg,triangle ruler,x,sounds/greatgatsby_english.wav,,,,,,,,,0,0,0,0,0,136,136,235,442.615347412,9.62160993367e-06,445.302987366,2.68765021663,,,,z,0,2.66758253216,2018_Nov_14_1534,59.984917177,chinese_cond1,001,1033,
images/glasses01b.jpg,calculator,x,sounds/greatgatsby_english.wav,,,,,,,,,0,0,0,0,0,137,137,142,446.395372608,9.94221772999e-06,448.503749201,2.10838749737,,,,x,1,2.08409498655,2018_Nov_14_1534,59.984917177,chinese_cond1,001,1033,
images/sock03.jpg,sock,z,sounds/greatgatsby_english.wav,,,,,,,,,0,0,0,0,0,138,138,90,449.608337786,9.94221772999e-06,450.604264339,0.995937136584,,,,x,0,0.983834819635,2018_Nov_14_1534,59.984917177,chinese_cond1,001,1033,
images/50dollarbill.jpg,cherry,x,sounds/greatgatsby_english.wav,,,,,,,,,0,0,0,0,0,139,139,151,451.724788149,9.62160993367e-06,452.554735763,0.829958197544,,,,x,1,0.817122717854,2018_Nov_14_1534,59.984917177,chinese_cond1,001,1033,
images/ashtray02b.jpg,ashtray,z,sounds/greatgatsby_english.wav,,,,,,,,,0,0,0,0,0,140,140,43,453.668384649,9.30076930672e-06,454.738603104,1.07022871729,,,,x,0,1.05051093677,2018_Nov_14_1534,59.984917177,chinese_cond1,001,1033,
images/treadmill.jpg,lily,x,sounds/greatgatsby_english.wav,,,,,,,,,0,0,0,0,0,141,141,199,455.843268341,9.62160993367e-06,457.005815911,1.16255815432,,,,x,1,1.1505382621,2018_Nov_14_1534,59.984917177,chinese_cond1,001,1033,
images/apricot.jpg,apricot,z,sounds/greatgatsby_english.wav,,,,,,,,,0,0,0,0,0,142,142,32,458.121524773,9.62160993367e-06,459.173017109,1.05150356097,,,,x,0,1.03379957273,2018_Nov_14_1534,59.984917177,chinese_cond1,001,1033,
images/bandaid01.jpg,door handle,x,sounds/greatgatsby_english.wav,,,,,,,,,0,0,0,0,0,143,143,170,460.279211212,9.62160993367e-06,461.306863891,1.02766262204,,,,x,1,1.01716902957,2018_Nov_14_1534,59.984917177,chinese_cond1,001,1033,
images/comb02a.jpg,diploma,x,sounds/greatgatsby_english.wav,,,,,,,,,0,0,0,0,0,144,144,166,462.410062482,9.30076930672e-06,463.557419537,1.14736731711,,,,x,1,1.133868912,2018_Nov_14_1534,59.984917177,chinese_cond1,001,1033,
images/printer03a.jpg,printer,z,sounds/greatgatsby_english.wav,,,,,,,,,0,0,0,0,0,145,145,72,464.665477335,9.30076930672e-06,465.407862032,0.742394639063,,,,z,1,0.733766666963,2018_Nov_14_1534,59.984917177,chinese_cond1,001,1033,
images/coin01b.jpg,arrow,x,sounds/greatgatsby_english.wav,,,,,,,,,0,0,0,0,0,146,146,124,466.509508345,8.98016151041e-06,467.308320595,0.798821872217,,,,x,1,0.783774075564,2018_Nov_14_1534,59.984917177,chinese_cond1,001,1033,
images/cherry01.jpg,highlighter,x,sounds/greatgatsby_english.wav,,,,,,,,,0,0,0,0,0,147,147,187,468.415904693,8.65943729877e-06,469.475518265,1.05962351488,,,,x,1,1.05051093677,2018_Nov_14_1534,59.984917177,chinese_cond1,001,1033,
images/bench02.jpg,electric toothbrush,x,sounds/greatgatsby_english.wav,,,,,,,,,0,0,0,0,0,148,148,172,470.583638925,8.98016151041e-06,471.692723344,1.10909436119,,,,x,1,1.10048948065,2018_Nov_14_1534,59.984917177,chinese_cond1,001,1033,
images/pictureframe04.jpg,picture frame,z,sounds/greatgatsby_english.wav,,,,,,,,,0,0,0,0,0,149,149,41,472.813960112,9.30088572204e-06,474.093311477,1.2793613082,,,,z,1,1.26722916437,2018_Nov_14_1534,59.984917177,chinese_cond1,001,1033,
images/candy.jpg,candy,z,sounds/greatgatsby_english.wav,,,,,,,,,0,0,0,0,0,150,150,31,475.194536366,9.30076930672e-06,476.493905063,1.29937863967,,,,z,1,1.28391358815,2018_Nov_14_1534,59.984917177,chinese_cond1,001,1033,
images/parkfountain.jpg,park fountain,z,sounds/greatgatsby_english.wav,,,,,,,,,0,0,0,0,0,151,151,93,477.614364409,9.62160993367e-06,480.011423997,2.39707049204,,,,z,1,2.38417728303,2018_Nov_14_1534,59.984917177,chinese_cond1,001,1033,
images/plate01b.jpg,plate,z,sounds/greatgatsby_english.wav,,,,,,,,,0,0,0,0,0,152,152,3,481.109646318,9.30076930672e-06,482.295302948,1.18566657184,,,,z,1,1.16719702829,2018_Nov_14_1534,59.984917177,chinese_cond1,001,1033,
images/radish01.jpg,raisin,x,sounds/greatgatsby_english.wav,,,,,,,,,0,0,0,0,0,153,153,214,483.405057348,9.30088572204e-06,485.312703536,1.90765645134,,,,x,1,1.88404610916,2018_Nov_14_1534,59.984917177,chinese_cond1,001,1033,
images/tulip02.jpg,sport shorts,x,sounds/greatgatsby_english.wav,,,,,,,,,0,0,0,0,0,154,154,225,486.406336374,9.62160993367e-06,489.396880947,2.99055483681,,,,None,0,,2018_Nov_14_1534,59.984917177,chinese_cond1,001,1033,
images/floorlamp.jpg,floor lamp,z,sounds/greatgatsby_english.wav,,,,,,,,,0,0,0,0,0,155,155,26,490.488810448,8.98004509509e-06,491.880989019,1.39218787174,,,,z,1,1.36727348773,2018_Nov_14_1534,59.984917177,chinese_cond1,001,1033,
images/antelope.jpg,antelope,z,sounds/greatgatsby_english.wav,,,,,,,,,0,0,0,0,0,156,156,12,492.985662916,9.62149351835e-06,493.714753826,0.729100852506,,,,x,0,0.717094430467,2018_Nov_14_1534,59.984917177,chinese_cond1,001,1033,
images/camera01a.jpg,bull,x,sounds/greatgatsby_english.wav,,,,,,,,,0,0,0,0,0,157,157,138,494.82430008,9.62160993367e-06,495.898625015,1.07433487778,,,,x,1,1.05051029532,2018_Nov_14_1534,59.984917177,chinese_cond1,001,1033,
images/tissuebox03.jpg,tissue box,z,sounds/greatgatsby_english.wav,,,,,,,,,0,0,0,0,0,158,158,58,497.023424325,9.30088572204e-06,499.16608221,2.14266814792,,,,z,1,2.13410977169,2018_Nov_14_1534,59.984917177,chinese_cond1,001,1033,
images/fryingpan01.jpg,frying pan,z,sounds/greatgatsby_english.wav,,,,,,,,,0,0,0,0,0,159,159,45,500.266024545,9.30076930672e-06,502.416883847,2.15086956439,,,,z,1,2.13411522401,2018_Nov_14_1534,59.984917177,chinese_cond1,001,1033,
images/nametag01a.jpg,name tag,z,sounds/greatgatsby_english.wav,,,,,,,,,0,0,0,0,0,160,160,108,503.537127349,9.30088572204e-06,506.534387771,2.99727068457,,,,None,0,,2018_Nov_14_1534,59.984917177,chinese_cond1,001,1033,
images/doorhandle.jpg,doll,x,sounds/greatgatsby_english.wav,,,,,,,,,0,0,0,0,0,161,161,168,507.636269812,9.30076930672e-06,509.418604181,1.78234431194,,,,x,1,1.76737092203,2018_Nov_14_1534,59.984917177,chinese_cond1,001,1033,
images/dryingmachine01.jpg,drying machine,z,sounds/greatgatsby_english.wav,,,,,,,,,0,0,0,0,0,162,162,18,510.539155894,9.62149351835e-06,512.169262136,1.6301155421,,,,z,1,1.6173307359,2018_Nov_14_1534,59.984917177,chinese_cond1,001,1033,
images/battery03b.jpg,battery,z,sounds/greatgatsby_english.wav,,,,,,,,,0,0,0,0,0,163,163,34,513.277058869,9.30076930672e-06,514.669856427,1.3928075002,,,,z,1,1.38392808463,2018_Nov_14_1534,59.984917177,chinese_cond1,001,1033,
images/egg01b (1).jpg,egg,z,sounds/greatgatsby_english.wav,,,,,,,,,0,0,0,0,0,164,164,19,515.781419359,9.30088572204e-06,516.753707988,0.972298571141,,,,z,1,0.950498685357,2018_Nov_14_1534,59.984917177,chinese_cond1,001,1033,
images/binder03b.jpg,dj mixer,x,sounds/greatgatsby_english.wav,,,,,,,,,0,0,0,0,0,165,165,167,517.865607996,9.62160993367e-06,519.037610351,1.17201325984,,,,z,0,1.15055590158,2018_Nov_14_1534,59.984917177,chinese_cond1,001,1033,
images/baseball01a.jpg,baseball,z,sounds/greatgatsby_english.wav,,,,,,,,,0,0,0,0,0,166,166,74,520.170073874,8.98004509509e-06,522.621790328,2.45172671694,,,,z,1,2.4341789186,2018_Nov_14_1534,59.984917177,chinese_cond1,001,1033,
images/screwdriver02b.jpg,cola,x,sounds/greatgatsby_english.wav,,,,,,,,,0,0,0,0,0,167,167,158,523.71487185,9.62149351835e-06,524.705639003,0.990777415456,,,,x,1,0.967148150899,2018_Nov_14_1534,59.984917177,chinese_cond1,001,1033,
images/hand01a.jpg,cupcake,x,sounds/greatgatsby_english.wav,,,,,,,,,0,0,0,0,0,168,168,163,525.816019125,9.62149351835e-06,526.739466478,0.923458257457,,,,x,1,0.900479089469,2018_Nov_14_1534,59.984917177,chinese_cond1,001,1033,
images/bracelet02a.jpg,chess knight,x,sounds/greatgatsby_english.wav,,,,,,,,,0,0,0,0,0,169,169,152,527.847584572,9.94233414531e-06,529.706871204,1.85929721571,,,,x,1,1.85072633147,2018_Nov_14_1534,59.984917177,chinese_cond1,001,1033,
images/8ball.jpg,nail clipper,x,sounds/greatgatsby_english.wav,,,,,,,,,0,0,0,0,0,170,170,206,530.823106044,9.62160993367e-06,531.840696819,1.01760103763,,,,x,1,1.00048973737,2018_Nov_14_1534,59.984917177,chinese_cond1,001,1033,
images/bus.jpg,microphone,x,sounds/greatgatsby_english.wav,,,,,,,,,0,0,0,0,0,171,171,203,532.958448979,9.62149351835e-06,535.958219665,2.99978062848,,,,None,0,,2018_Nov_14_1534,59.984917177,chinese_cond1,001,1033,
images/key03b.jpg,cigar,x,sounds/greatgatsby_english.wav,,,,,,,,,0,0,0,0,0,172,172,153,537.059189582,9.62160993367e-06,538.108904175,1.04972453474,,,,x,1,1.03384639753,2018_Nov_14_1534,59.984917177,chinese_cond1,001,1033,
images/atm.jpg,atm,z,sounds/greatgatsby_english.wav,,,,,,,,,0,0,0,0,0,173,173,96,539.246937939,9.30076930672e-06,540.109387498,0.862459821976,,,,z,1,0.850466549397,2018_Nov_14_1534,59.984917177,chinese_cond1,001,1033,
images/apple06.jpg,apple,z,sounds/greatgatsby_english.wav,,,,,,,,,0,0,0,0,0,174,174,13,541.23565602,9.62160993367e-06,541.9766674,0.741028377786,,,,z,1,0.717211492709,2018_Nov_14_1534,59.984917177,chinese_cond1,001,1033,
images/paintbrush03a.jpg,paint brush,z,sounds/greatgatsby_english.wav,,,,,,,,,0,0,0,0,0,175,175,0,543.075880741,9.30088572204e-06,543.977026926,0.901156126405,,,,z,1,0.883838283364,2018_Nov_14_1534,59.984917177,chinese_cond1,001,1033,
images/kiwi03.jpg,backpack,x,sounds/greatgatsby_english.wav,,,,,,,,,0,0,0,0,0,176,176,125,545.107722006,9.62160993367e-06,546.34424557,1.23653350642,,,,x,1,1.21713580319,2018_Nov_14_1534,59.984917177,chinese_cond1,001,1033,
images/ruler02b.jpg,watermelon,x,sounds/greatgatsby_english.wav,,,,,,,,,0,0,0,0,0,177,177,238,547.445225751,8.98016151041e-06,550.228554669,2.78333950182,,,,x,1,2.76762685541,2018_Nov_14_1534,59.984917177,chinese_cond1,001,1033,
images/gps.jpg,gps,z,sounds/greatgatsby_english.wav,,,,,,,,,0,0,0,0,0,178,178,21,551.345763532,3.36754601449e-05,553.112567744,1.76683147321,,,,z,1,1.75069259189,2018_Nov_14_1534,59.984917177,chinese_cond1,001,1033,
images/gamecontroller01.jpg,game controller,z,sounds/greatgatsby_english.wav,,,,,,,,,0,0,0,0,0,179,179,112,554.232011374,9.30088572204e-06,554.97966195,0.747660518158,,,,z,1,0.733741009491,2018_Nov_14_1534,59.984917177,chinese_cond1,001,1033,
images/redfox.jpg,red fox,z,sounds/greatgatsby_english.wav,,,,,,,,,0,0,0,0,0,180,180,1,556.091213015,9.62149351835e-06,556.980157139,0.888954065973,,,,z,1,0.867133333697,2018_Nov_14_1534,59.984917177,chinese_cond1,001,1033,
images/lantern03.jpg,lantern,z,sounds/greatgatsby_english.wav,,,,,,,,,0,0,0,0,0,181,181,5,558.087808587,9.30088572204e-06,560.030907011,1.94310836634,,,,x,0,1.93406217708,2018_Nov_14_1534,59.984917177,chinese_cond1,001,1033,
images/birthdaycandle.jpg,birthday candle,z,sounds/greatgatsby_english.wav,,,,,,,,,0,0,0,0,0,182,182,55,561.126214962,9.62160993367e-06,562.36486008,1.23870541295,,,,z,1,1.21722720796,2018_Nov_14_1534,59.984917177,chinese_cond1,001,1033,
,,,sounds/greatgatsby_english.wav,,,,,,,,,0,0,0,0,,,,,,,,,,,,,,,2018_Nov_14_1534,59.984917177,chinese_cond1,001,1033,
images/lantern03.jpg,lantern,z,sounds/animalfarm_chinese.wav,,,,,,,,,0,1,1,1,0,0,0,5,583.49712155,1.02629419416e-05,585.103686725,1.60657575785,,,573.36763622,z,1,1.58398081071,2018_Nov_14_1534,59.984917177,chinese_cond1,001,1033,
images/cocktailshrimp01.jpg,cocktail shrimp,z,sounds/animalfarm_chinese.wav,,,,,,,,,0,1,1,1,0,1,1,30,586.215490517,9.62149351835e-06,587.070808897,0.855328322854,,,,z,1,0.833777635475,2018_Nov_14_1534,59.984917177,chinese_cond1,001,1033,
images/masquerademask02b.jpg,mirror,x,sounds/animalfarm_chinese.wav,,,,,,,,,0,1,1,1,0,2,2,204,588.173564255,9.62160993367e-06,590.238276291,2.06472197874,,,,x,1,2.05077809538,2018_Nov_14_1534,59.984917177,chinese_cond1,001,1033,
images/baseball01a.jpg,baseball,z,sounds/animalfarm_chinese.wav,,,,,,,,,0,1,1,1,0,3,3,74,591.368022686,9.62160993367e-06,592.022076666,0.654063601163,,,,z,1,0.633793222485,2018_Nov_14_1534,59.984917177,chinese_cond1,001,1033,
images/cigar.jpg,crocodile,x,sounds/animalfarm_chinese.wav,,,,,,,,,0,1,1,1,0,4,4,162,593.118202449,9.30088572204e-06,594.039182835,0.920990327722,,,,x,1,0.900472995825,2018_Nov_14_1534,59.984917177,chinese_cond1,001,1033,
images/dryingmachine01.jpg,drying machine,z,sounds/animalfarm_chinese.wav,,,,,,,,,0,1,1,1,0,5,5,18,595.15794141,9.30088572204e-06,596.223316051,1.06538490404,,,,z,1,1.05077585042,2018_Nov_14_1534,59.984917177,chinese_cond1,001,1033,
images/cola.jpg,comb,x,sounds/animalfarm_chinese.wav,,,,,,,,,0,1,1,1,0,6,6,157,597.341704838,9.62149351835e-06,598.290286908,0.948651025421,,,,x,1,0.933812337345,2018_Nov_14_1534,59.984917177,chinese_cond1,001,1033,
images/grasshopper.jpg,cauliflower,x,sounds/animalfarm_chinese.wav,,,,,,,,,0,1,1,1,0,7,7,148,599.381500565,9.30088572204e-06,600.724139015,1.34264775028,,,,x,1,1.33390656451,2018_Nov_14_1534,59.984917177,chinese_cond1,001,1033,
images/flower01.jpg,bus,x,sounds/animalfarm_chinese.wav,,,,,,,,,0,1,1,1,0,8,8,140,601.836768337,9.94233414531e-06,604.691783317,2.8550249231,,,,x,1,2.83428982319,2018_Nov_14_1534,59.984917177,chinese_cond1,001,1033,
images/apple06.jpg,apple,z,sounds/animalfarm_chinese.wav,,,,,,,,,0,1,1,1,0,9,9,13,605.817169863,9.30088572204e-06,607.159043078,1.3418837986,,,,z,1,1.33391778951,2018_Nov_14_1534,59.984917177,chinese_cond1,001,1033,
images/lamp04b.jpg,parking meter,x,sounds/animalfarm_chinese.wav,,,,,,,,,0,1,1,1,0,10,10,209,608.278228209,9.30076930672e-06,610.443196885,2.16497893829,,,,x,1,2.15078681894,2018_Nov_14_1534,59.984917177,chinese_cond1,001,1033,
images/peach01.jpg,peach,z,sounds/animalfarm_chinese.wav,,,,,,,,,0,1,1,1,0,11,11,106,611.569652707,9.30076930672e-06,612.310293015,0.740649929852,,,,z,1,0.717089298996,2018_Nov_14_1534,59.984917177,chinese_cond1,001,1033,
images/safe.jpg,safe,z,sounds/animalfarm_chinese.wav,,,,,,,,,0,1,1,1,0,12,12,78,613.419104502,9.94233414531e-06,614.944275461,1.52518154285,,,,z,1,1.50062347692,2018_Nov_14_1534,59.984917177,chinese_cond1,001,1033,
images/cherry01.jpg,highlighter,x,sounds/animalfarm_chinese.wav,,,,,,,,,0,1,1,1,0,13,13,187,616.050709782,9.62160993367e-06,617.928362366,1.87766316719,,,,x,1,1.86740081292,2018_Nov_14_1534,59.984917177,chinese_cond1,001,1033,
images/fryingpan01.jpg,frying pan,z,sounds/animalfarm_chinese.wav,,,,,,,,,0,1,1,1,0,14,14,45,619.027207843,9.62160993367e-06,621.9293149,2.90211667866,,,,x,0,2.88430140109,2018_Nov_14_1534,59.984917177,chinese_cond1,001,1033,
images/parkbench03.jpg,park bench,z,sounds/animalfarm_chinese.wav,,,,,,,,,0,1,1,1,0,15,15,71,623.032310476,9.30088572204e-06,624.163186763,1.13088590815,,,,z,1,1.11719410983,2018_Nov_14_1534,59.984917177,chinese_cond1,001,1033,
images/mushroom01.jpg,shower head,x,sounds/animalfarm_chinese.wav,,,,,,,,,0,1,1,1,0,16,16,222,625.277404925,9.62149351835e-06,627.147071935,1.86967695295,,,,x,1,1.85053197597,2018_Nov_14_1534,59.984917177,chinese_cond1,001,1033,
images/fireextinguisher02.jpg,fire extinguisher,z,sounds/animalfarm_chinese.wav,,,,,,,,,0,1,1,1,0,17,17,175,628.256086758,9.30088572204e-06,629.681208262,1.42513144657,,,,z,1,1.40060962201,2018_Nov_14_1534,59.984917177,chinese_cond1,001,1033,
images/battery03b.jpg,battery,z,sounds/animalfarm_chinese.wav,,,,,,,,,0,1,1,1,0,18,18,34,630.788151243,1.02630583569e-05,631.798373187,1.01023220667,,,,z,1,1.00049807597,2018_Nov_14_1534,59.984917177,chinese_cond1,001,1033,
images/ceilingfan02.jpg,paper clip,x,sounds/animalfarm_chinese.wav,,,,,,,,,0,1,1,1,0,19,19,208,632.894591979,9.30076930672e-06,633.948902148,1.05432011175,,,,x,1,1.03384703898,2018_Nov_14_1534,59.984917177,chinese_cond1,001,1033,
images/gluestick.jpg,squirrel,x,sounds/animalfarm_chinese.wav,,,,,,,,,0,1,1,1,0,20,20,226,635.054662639,9.30076930672e-06,636.116086027,1.06143332995,,,,x,1,1.05050612602,2018_Nov_14_1534,59.984917177,chinese_cond1,001,1033,
images/marker01a.jpg,marker,z,sounds/animalfarm_chinese.wav,,,,,,,,,0,1,1,1,0,21,21,95,637.21219385,9.30088572204e-06,638.149950064,0.937765835668,,,,z,1,0.917174097034,2018_Nov_14_1534,59.984917177,chinese_cond1,001,1033,
images/medal01.jpg,medal,z,sounds/animalfarm_chinese.wav,,,,,,,,,0,1,1,1,0,22,22,115,639.248985727,9.94233414531e-06,640.133722985,0.88474816212,,,,z,1,0.867116976995,2018_Nov_14_1534,59.984917177,chinese_cond1,001,1033,
images/snowman.jpg,globe,x,sounds/animalfarm_chinese.wav,,,,,,,,,0,1,1,1,0,23,23,180,641.242597333,9.30088572204e-06,642.317595778,1.07500774541,,,,x,1,1.05050356034,2018_Nov_14_1534,59.984917177,chinese_cond1,001,1033,
images/puma.jpg,puma,z,sounds/animalfarm_chinese.wav,,,,,,,,,0,1,1,1,0,24,24,4,643.414385128,9.62149351835e-06,644.284759323,0.870384137495,,,,z,1,0.850462059374,2018_Nov_14_1534,59.984917177,chinese_cond1,001,1033,
images/blackolive.jpg,tank,x,sounds/animalfarm_chinese.wav,,,,,,,,,0,1,1,1,0,25,25,229,645.397595508,9.62149351835e-06,647.185458746,1.78787382157,,,,x,1,1.76736162114,2018_Nov_14_1534,59.984917177,chinese_cond1,001,1033,
images/pepper05a.jpg,lighter,x,sounds/animalfarm_chinese.wav,,,,,,,,,0,1,1,1,0,26,26,198,648.304669535,9.62160993367e-06,649.469346356,1.16468676378,,,,x,1,1.15052767843,2018_Nov_14_1534,59.984917177,chinese_cond1,001,1033,
images/giraffe.jpg,lettuce,x,sounds/animalfarm_chinese.wav,,,,,,,,,0,1,1,1,0,27,27,195,650.568422751,9.94221772999e-06,651.386468176,0.818055367563,,,,x,1,0.800440859864,2018_Nov_14_1534,59.984917177,chinese_cond1,001,1033,
images/kiwi03.jpg,backpack,x,sounds/animalfarm_chinese.wav,,,,,,,,,0,1,1,1,0,28,28,125,652.512726435,9.30076930672e-06,654.187155668,1.67443949613,,,,x,1,1.6506521171,2018_Nov_14_1534,59.984917177,chinese_cond1,001,1033,
images/axe01.jpg,axe,z,sounds/animalfarm_chinese.wav,,,,,,,,,0,1,1,1,0,29,29,104,655.289385689,9.30088572204e-06,656.771112425,1.48173699924,,,,z,1,1.46727130678,2018_Nov_14_1534,59.984917177,chinese_cond1,001,1033,
images/corn01.jpg,corn,z,sounds/animalfarm_chinese.wav,,,,,,,,,0,1,1,1,0,30,30,22,657.869094528,8.98004509509e-06,658.804941183,0.935856918455,,,,z,1,0.917132403469,2018_Nov_14_1534,59.984917177,chinese_cond1,001,1033,
images/ladybug03.jpg,giraffe,x,sounds/animalfarm_chinese.wav,,,,,,,,,0,1,1,1,0,31,31,178,659.906113474,9.30076930672e-06,661.272208642,1.36610446824,,,,x,1,1.35057366942,2018_Nov_14_1534,59.984917177,chinese_cond1,001,1033,
images/tape01a.jpg,tie,x,sounds/animalfarm_chinese.wav,,,,,,,,,0,1,1,1,0,32,32,232,662.395809426,9.94233414531e-06,663.172674261,0.776874776697,,,,x,1,0.767104725586,2018_Nov_14_1534,59.984917177,chinese_cond1,001,1033,
images/bandaid01.jpg,door handle,x,sounds/animalfarm_chinese.wav,,,,,,,,,0,1,1,1,0,33,33,170,664.278055342,1.02630583569e-05,665.256347502,0.978302744334,,,,x,1,0.966979452875,2018_Nov_14_1534,59.984917177,chinese_cond1,001,1033,
images/apricot.jpg,apricot,z,sounds/animalfarm_chinese.wav,,,,,,,,,0,1,1,1,0,34,34,32,666.371302676,8.65932088345e-06,667.773799727,1.40250731399,,,,x,0,1.38392167026,2018_Nov_14_1534,59.984917177,chinese_cond1,001,1033,
images/dreamcatcher.jpg,dream catcher,z,sounds/animalfarm_chinese.wav,,,,,,,,,0,1,1,1,0,35,35,48,668.87217952,9.30088572204e-06,671.491416287,2.61924702977,,,,z,1,2.60092629946,2018_Nov_14_1534,59.984917177,chinese_cond1,001,1033,
images/comb02a.jpg,diploma,x,sounds/animalfarm_chinese.wav,,,,,,,,,0,1,1,1,0,36,36,166,672.593521869,9.94221772999e-06,673.591880752,0.998369787238,,,,x,1,0.983825198142,2018_Nov_14_1534,59.984917177,chinese_cond1,001,1033,
images/tulip02.jpg,sport shorts,x,sounds/animalfarm_chinese.wav,,,,,,,,,0,1,1,1,0,37,37,225,674.685868625,1.05837825686e-05,675.659048531,0.973190810299,,,,x,1,0.950477197301,2018_Nov_14_1534,59.984917177,chinese_cond1,001,1033,
images/envelope02a.jpg,grand piano,x,sounds/animalfarm_chinese.wav,,,,,,,,,0,1,1,1,0,38,38,182,676.780539308,9.94233414531e-06,677.892946371,1.11241668533,,,,x,1,1.10053919221,2018_Nov_14_1534,59.984917177,chinese_cond1,001,1033,
images/eyedrops.jpg,bicycle,x,sounds/animalfarm_chinese.wav,,,,,,,,,0,1,1,1,0,39,39,131,678.992587872,9.30088572204e-06,679.993443549,1.00086561963,,,,x,1,0.983831291785,2018_Nov_14_1534,59.984917177,chinese_cond1,001,1033,
images/doorhandle.jpg,doll,x,sounds/animalfarm_chinese.wav,,,,,,,,,0,1,1,1,0,40,40,168,681.094495891,9.30076930672e-06,683.044181876,1.9496956059,,,,x,1,1.93405415909,2018_Nov_14_1534,59.984917177,chinese_cond1,001,1033,
images/lily.jpg,kiwi,x,sounds/animalfarm_chinese.wav,,,,,,,,,0,1,1,1,0,41,41,190,684.141486621,9.94221772999e-06,684.877961435,0.736485719332,,,,x,1,0.717097637709,2018_Nov_14_1534,59.984917177,chinese_cond1,001,1033,
images/plant01.jpg,plant,z,sounds/animalfarm_chinese.wav,,,,,,,,,0,1,1,1,0,42,42,47,685.987988126,9.62149351835e-06,686.928456978,0.940478794393,,,,z,1,0.917143307975,2018_Nov_14_1534,59.984917177,chinese_cond1,001,1033,
images/cloud.jpg,ceiling fan,x,sounds/animalfarm_chinese.wav,,,,,,,,,0,1,1,1,0,43,43,149,688.031973722,9.94221772999e-06,690.229263136,2.19729999825,,,,x,1,2.18412199104,2018_Nov_14_1534,59.984917177,chinese_cond1,001,1033,
images/sock03.jpg,sock,z,sounds/animalfarm_chinese.wav,,,,,,,,,0,1,1,1,0,44,44,90,691.332844665,9.62149351835e-06,692.446497721,1.11366299784,,,,z,1,1.10049397079,2018_Nov_14_1534,59.984917177,chinese_cond1,001,1033,
images/bowl02b (1).jpg,bowl,z,sounds/animalfarm_chinese.wav,,,,,,,,,0,1,1,1,0,45,45,24,693.561853792,9.94221772999e-06,694.563647251,1.00180372142,,,,z,1,0.983820708003,2018_Nov_14_1534,59.984917177,chinese_cond1,001,1033,
images/mitten01.jpg,mitten,z,sounds/animalfarm_chinese.wav,,,,,,,,,0,1,1,1,0,46,46,102,695.682183568,9.62160993367e-06,697.047586304,1.36541235761,,,,x,0,1.35057591437,2018_Nov_14_1534,59.984917177,chinese_cond1,001,1033,
images/broadsword.jpg,teapot,x,sounds/animalfarm_chinese.wav,,,,,,,,,0,1,1,1,0,47,47,231,698.138680653,9.94233414531e-06,699.198126811,1.0594567412,,,,x,1,1.05051735125,2018_Nov_14_1534,59.984917177,chinese_cond1,001,1033,
images/ladder.jpg,ladder,z,sounds/animalfarm_chinese.wav,,,,,,,,,0,1,1,1,0,48,48,113,700.288791718,9.30088572204e-06,701.148586048,0.859804271837,,,,z,1,0.850463983603,2018_Nov_14_1534,59.984917177,chinese_cond1,001,1033,
images/beermug01b.jpg,beer mug,z,sounds/animalfarm_chinese.wav,,,,,,,,,0,1,1,1,0,49,49,111,702.263580349,9.30088572204e-06,703.465820376,1.20224996936,,,,z,1,1.18387086841,2018_Nov_14_1534,59.984917177,chinese_cond1,001,1033,
images/gorilla.jpg,gorilla,z,sounds/animalfarm_chinese.wav,,,,,,,,,0,1,1,1,0,50,50,80,704.575247964,9.94221772999e-06,705.432970451,0.857732750243,,,,z,1,0.833793992177,2018_Nov_14_1534,59.984917177,chinese_cond1,001,1033,
images/bullet (2).jpg,rubber glove,x,sounds/animalfarm_chinese.wav,,,,,,,,,0,1,1,1,0,51,51,217,706.536274558,9.62149351835e-06,708.717097638,2.18083302164,,,,x,1,2.1674462267,2018_Nov_14_1534,59.984917177,chinese_cond1,001,1033,
images/djmixer01.jpg,light bulb,x,sounds/animalfarm_chinese.wav,,,,,,,,,0,1,1,1,0,52,52,196,709.836580075,9.94221772999e-06,710.900962412,1.06439227983,,,,x,1,1.05050708819,2018_Nov_14_1534,59.984917177,chinese_cond1,001,1033,
images/flashlight05.jpg,flash light,z,sounds/animalfarm_chinese.wav,,,,,,,,,0,1,1,1,0,53,53,8,712.00207986,9.62149351835e-06,713.001469533,0.999399935477,,,,z,1,0.983812048566,2018_Nov_14_1534,59.984917177,chinese_cond1,001,1033,
images/chameleon.jpg,50 dollar bill,x,sounds/animalfarm_chinese.wav,,,,,,,,,0,1,1,1,0,54,54,120,714.109610077,9.94233414531e-06,715.302034511,1.19243533828,,,,x,1,1.18388016918,2018_Nov_14_1534,59.984917177,chinese_cond1,001,1033,
images/electricguitar02.jpg,electric guitar,z,sounds/animalfarm_chinese.wav,,,,,,,,,0,1,1,1,0,55,55,100,716.401766454,9.94233414531e-06,717.469220955,1.06746508507,,,,z,1,1.05049842875,2018_Nov_14_1534,59.984917177,chinese_cond1,001,1033,
images/ashtray02b.jpg,ashtray,z,sounds/animalfarm_chinese.wav,,,,,,,,,0,1,1,1,0,56,56,43,718.58160621,9.62149351835e-06,720.053195031,1.47159908374,,,,z,1,1.45061061624,2018_Nov_14_1534,59.984917177,chinese_cond1,001,1033,
images/sunglasses03a.jpg,sun glasses,z,sounds/animalfarm_chinese.wav,,,,,,,,,0,1,1,1,0,57,57,17,721.159532495,9.94221772999e-06,722.003665814,0.844143902534,,,,z,1,0.833793992177,2018_Nov_14_1534,59.984917177,chinese_cond1,001,1033,
images/redfox.jpg,red fox,z,sounds/animalfarm_chinese.wav,,,,,,,,,0,1,1,1,0,58,58,1,723.114288399,9.30076930672e-06,723.770760276,0.656481177895,,,,z,1,0.6337387003,2018_Nov_14_1534,59.984917177,chinese_cond1,001,1033,
images/candy.jpg,candy,z,sounds/animalfarm_chinese.wav,,,,,,,,,0,1,1,1,0,59,59,31,724.870716402,9.62149351835e-06,726.988216157,2.11750969687,,,,z,1,2.10076433665,2018_Nov_14_1534,59.984917177,chinese_cond1,001,1033,
images/crocodile.jpg,triangle ruler,x,sounds/animalfarm_chinese.wav,,,,,,,,,0,1,1,1,0,60,60,235,728.085169394,9.94221772999e-06,731.055860844,2.97070203372,,,,x,1,2.95096116164,2018_Nov_14_1534,59.984917177,chinese_cond1,001,1033,
images/hanger02a.jpg,hanger,z,sounds/animalfarm_chinese.wav,,,,,,,,,0,1,1,1,0,61,61,88,732.147293552,9.62160993367e-06,733.923241772,1.77595784224,,,,z,1,1.76736130042,2018_Nov_14_1534,59.984917177,chinese_cond1,001,1033,
images/swallow.jpg,mattress,x,sounds/animalfarm_chinese.wav,,,,,,,,,0,1,1,1,0,62,62,202,735.023080194,9.62149351835e-06,736.707240672,1.68417074031,,,,x,1,1.66731601499,2018_Nov_14_1534,59.984917177,chinese_cond1,001,1033,
images/cat.jpg,black olive,x,sounds/animalfarm_chinese.wav,,,,,,,,,0,1,1,1,0,63,63,133,737.837673725,9.30076930672e-06,739.007800518,1.17013705592,,,,x,1,1.15052511252,2018_Nov_14_1534,59.984917177,chinese_cond1,001,1033,
images/mirror02.jpg,8 ball,x,sounds/animalfarm_chinese.wav,,,,,,,,,0,1,1,1,0,64,64,121,740.107356387,9.30076930672e-06,741.358371942,1.25102517707,,,,x,1,1.23387923918,2018_Nov_14_1534,59.984917177,chinese_cond1,001,1033,
images/parrot01.jpg,chameleon,x,sounds/animalfarm_chinese.wav,,,,,,,,,0,1,1,1,0,65,65,150,742.47125816,9.62149351835e-06,744.342446339,1.87119972496,,,,z,0,1.85070548474,2018_Nov_14_1534,59.984917177,chinese_cond1,001,1033,
images/teapot.jpg,light switch,x,sounds/animalfarm_chinese.wav,,,,,,,,,0,1,1,1,0,66,66,197,745.458924926,9.62160993367e-06,748.293400765,2.83448642376,,,,x,1,2.81760892726,2018_Nov_14_1534,59.984917177,chinese_cond1,001,1033,
images/bat.jpg,hand,x,sounds/animalfarm_chinese.wav,,,,,,,,,0,1,1,1,0,67,67,185,749.39134823,1.05837825686e-05,750.277212814,0.885874846601,,,,x,1,0.867126919329,2018_Nov_14_1534,59.984917177,chinese_cond1,001,1033,
images/bowtie.jpg,bowtie,z,sounds/animalfarm_chinese.wav,,,,,,,,,0,1,1,1,0,68,68,89,751.387072731,9.94221772999e-06,752.561106197,1.17404437077,,,,z,1,1.15053377207,2018_Nov_14_1534,59.984917177,chinese_cond1,001,1033,
images/cake.jpg,cake,z,sounds/animalfarm_chinese.wav,,,,,,,,,0,1,1,1,0,69,69,23,753.674896841,9.62149351835e-06,755.361797217,1.6869106394,,,,z,1,1.66733012663,2018_Nov_14_1534,59.984917177,chinese_cond1,001,1033,
images/lemon02.jpg,lemon,z,sounds/animalfarm_chinese.wav,,,,,,,,,0,1,1,1,0,70,70,14,756.473931991,9.62160993367e-06,757.412286666,0.938365258742,,,,z,1,0.917141383747,2018_Nov_14_1534,59.984917177,chinese_cond1,001,1033,
images/drink.jpg,drink,z,sounds/animalfarm_chinese.wav,,,,,,,,,0,1,1,1,0,71,71,117,758.512165819,9.30076930672e-06,759.479456048,0.967300171382,,,,z,1,0.950481045875,2018_Nov_14_1534,59.984917177,chinese_cond1,001,1033,
images/charcoalbarbecue.jpg,charcoal barbecue,z,sounds/animalfarm_chinese.wav,,,,,,,,,0,1,1,1,0,72,72,77,760.596038227,9.62160993367e-06,761.663319219,1.06729125557,,,,z,1,1.05051029532,2018_Nov_14_1534,59.984917177,chinese_cond1,001,1033,
images/bracelet02a.jpg,chess knight,x,sounds/animalfarm_chinese.wav,,,,,,,,,0,1,1,1,0,73,73,152,762.771959122,1.02630583569e-05,764.514008027,1.74205916747,,,,x,1,1.73400015011,2018_Nov_14_1534,59.984917177,chinese_cond1,001,1033,
images/pingpongpaddle01c (1).jpg,ping pong paddle,z,sounds/animalfarm_chinese.wav,,,,,,,,,0,1,1,1,0,74,74,10,765.624417014,8.98016151041e-06,766.88126163,1.25685423799,,,,z,1,1.23388853995,2018_Nov_14_1534,59.984917177,chinese_cond1,001,1033,
images/radish01.jpg,raisin,x,sounds/animalfarm_chinese.wav,,,,,,,,,0,1,1,1,0,75,75,214,767.992133414,9.30076930672e-06,768.94842524,0.956302088685,,,,z,0,0.933812978794,2018_Nov_14_1534,59.984917177,chinese_cond1,001,1033,
images/hammer02a.jpg,flower,x,sounds/animalfarm_chinese.wav,,,,,,,,,0,1,1,1,0,76,76,176,770.043432035,9.62160993367e-06,771.832463331,1.78904187877,,,,x,1,1.76735937619,2018_Nov_14_1534,59.984917177,chinese_cond1,001,1033,
images/stapler03a.jpg,candy cane,x,sounds/animalfarm_chinese.wav,,,,,,,,,0,1,1,1,0,77,77,145,772.943003812,9.30088572204e-06,774.216386284,1.2733927347,,,,x,1,1.25056687021,2018_Nov_14_1534,59.984917177,chinese_cond1,001,1033,
images/ostrich.jpg,ostrich,z,sounds/animalfarm_chinese.wav,,,,,,,,,0,1,1,1,0,78,78,76,775.316763834,8.98016151041e-06,776.450256543,1.13350200991,,,,z,1,1.11719410983,2018_Nov_14_1534,59.984917177,chinese_cond1,001,1033,
images/pouch01b.jpg,pouch,z,sounds/animalfarm_chinese.wav,,,,,,,,,0,1,1,1,0,79,79,25,777.562278744,9.62149351835e-06,778.917520473,1.35525199177,,,,z,1,1.33391201659,2018_Nov_14_1534,59.984917177,chinese_cond1,001,1033,
images/triangleruler02.jpg,bottle of red wine,x,sounds/animalfarm_chinese.wav,,,,,,,,,0,1,1,1,0,80,80,134,780.028315284,9.30088572204e-06,781.168065855,1.13976115442,,,,x,1,1.11717165948,2018_Nov_14_1534,59.984917177,chinese_cond1,001,1033,
images/highheelshoe02a.jpg,high heel shoe,z,sounds/animalfarm_chinese.wav,,,,,,,,,0,1,1,1,0,81,81,75,782.274557585,9.62149351835e-06,783.051867256,0.777319613378,,,,x,0,0.767110177781,2018_Nov_14_1534,59.984917177,chinese_cond1,001,1033,
images/magnifyingglass01b.jpg,magnifying glass,z,sounds/animalfarm_chinese.wav,,,,,,,,,0,1,1,1,0,82,82,64,784.157991121,9.62149351835e-06,786.019258191,1.86127765314,,,,z,1,1.85071125766,2018_Nov_14_1534,59.984917177,chinese_cond1,001,1033,
images/grandpiano.jpg,tulip,x,sounds/animalfarm_chinese.wav,,,,,,,,,0,1,1,1,0,83,83,236,787.134115865,9.62149351835e-06,788.519862104,1.38575682207,,,,x,1,1.36725937598,2018_Nov_14_1534,59.984917177,chinese_cond1,001,1033,
images/diploma01.jpg,glasses,x,sounds/animalfarm_chinese.wav,,,,,,,,,0,1,1,1,0,84,84,179,789.650282649,9.62160993367e-06,790.603694422,0.953422035556,,,,x,1,0.933803357184,2018_Nov_14_1534,59.984917177,chinese_cond1,001,1033,
images/headphones02b.jpg,headphones,z,sounds/animalfarm_chinese.wav,,,,,,,,,0,1,1,1,0,85,85,101,791.711583522,9.62160993367e-06,792.654190606,0.942616704735,,,,z,1,0.933786038309,2018_Nov_14_1534,59.984917177,chinese_cond1,001,1033,
images/electrictoothbrush01a.jpg,banjo,x,sounds/animalfarm_chinese.wav,,,,,,,,,0,1,1,1,0,86,86,127,793.74883948,9.62149351835e-06,795.054776174,1.30594727769,,,,x,1,1.28389562794,2018_Nov_14_1534,59.984917177,chinese_cond1,001,1033,
images/hairpin.jpg,hair pin,z,sounds/animalfarm_chinese.wav,,,,,,,,,0,1,1,1,0,87,87,28,796.145251857,9.94233414531e-06,797.055264307,0.910022392636,,,,z,1,0.900474599446,2018_Nov_14_1534,59.984917177,chinese_cond1,001,1033,
images/bull.jpg,button,x,sounds/animalfarm_chinese.wav,,,,,,,,,0,1,1,1,0,88,88,141,798.161159821,9.62149351835e-06,799.455857893,1.29470801458,,,,x,1,1.28390108002,2018_Nov_14_1534,59.984917177,chinese_cond1,001,1033,
images/handbag02a.jpg,candle,x,sounds/animalfarm_chinese.wav,,,,,,,,,0,1,1,1,0,89,89,144,800.57185027,8.98016151041e-06,801.523022144,0.951182136778,,,,x,1,0.933782189735,2018_Nov_14_1534,59.984917177,chinese_cond1,001,1033,
images/umbrella01.jpg,umbrella,z,sounds/animalfarm_chinese.wav,,,,,,,,,0,1,1,1,0,90,90,53,802.635593737,9.94233414531e-06,804.056967644,1.4213841703,,,,z,1,1.40055509971,2018_Nov_14_1534,59.984917177,chinese_cond1,001,1033,
images/aquarium.jpg,computer mouse,x,sounds/animalfarm_chinese.wav,,,,,,,,,0,1,1,1,0,91,91,159,805.192510707,9.62160993367e-06,806.240848455,1.04834768979,,,,x,1,1.03382266441,2018_Nov_14_1534,59.984917177,chinese_cond1,001,1033,
images/watermelon01.jpg,orange,x,sounds/animalfarm_chinese.wav,,,,,,,,,0,1,1,1,0,92,92,207,807.369472976,9.94233414531e-06,809.108214951,1.73875223787,,,,x,1,1.71734747745,2018_Nov_14_1534,59.984917177,chinese_cond1,001,1033,
images/orange.jpg,bat,x,sounds/animalfarm_chinese.wav,,,,,,,,,0,1,1,1,0,93,93,128,810.233092837,9.62160993367e-06,812.642404838,2.40932226391,,,,x,1,2.40085080231,2018_Nov_14_1534,59.984917177,chinese_cond1,001,1033,
images/nailclipper03a.jpg,aquarium,x,sounds/animalfarm_chinese.wav,,,,,,,,,0,1,1,1,0,94,94,123,813.741486364,9.94233414531e-06,815.526451909,1.78497580823,,,,x,1,1.7673693184,2018_Nov_14_1534,59.984917177,chinese_cond1,001,1033,
images/coin01b.jpg,arrow,x,sounds/animalfarm_chinese.wav,,,,,,,,,0,1,1,1,0,95,95,124,816.629102392,9.30088572204e-06,817.810315786,1.18122333626,,,,x,1,1.16719638696,2018_Nov_14_1534,59.984917177,chinese_cond1,001,1033,
images/lettuce.jpg,mushroom,x,sounds/animalfarm_chinese.wav,,,,,,,,,0,1,1,1,0,96,96,205,818.933473979,8.98016151041e-06,821.411195581,2.47773154441,,,,x,1,2.46752114652,2018_Nov_14_1534,59.984917177,chinese_cond1,001,1033,
images/lighter02b.jpg,stapler,x,sounds/animalfarm_chinese.wav,,,,,,,,,0,1,1,1,0,97,97,227,822.512640803,9.30076930672e-06,823.595056187,1.08242500469,,,,x,1,1.06716008158,2018_Nov_14_1534,59.984917177,chinese_cond1,001,1033,
images/thumbtack02a.jpg,thumb tack,z,sounds/animalfarm_chinese.wav,,,,,,,,,0,1,1,1,0,98,98,60,824.705029638,9.62149351835e-06,825.795587425,1.09056772967,,,,z,1,1.0671684203,2018_Nov_14_1534,59.984917177,chinese_cond1,001,1033,
images/croissant02b.jpg,croissant,z,sounds/animalfarm_chinese.wav,,,,,,,,,0,1,1,1,0,99,99,39,826.90896819,8.98004509509e-06,827.912794684,1.00383579463,,,,z,1,0.983817500761,2018_Nov_14_1534,59.984917177,chinese_cond1,001,1033,
images/birthdaycandle.jpg,birthday candle,z,sounds/animalfarm_chinese.wav,,,,,,,,,0,1,1,1,0,100,100,55,829.008856645,9.62149351835e-06,830.396731492,1.38788543164,,,,z,1,1.36724654725,2018_Nov_14_1534,59.984917177,chinese_cond1,001,1033,
images/diaper01a.jpg,camera,x,sounds/animalfarm_chinese.wav,,,,,,,,,0,1,1,1,0,101,101,143,831.516769735,9.30076930672e-06,832.947356284,1.4305968124,,,,x,1,1.41727800982,2018_Nov_14_1534,59.984917177,chinese_cond1,001,1033,
images/tent.jpg,tent,z,sounds/animalfarm_chinese.wav,,,,,,,,,0,1,1,1,0,102,102,11,834.073933979,9.62149351835e-06,834.947816195,0.873892478412,,,,z,1,0.850449230638,2018_Nov_14_1534,59.984917177,chinese_cond1,001,1033,
images/cactus.jpg,cactus,z,sounds/animalfarm_chinese.wav,,,,,,,,,0,1,1,1,0,103,103,70,836.059510622,9.94221772999e-06,836.864960465,0.805460747564,,,,z,1,0.783775679185,2018_Nov_14_1534,59.984917177,chinese_cond1,001,1033,
images/pictureframe04.jpg,picture frame,z,sounds/animalfarm_chinese.wav,,,,,,,,,0,1,1,1,0,104,104,41,837.986517952,9.94233414531e-06,839.799006927,1.81249859685,,,,z,1,1.80067081505,2018_Nov_14_1534,59.984917177,chinese_cond1,001,1033,
images/aloe02.jpg,broad sword,x,sounds/animalfarm_chinese.wav,,,,,,,,,0,1,1,1,0,105,105,137,840.92013016,8.98004509509e-06,841.649452309,0.729331769864,,,,x,1,0.717093468294,2018_Nov_14_1534,59.984917177,chinese_cond1,001,1033,
images/lip.jpg,boxing glove,x,sounds/animalfarm_chinese.wav,,,,,,,,,0,1,1,1,0,106,106,136,842.752064947,9.62160993367e-06,843.866677592,1.11462290876,,,,x,1,1.10052764625,2018_Nov_14_1534,59.984917177,chinese_cond1,001,1033,
images/gps.jpg,gps,z,sounds/animalfarm_chinese.wav,,,,,,,,,0,1,1,1,0,107,107,21,844.985291844,9.94233414531e-06,845.850473926,0.865192023921,,,,z,1,0.850452758488,2018_Nov_14_1534,59.984917177,chinese_cond1,001,1033,
images/lightbulb03b.jpg,treadmill,x,sounds/animalfarm_chinese.wav,,,,,,,,,0,1,1,1,0,108,108,234,846.952715813,9.30088572204e-06,847.984323915,1.03161836544,,,,x,1,1.01715106936,2018_Nov_14_1534,59.984917177,chinese_cond1,001,1033,
images/gamecontroller01.jpg,game controller,z,sounds/animalfarm_chinese.wav,,,,,,,,,0,1,1,1,0,109,109,112,849.104285506,9.62160993367e-06,849.868136221,0.763860977488,,,,z,1,0.750450449297,2018_Nov_14_1534,59.984917177,chinese_cond1,001,1033,
images/scooter.jpg,pen,x,sounds/animalfarm_chinese.wav,,,,,,,,,0,1,1,1,0,110,110,212,850.961029802,1.02629419416e-05,851.935305603,0.974285743665,,,,x,1,0.950487460243,2018_Nov_14_1534,59.984917177,chinese_cond1,001,1033,
images/flamingo.jpg,flamingo,z,sounds/animalfarm_chinese.wav,,,,,,,,,0,1,1,1,0,111,111,52,853.033677058,8.98016151041e-06,854.052496185,1.01882906922,,,,z,1,1.00051122555,2018_Nov_14_1534,59.984917177,chinese_cond1,001,1033,
images/bed.jpg,bed,z,sounds/animalfarm_chinese.wav,,,,,,,,,0,1,1,1,0,112,112,103,855.171882727,9.30088572204e-06,855.836251017,0.664378553163,,,,z,1,0.650416709716,2018_Nov_14_1534,59.984917177,chinese_cond1,001,1033,
images/lipstick04.jpg,lipstick,z,sounds/animalfarm_chinese.wav,,,,,,,,,0,1,1,1,0,113,113,56,856.936250761,9.62160993367e-06,857.786745854,0.850505356328,,,,z,1,0.833816121682,2018_Nov_14_1534,59.984917177,chinese_cond1,001,1033,
images/glasses01b.jpg,calculator,x,sounds/animalfarm_chinese.wav,,,,,,,,,0,1,1,1,0,114,114,142,858.879496074,9.62149351835e-06,859.937246271,1.05776013969,,,,x,1,1.03383966244,2018_Nov_14_1534,59.984917177,chinese_cond1,001,1033,
images/ear.jpg,bullet,x,sounds/animalfarm_chinese.wav,,,,,,,,,0,1,1,1,0,115,115,139,861.040672573,9.62149351835e-06,861.971074709,0.930412399233,,,,x,1,0.917145232321,2018_Nov_14_1534,59.984917177,chinese_cond1,001,1033,
images/squirrel.jpg,binder,x,sounds/animalfarm_chinese.wav,,,,,,,,,0,1,1,1,0,116,116,132,863.075043024,9.30076930672e-06,864.08825599,1.01322322839,,,,x,1,1.00049583102,2018_Nov_14_1534,59.984917177,chinese_cond1,001,1033,
images/butterfly.jpg,butterfly,z,sounds/animalfarm_chinese.wav,,,,,,,,,0,1,1,1,0,117,117,91,865.195955546,1.02630583569e-05,866.772252259,1.57630761794,,,,x,0,1.56729766994,2018_Nov_14_1534,59.984917177,chinese_cond1,001,1033,
images/raisin.jpg,ruler,x,sounds/animalfarm_chinese.wav,,,,,,,,,0,1,1,1,0,118,118,218,867.87721384,9.94221772999e-06,869.539587902,1.6623840041,,,,x,1,1.65065917291,2018_Nov_14_1534,59.984917177,chinese_cond1,001,1033,
images/hat05.jpg,hat,z,sounds/animalfarm_chinese.wav,,,,,,,,,0,1,1,1,0,119,119,15,870.643541785,9.30076930672e-06,871.256659241,0.613127718447,,,,z,1,0.600395189482,2018_Nov_14_1534,59.984917177,chinese_cond1,001,1033,
images/wallet01.jpg,lamp,x,sounds/animalfarm_chinese.wav,,,,,,,,,0,1,1,1,0,120,120,193,872.361797217,9.30076930672e-06,873.423860118,1.06207316357,,,,x,1,1.05050997471,2018_Nov_14_1534,59.984917177,chinese_cond1,001,1033,
images/leek.jpg,donut,x,sounds/animalfarm_chinese.wav,,,,,,,,,0,1,1,1,0,121,121,169,874.525056783,9.94233414531e-06,875.407668959,0.882622759906,,,,x,1,0.867125315708,2018_Nov_14_1534,59.984917177,chinese_cond1,001,1033,
images/corkscrew02a.jpg,masquerade mask,x,sounds/animalfarm_chinese.wav,,,,,,,,,0,1,1,1,0,122,122,201,876.511305973,9.30076930672e-06,878.441582387,1.93028699816,,,,x,1,1.91721707326,2018_Nov_14_1534,59.984917177,chinese_cond1,001,1033,
images/broom02.jpg,broom,z,sounds/animalfarm_chinese.wav,,,,,,,,,0,1,1,1,0,123,123,116,879.534788669,9.94221772999e-06,881.225773076,1.69099467027,,,,z,1,1.66734199319,2018_Nov_14_1534,59.984917177,chinese_cond1,001,1033,
images/saltshaker03c.jpg,salt shaker,z,sounds/animalfarm_chinese.wav,,,,,,,,,0,1,1,1,0,124,124,63,882.337193289,9.94221772999e-06,884.043297654,1.70611494943,,,,z,1,1.68418196542,2018_Nov_14_1534,59.984917177,chinese_cond1,001,1033,
images/ant.jpg,ant,z,sounds/animalfarm_chinese.wav,,,,,,,,,0,1,1,1,0,125,125,98,885.137490146,9.30076930672e-06,885.993596211,0.856115366332,,,,z,1,0.833799123648,2018_Nov_14_1534,59.984917177,chinese_cond1,001,1033,
images/atm.jpg,atm,z,sounds/animalfarm_chinese.wav,,,,,,,,,0,1,1,1,0,126,126,96,887.130731001,1.02630583569e-05,887.927394437,0.796673698933,,,,z,1,0.783769585541,2018_Nov_14_1534,59.984917177,chinese_cond1,001,1033,
images/cupcake.jpg,scissors,x,sounds/animalfarm_chinese.wav,,,,,,,,,0,1,1,1,0,127,127,219,889.046301505,9.30076930672e-06,889.894536173,0.8482442901,,,,x,1,0.833785012132,2018_Nov_14_1534,59.984917177,chinese_cond1,001,1033,
images/licenseplate.jpg,license plate,z,sounds/animalfarm_chinese.wav,,,,,,,,,0,1,1,1,0,128,128,40,891.011440995,9.30088572204e-06,892.778574265,1.76714289107,,,,z,1,1.75068232883,2018_Nov_14_1534,59.984917177,chinese_cond1,001,1033,
images/hand01a.jpg,cupcake,x,sounds/animalfarm_chinese.wav,,,,,,,,,0,1,1,1,0,129,129,163,893.890094221,9.62160993367e-06,895.39587357,1.5057892917,,,,x,1,1.48390313273,2018_Nov_14_1534,59.984917177,chinese_cond1,001,1033,
images/bicycle.jpg,hand bag,x,sounds/animalfarm_chinese.wav,,,,,,,,,0,1,1,1,0,130,130,186,896.505939388,9.62160993367e-06,897.896494481,1.39056567708,,,,x,1,1.3672593761,2018_Nov_14_1534,59.984917177,chinese_cond1,001,1033,
images/cockroach02.jpg,belt,x,sounds/animalfarm_chinese.wav,,,,,,,,,0,1,1,1,0,131,131,129,898.995230273,9.94233414531e-06,900.613810528,1.61859051872,,,,x,1,1.60063701135,2018_Nov_14_1534,59.984917177,chinese_cond1,001,1033,
images/honeycomb.jpg,honey comb,z,sounds/animalfarm_chinese.wav,,,,,,,,,0,1,1,1,0,132,132,59,901.727039915,9.62149351835e-06,903.281305825,1.55428130482,,,,z,1,1.53411259397,2018_Nov_14_1534,59.984917177,chinese_cond1,001,1033,
images/doll.jpg,carrot,x,sounds/animalfarm_chinese.wav,,,,,,,,,0,1,1,1,0,133,133,146,904.392096788,9.62149351835e-06,905.381881258,0.989794733701,,,,x,1,0.967396387015,2018_Nov_14_1534,59.984917177,chinese_cond1,001,1033,
images/pineapple01a.jpg,pineapple,z,sounds/animalfarm_chinese.wav,,,,,,,,,0,1,1,1,0,134,134,51,906.49474278,9.62160993367e-06,908.432391874,1.93765935709,,,,z,1,1.91740052437,2018_Nov_14_1534,59.984917177,chinese_cond1,001,1033,
images/ruler02b.jpg,watermelon,x,sounds/animalfarm_chinese.wav,,,,,,,,,0,1,1,1,0,135,135,238,909.534416315,9.30088572204e-06,910.983002555,1.44859650335,,,,x,1,1.43393324816,2018_Nov_14_1534,59.984917177,chinese_cond1,001,1033,
images/feather03b.jpg,feather,z,sounds/animalfarm_chinese.wav,,,,,,,,,0,1,1,1,0,136,136,114,912.083454832,9.62149351835e-06,913.15019381,1.06674956169,,,,z,1,1.05050676747,2018_Nov_14_1534,59.984917177,chinese_cond1,001,1033,
images/tie01.jpg,bench,x,sounds/animalfarm_chinese.wav,,,,,,,,,0,1,1,1,0,137,137,130,914.24921921,9.62149351835e-06,915.267376053,1.01816710597,,,,x,1,1.00049102015,2018_Nov_14_1534,59.984917177,chinese_cond1,001,1033,
images/8ball.jpg,nail clipper,x,sounds/animalfarm_chinese.wav,,,,,,,,,0,1,1,1,0,138,138,206,916.383103517,9.94221772999e-06,918.018042026,1.63494813011,,,,x,1,1.61729834334,2018_Nov_14_1534,59.984917177,chinese_cond1,001,1033,
images/bottleofredwine02.jpg,pipe,x,sounds/animalfarm_chinese.wav,,,,,,,,,0,1,1,1,0,139,139,213,919.116536316,9.62149351835e-06,919.801815139,0.685288765351,,,,x,1,0.667072589509,2018_Nov_14_1534,59.984917177,chinese_cond1,001,1033,
images/scissors04a.jpg,leek,x,sounds/animalfarm_chinese.wav,,,,,,,,,0,1,1,1,0,140,140,194,920.895349837,9.62160993367e-06,922.235739728,1.34040015424,,,,x,1,1.31724106311,2018_Nov_14_1534,59.984917177,chinese_cond1,001,1033,
images/notebook02b.jpg,notebook,z,sounds/animalfarm_chinese.wav,,,,,,,,,0,1,1,1,0,141,141,7,923.342583927,9.62149351835e-06,924.519638242,1.17706425721,,,,z,1,1.16720761207,2018_Nov_14_1534,59.984917177,chinese_cond1,001,1033,
images/tank.jpg,wallet,x,sounds/animalfarm_chinese.wav,,,,,,,,,0,1,1,1,0,142,142,237,925.623791292,9.62160993367e-06,926.436768401,0.812987051322,,,,x,1,0.800456254394,2018_Nov_14_1534,59.984917177,chinese_cond1,001,1033,
images/cookingpot.jpg,grasshopper,x,sounds/animalfarm_chinese.wav,,,,,,,,,0,1,1,1,0,143,143,183,927.550865331,9.62149351835e-06,929.037408298,1.48655323056,,,,x,1,1.46727355185,2018_Nov_14_1534,59.984917177,chinese_cond1,001,1033,
images/plate01b.jpg,plate,z,sounds/animalfarm_chinese.wav,,,,,,,,,0,1,1,1,0,144,144,3,930.136785527,9.30076930672e-06,930.937858523,0.801083259168,,,,z,1,0.783774075564,2018_Nov_14_1534,59.984917177,chinese_cond1,001,1033,
images/button07.jpg,radish,x,sounds/animalfarm_chinese.wav,,,,,,,,,0,1,1,1,0,145,145,215,932.050314336,9.62160993367e-06,933.288437003,1.23813293024,,,,x,1,1.21722143504,2018_Nov_14_1534,59.984917177,chinese_cond1,001,1033,
images/sportshorts02.jpg,tape,x,sounds/animalfarm_chinese.wav,,,,,,,,,0,1,1,1,0,146,146,230,934.395996405,9.94233414531e-06,935.188966446,0.79298062413,,,,x,1,0.783859065967,2018_Nov_14_1534,59.984917177,chinese_cond1,001,1033,
images/bench02.jpg,electric toothbrush,x,sounds/animalfarm_chinese.wav,,,,,,,,,0,1,1,1,0,147,147,172,936.297576522,9.94233414531e-06,938.356341473,2.05877521413,,,,x,1,2.03409014374,2018_Nov_14_1534,59.984917177,chinese_cond1,001,1033,
images/parkfountain.jpg,park fountain,z,sounds/animalfarm_chinese.wav,,,,,,,,,0,1,1,1,0,148,148,93,939.47629248,9.30088572204e-06,940.923632408,1.44735019072,,,,z,1,1.43392523029,2018_Nov_14_1534,59.984917177,chinese_cond1,001,1033,
images/pen03c.jpg,pepper,x,sounds/animalfarm_chinese.wav,,,,,,,,,0,1,1,1,0,149,149,211,942.017979486,9.30088572204e-06,943.157503308,1.13953376492,,,,x,1,1.11717358383,2018_Nov_14_1534,59.984917177,chinese_cond1,001,1033,
images/floorlamp.jpg,floor lamp,z,sounds/animalfarm_chinese.wav,,,,,,,,,0,1,1,1,0,150,150,26,944.250775337,9.30076930672e-06,945.691461957,1.44069656229,,,,z,1,1.41727608547,2018_Nov_14_1534,59.984917177,chinese_cond1,001,1033,
images/dresser02.jpg,dresser,z,sounds/animalfarm_chinese.wav,,,,,,,,,0,1,1,1,0,151,151,87,946.813135544,9.94221772999e-06,947.791982868,0.978857266717,,,,z,1,0.967176374048,2018_Nov_14_1534,59.984917177,chinese_cond1,001,1033,
images/bus.jpg,microphone,x,sounds/animalfarm_chinese.wav,,,,,,,,,0,1,1,1,0,152,152,203,948.910759404,9.30088572204e-06,950.409260365,1.49851090356,,,,x,1,1.48394097749,2018_Nov_14_1534,59.984917177,chinese_cond1,001,1033,
images/radio03a.jpg,radio,z,sounds/animalfarm_chinese.wav,,,,,,,,,0,1,1,1,0,153,153,37,951.523132792,8.98004509509e-06,952.343072061,0.819949531695,,,,z,1,0.80044983991,2018_Nov_14_1534,59.984917177,chinese_cond1,001,1033,
images/boxingglove02a.jpg,bracelet,x,sounds/animalfarm_chinese.wav,,,,,,,,,0,1,1,1,0,154,154,135,953.454741793,9.94221772999e-06,954.243536718,0.788805509103,,,,x,1,0.767109536333,2018_Nov_14_1534,59.984917177,chinese_cond1,001,1033,
images/calculator02b.jpg,dice,x,sounds/animalfarm_chinese.wav,,,,,,,,,0,1,1,1,0,155,155,165,955.345707406,9.94221772999e-06,956.310713798,0.965016654809,,,,x,1,0.950491629541,2018_Nov_14_1534,59.984917177,chinese_cond1,001,1033,
images/clothespin02a.jpg,clothes pin,z,sounds/animalfarm_chinese.wav,,,,,,,,,0,1,1,1,0,156,156,79,957.415870055,9.30088572204e-06,960.011601675,2.59574156243,,,,z,1,2.58421140746,2018_Nov_14_1534,59.984917177,chinese_cond1,001,1033,
images/barrel01.jpg,barrel,z,sounds/animalfarm_chinese.wav,,,,,,,,,0,1,1,1,0,157,157,9,961.141759231,9.62160993367e-06,962.712257673,1.57050902536,,,,z,1,1.55062703707,2018_Nov_14_1534,59.984917177,chinese_cond1,001,1033,
images/coffeepot03b.jpg,coffee pot,z,sounds/animalfarm_chinese.wav,,,,,,,,,0,1,1,1,0,158,158,107,963.833428694,9.62160993367e-06,965.079505824,1.24608771398,,,,z,1,1.23389303009,2018_Nov_14_1534,59.984917177,chinese_cond1,001,1033,
images/50dollarbill.jpg,cherry,x,sounds/animalfarm_chinese.wav,,,,,,,,,0,1,1,1,0,159,159,151,966.199280756,9.62149351835e-06,966.97998812,0.780716985697,,,,x,1,0.767124930746,2018_Nov_14_1534,59.984917177,chinese_cond1,001,1033,
images/computerkeyboard01a.jpg,computer keyboard,z,sounds/animalfarm_chinese.wav,,,,,,,,,0,1,1,1,0,160,160,61,968.09712386,9.62149351835e-06,970.447491948,2.35037835175,,,,z,1,2.33416410151,2018_Nov_14_1534,59.984917177,chinese_cond1,001,1033,
images/hairband.jpg,hairband,z,sounds/animalfarm_chinese.wav,,,,,,,,,0,1,1,1,0,161,161,66,971.557414405,9.62160993367e-06,972.381293702,0.82388955995,,,,z,1,0.800445029163,2018_Nov_14_1534,59.984917177,chinese_cond1,001,1033,
images/panda.jpg,panda,z,sounds/animalfarm_chinese.wav,,,,,,,,,0,1,1,1,0,162,162,83,973.490327768,9.94233414531e-06,974.165048534,0.674731029314,,,,z,1,0.650411578245,2018_Nov_14_1534,59.984917177,chinese_cond1,001,1033,
images/chessknight02b (1).jpg,cockroach,x,sounds/animalfarm_chinese.wav,,,,,,,,,0,1,1,1,0,163,163,155,975.273742959,9.30076930672e-06,977.049077325,1.77534430742,,,,x,1,1.76734269876,2018_Nov_14_1534,59.984917177,chinese_cond1,001,1033,
images/spoon02b.jpg,spoon,z,sounds/animalfarm_chinese.wav,,,,,,,,,0,1,1,1,0,164,164,38,978.140743195,9.30088572204e-06,979.749759621,1.60902668955,,,,z,1,1.60065914097,2018_Nov_14_1534,59.984917177,chinese_cond1,001,1033,
images/daisy.jpg,daisy,z,sounds/animalfarm_chinese.wav,,,,,,,,,0,1,1,1,0,165,165,6,980.853136853,9.30076930672e-06,981.616878523,0.76375129167,,,,z,1,0.750438903458,2018_Nov_14_1534,59.984917177,chinese_cond1,001,1033,
images/computermouse02a.jpg,world map,x,sounds/animalfarm_chinese.wav,,,,,,,,,0,1,1,1,0,166,166,239,982.718946901,9.30076930672e-06,983.734048579,1.01511226106,,,,x,1,1.0004958309,2018_Nov_14_1534,59.984917177,chinese_cond1,001,1033,
images/dragonfly02.jpg,dragon fly,z,sounds/animalfarm_chinese.wav,,,,,,,,,0,1,1,1,0,167,167,29,984.831541265,9.62160993367e-06,985.884566635,1.05303595448,,,,z,1,1.03382362658,2018_Nov_14_1534,59.984917177,chinese_cond1,001,1033,
images/cauliflower01.jpg,glue stick,x,sounds/animalfarm_chinese.wav,,,,,,,,,0,1,1,1,0,168,168,181,987.000853753,9.30088572204e-06,987.918383206,0.917539395508,,,,x,1,0.900456959964,2018_Nov_14_1534,59.984917177,chinese_cond1,001,1033,
images/razor04a.jpg,razor,z,sounds/animalfarm_chinese.wav,,,,,,,,,0,1,1,1,0,169,169,36,989.018401872,9.30088572204e-06,989.868874515,0.850482905982,,,,x,0,0.83378340851,2018_Nov_14_1534,59.984917177,chinese_cond1,001,1033,
images/banana04a.jpg,banana,z,sounds/animalfarm_chinese.wav,,,,,,,,,0,1,1,1,0,170,170,118,990.974972723,8.98016151041e-06,991.669314733,0.694351632032,,,,z,1,0.683657590533,2018_Nov_14_1534,59.984917177,chinese_cond1,001,1033,
images/straw.jpg,straw,z,sounds/animalfarm_chinese.wav,,,,,,,,,0,1,1,1,0,171,171,109,992.760426722,9.94221772999e-06,993.50308403,0.742667249986,,,,z,1,0.7337548004,2018_Nov_14_1534,59.984917177,chinese_cond1,001,1033,
images/weight01.jpg,weight,z,sounds/animalfarm_chinese.wav,,,,,,,,,0,1,1,1,0,172,172,67,994.607721044,9.30088572204e-06,995.92035338,1.31264227885,,,,z,1,1.30057716521,2018_Nov_14_1534,59.984917177,chinese_cond1,001,1033,
images/screw03c.jpg,screw,z,sounds/animalfarm_chinese.wav,,,,,,,,,0,1,1,1,0,173,173,84,997.014660689,1.05836661533e-05,997.737455572,0.722805787576,,,,z,1,0.700423156144,2018_Nov_14_1534,59.984917177,chinese_cond1,001,1033,
images/screwdriver02b.jpg,cola,x,sounds/animalfarm_chinese.wav,,,,,,,,,0,1,1,1,0,174,174,158,998.831026832,8.98016151041e-06,999.637917664,0.806900774129,,,,x,1,0.783776962082,2018_Nov_14_1534,59.984917177,chinese_cond1,001,1033,
images/bowlingball.jpg,bowling ball,z,sounds/animalfarm_chinese.wav,,,,,,,,,0,1,1,1,0,175,175,20,1000.77008965,9.94233414531e-06,1001.48837363,0.71829391818,,,,z,1,0.700425401097,2018_Nov_14_1534,59.984917177,chinese_cond1,001,1033,
images/handfan01b.jpg,handfan,z,sounds/animalfarm_chinese.wav,,,,,,,,,0,1,1,1,0,176,176,69,1002.60276145,9.30076930672e-06,1003.35550632,0.752754812478,,,,z,1,0.733776609297,2018_Nov_14_1534,59.984917177,chinese_cond1,001,1033,
images/hairdryer03a.jpg,hairdryer,z,sounds/animalfarm_chinese.wav,,,,,,,,,0,1,1,1,0,177,177,119,1004.45502402,9.62160993367e-06,1005.07258151,0.617567747016,,,,z,1,0.600402886746,2018_Nov_14_1534,59.984917177,chinese_cond1,001,1033,
images/shotglass.jpg,shot glass,z,sounds/animalfarm_chinese.wav,,,,,,,,,0,1,1,1,0,178,178,86,1006.18106105,9.62149351835e-06,1007.15641864,0.975368168904,,,,z,1,0.967147509451,2018_Nov_14_1534,59.984917177,chinese_cond1,001,1033,
images/paperclip04.jpg,eye drops,x,sounds/animalfarm_chinese.wav,,,,,,,,,0,1,1,1,0,179,179,174,1008.26177374,9.62160993367e-06,1009.55699587,1.2952327102,,,,x,1,1.28389723145,2018_Nov_14_1534,59.984917177,chinese_cond1,001,1033,
images/elbow.jpg,elbow,z,sounds/animalfarm_chinese.wav,,,,,,,,,0,1,1,1,0,180,180,105,1010.66883911,8.98004509509e-06,1011.75753063,1.08870114735,,,,x,0,1.06717291032,2018_Nov_14_1534,59.984917177,chinese_cond1,001,1033,
images/volleyball.jpg,volley ball,z,sounds/animalfarm_chinese.wav,,,,,,,,,0,1,1,1,0,181,181,2,1012.89008973,9.62149351835e-06,1013.50796376,0.61788461695,,,,z,1,0.600402245298,2018_Nov_14_1534,59.984917177,chinese_cond1,001,1033,
images/skateboard.jpg,key,x,sounds/animalfarm_chinese.wav,,,,,,,,,0,1,1,1,0,182,182,189,1014.59876113,1.57152535394e-05,1016.32530393,1.72655915748,,,,x,1,1.71733625233,2018_Nov_14_1534,59.984917177,chinese_cond1,001,1033,
images/table02.jpg,table,z,sounds/animalfarm_chinese.wav,,,,,,,,,0,1,1,1,0,183,183,49,1017.43967347,9.94233414531e-06,1019.00931752,1.56965431024,,,,z,1,1.55064788368,2018_Nov_14_1534,59.984917177,chinese_cond1,001,1033,
images/backpack01b.jpg,swallow,x,sounds/animalfarm_chinese.wav,,,,,,,,,0,1,1,1,0,184,184,228,1020.14010817,9.62160993367e-06,1022.3101272,2.17002929444,,,,x,1,2.15076821728,2018_Nov_14_1534,59.984917177,chinese_cond1,001,1033,
images/banjo.jpg,knife,x,sounds/animalfarm_chinese.wav,,,,,,,,,0,1,1,1,0,185,185,191,1023.40672059,8.98004509509e-06,1024.5106687,1.10395837331,,,,x,1,1.08386984211,2018_Nov_14_1534,59.984917177,chinese_cond1,001,1033,
images/pipe.jpg,icecube,x,sounds/animalfarm_chinese.wav,,,,,,,,,0,1,1,1,0,186,186,188,1025.61952124,9.30088572204e-06,1027.91133157,2.29182026419,,,,x,1,2.26733051147,2018_Nov_14_1534,59.984917177,chinese_cond1,001,1033,
images/carrot02.jpg,corkscrew,x,sounds/animalfarm_chinese.wav,,,,,,,,,0,1,1,1,0,187,187,161,1029.01431175,9.62160993367e-06,1030.47876298,1.46446149098,,,,x,1,1.45060548466,2018_Nov_14_1534,59.984917177,chinese_cond1,001,1033,
images/mattress.jpg,cat,x,sounds/animalfarm_chinese.wav,,,,,,,,,0,1,1,1,0,188,188,147,1031.5832252,8.98016151041e-06,1032.4458983,0.86268336291,,,,x,1,0.85045211704,2018_Nov_14_1534,59.984917177,chinese_cond1,001,1033,
images/puzzle.jpg,puzzle,z,sounds/animalfarm_chinese.wav,,,,,,,,,0,1,1,1,0,189,189,57,1033.5658137,9.30088572204e-06,1035.5466543,1.98085053288,,,,z,1,1.96738580335,2018_Nov_14_1534,59.984917177,chinese_cond1,001,1033,
images/fork01.jpg,cooking pot,x,sounds/animalfarm_chinese.wav,,,,,,,,,0,1,1,1,0,190,190,160,1036.6411303,8.98016151041e-06,1038.964152,2.32303163758,,,,x,1,2.30080519617,2018_Nov_14_1534,59.984917177,chinese_cond1,001,1033,
images/leaf01a.jpg,leaf,z,sounds/animalfarm_chinese.wav,,,,,,,,,0,1,1,1,0,191,191,68,1040.06685347,9.30088572204e-06,1040.84794795,0.781104413792,,,,z,1,0.767104404862,2018_Nov_14_1534,59.984917177,chinese_cond1,001,1033,
images/icecube02 (2).jpg,aloe,x,sounds/animalfarm_chinese.wav,,,,,,,,,0,1,1,1,0,192,192,122,1041.95857085,9.62149351835e-06,1042.81510251,0.856541922083,,,,x,1,0.833795595681,2018_Nov_14_1534,59.984917177,chinese_cond1,001,1033,
images/acousticguitar02.jpg,acoustic guitar,z,sounds/animalfarm_chinese.wav,,,,,,,,,0,1,1,1,0,193,193,97,1043.92763947,9.30088572204e-06,1044.6655495,0.737919331528,,,,z,1,0.717097637593,2018_Nov_14_1534,59.984917177,chinese_cond1,001,1033,
images/lollipop03b.jpg,lollipop,z,sounds/animalfarm_chinese.wav,,,,,,,,,0,1,1,1,0,194,194,42,1045.75879875,9.94221772999e-06,1046.38266125,0.62387275428,,,,x,0,0.600410904619,2018_Nov_14_1534,59.984917177,chinese_cond1,001,1033,
images/rubberglove02a.jpg,lady bug,x,sounds/animalfarm_chinese.wav,,,,,,,,,0,1,1,1,0,195,195,192,1047.48725208,9.62160993367e-06,1048.31643927,0.829197452986,,,,x,1,0.817119510612,2018_Nov_14_1534,59.984917177,chinese_cond1,001,1033,
images/highlighter03b.jpg,coin,x,sounds/animalfarm_chinese.wav,,,,,,,,,0,1,1,1,0,196,196,156,1049.41818757,9.30076930672e-06,1050.65033204,1.23215409368,,,,x,1,1.21720924776,2018_Nov_14_1534,59.984917177,chinese_cond1,001,1033,
images/worldmap.jpg,scooter,x,sounds/animalfarm_chinese.wav,,,,,,,,,0,1,1,1,0,197,197,220,1051.78156336,9.62149351835e-06,1053.18427562,1.40272219537,,,,x,1,1.38391012442,2018_Nov_14_1534,59.984917177,chinese_cond1,001,1033,
,,,sounds/animalfarm_chinese.wav,,,,,,,,,0,1,1,1,,,,,,,,,,,,,,,2018_Nov_14_1534,59.984917177,chinese_cond1,001,1033,
