images,name,corrAns,sounds,trials_3.thisRepN,trials_3.thisTrialN,trials_3.thisN,trials_3.thisIndex,trials_4.thisRepN,trials_4.thisTrialN,trials_4.thisN,trials_4.thisIndex,trials_2.thisRepN,trials_2.thisTrialN,trials_2.thisN,trials_2.thisIndex,trials.thisRepN,trials.thisTrialN,trials.thisN,trials.thisIndex,begin_global,begin_routine,end_global,end_routine,key_resp_2.keys,key_resp_2.corr,key_resp_2.rt,begin_book,key_resp_1.keys,key_resp_1.corr,key_resp_1.rt,date,frameRate,expName,session,participant,
images/volleyball.jpg,volley ball,z,,0,0,0,0,,,,,,,,,,,,,,,,,,,,,,,,2018_Nov_15_1532,59.9869174917,spanish_cond1,001,1035,
images/puma.jpg,puma,z,,,,,,0,0,0,0,,,,,,,,,48.2076508954,9.62158935636e-06,50.0400501862,1.83240955385,z,1,1.81735272875,,,,,2018_Nov_15_1532,59.9869174917,spanish_cond1,001,1035,
images/parkfountain.jpg,park fountain,z,sounds/greatgatsby_english.wav,,,,,,,,,0,0,0,0,0,0,0,93,92.3010197602,9.3008696922e-06,93.3674093678,1.06639987069,,,,82.0363535716,z,1,1.05049891148,2018_Nov_15_1532,59.9869174917,spanish_cond1,001,1035,
images/binder03b.jpg,dj mixer,x,sounds/greatgatsby_english.wav,,,,,,,,,0,0,0,0,0,1,1,167,94.559365206,9.62158935636e-06,95.501249203,0.941893618577,,,,,x,1,0.933788071025,2018_Nov_15_1532,59.9869174917,spanish_cond1,001,1035,
images/cupcake.jpg,scissors,x,sounds/greatgatsby_english.wav,,,,,,,,,0,0,0,0,0,2,2,219,96.6975209654,9.62158924267e-06,97.6184420851,0.920931061954,,,,,x,1,0.900454716311,2018_Nov_15_1532,59.9869174917,spanish_cond1,001,1035,
images/cloud.jpg,ceiling fan,x,sounds/greatgatsby_english.wav,,,,,,,,,0,0,0,0,0,3,3,149,98.8311770283,9.30086957851e-06,99.9356828827,1.10451611744,,,,,x,1,1.08383354907,2018_Nov_15_1532,59.9869174917,spanish_cond1,001,1035,
images/candle08a.jpg,screw driver,x,sounds/greatgatsby_english.wav,,,,,,,,,0,0,0,0,0,4,4,221,101.070611561,8.98015002804e-06,102.102882051,1.03228011141,,,,,x,1,1.01714438927,2018_Nov_15_1532,59.9869174917,spanish_cond1,001,1035,
images/cherry01.jpg,highlighter,x,sounds/greatgatsby_english.wav,,,,,,,,,0,0,0,0,0,5,5,187,103.277152766,8.98015002804e-06,104.253409891,0.976266425656,,,,,x,1,0.967128481572,2018_Nov_15_1532,59.9869174917,spanish_cond1,001,1035,
images/mailbox01.jpg,mail box,z,sounds/greatgatsby_english.wav,,,,,,,,,0,0,0,0,0,6,6,73,105.482670555,9.62158935636e-06,106.387267366,0.904607714975,,,,,z,1,0.883775049808,2018_Nov_15_1532,59.9869174917,spanish_cond1,001,1035,
images/dryingmachine01.jpg,drying machine,z,sounds/greatgatsby_english.wav,,,,,,,,,0,0,0,0,0,7,7,18,107.586828108,9.30086957851e-06,109.054592577,1.46777409021,,,,,z,1,1.45058447948,2018_Nov_15_1532,59.9869174917,spanish_cond1,001,1035,
images/cat.jpg,black olive,x,sounds/greatgatsby_english.wav,,,,,,,,,0,0,0,0,0,8,8,133,110.268654658,9.3008696922e-06,111.405169295,1.13652457931,,,,,x,1,1.11716594163,2018_Nov_15_1532,59.9869174917,spanish_cond1,001,1035,
images/bicycle.jpg,hand bag,x,sounds/greatgatsby_english.wav,,,,,,,,,0,0,0,0,0,9,9,186,112.583078896,9.62158935636e-06,113.472339534,0.8892705809,,,,,x,1,0.867096024744,2018_Nov_15_1532,59.9869174917,spanish_cond1,001,1035,
images/gorilla.jpg,gorilla,z,sounds/greatgatsby_english.wav,,,,,,,,,0,0,0,0,0,10,10,80,114.655510541,9.3008696922e-06,115.83972581,1.18422457046,,,,,z,1,1.16730596782,2018_Nov_15_1532,59.9869174917,spanish_cond1,001,1035,
images/stapler03a.jpg,candy cane,x,sounds/greatgatsby_english.wav,,,,,,,,,0,0,0,0,0,11,11,145,117.037812525,9.3008696922e-06,117.890099962,0.852297378951,,,,,x,1,0.833759462833,2018_Nov_15_1532,59.9869174917,spanish_cond1,001,1035,
images/fireextinguisher02.jpg,fire extinguisher,x,sounds/greatgatsby_english.wav,,,,,,,,,0,0,0,0,0,12,12,175,119.068160622,9.30086957851e-06,119.973981619,0.905831260415,,,,,z,0,0.883804876735,2018_Nov_15_1532,59.9869174917,spanish_cond1,001,1035,
images/spoon02b.jpg,spoon,z,sounds/greatgatsby_english.wav,,,,,,,,,0,0,0,0,0,13,13,38,121.141308434,9.3008696922e-06,122.47457463,1.33327613833,,,,,z,1,1.31722059225,2018_Nov_15_1532,59.9869174917,spanish_cond1,001,1035,
images/belt02a.jpg,snowman,x,sounds/greatgatsby_english.wav,,,,,,,,,0,0,0,0,0,14,14,224,123.601856069,9.62158935636e-06,124.724964625,1.12311817749,,,,,x,1,1.10033521617,2018_Nov_15_1532,59.9869174917,spanish_cond1,001,1035,
images/hammer02a.jpg,flower,x,sounds/greatgatsby_english.wav,,,,,,,,,0,0,0,0,0,15,15,176,125.846136355,8.98015002804e-06,127.192398431,1.34627169829,,,,,x,1,1.33388326062,2018_Nov_15_1532,59.9869174917,spanish_cond1,001,1035,
images/shotglass.jpg,shot glass,z,sounds/greatgatsby_english.wav,,,,,,,,,0,0,0,0,0,16,16,86,128.37197385,9.3008696922e-06,129.226230184,0.854265956123,,,,,z,1,0.833758179954,2018_Nov_15_1532,59.9869174917,spanish_cond1,001,1035,
images/leaf01a.jpg,leaf,z,sounds/greatgatsby_english.wav,,,,,,,,,0,0,0,0,0,17,17,68,130.403712266,9.62158924267e-06,131.54350113,1.13979944759,,,,,z,1,1.11719576855,2018_Nov_15_1532,59.9869174917,spanish_cond1,001,1035,
images/raisin.jpg,ruler,x,sounds/greatgatsby_english.wav,,,,,,,,,0,0,0,0,0,18,18,218,132.728480033,9.3008696922e-06,133.710676565,0.982206474175,,,,,x,1,0.967133292367,2018_Nov_15_1532,59.9869174917,spanish_cond1,001,1035,
images/egg01b (1).jpg,egg,z,sounds/greatgatsby_english.wav,,,,,,,,,0,0,0,0,0,19,19,19,134.916028862,8.98015002804e-06,135.878075541,0.962055979689,,,,,z,1,0.950269532789,2018_Nov_15_1532,59.9869174917,spanish_cond1,001,1035,
images/cheetah.jpg,cheetah,z,sounds/greatgatsby_english.wav,,,,,,,,,0,0,0,0,0,20,20,82,137.013544632,9.3008696922e-06,137.8617012,0.848166509942,,,,,z,1,0.83361834619,2018_Nov_15_1532,59.9869174917,spanish_cond1,001,1035,
images/wallet01.jpg,lamp,x,sounds/greatgatsby_english.wav,,,,,,,,,0,0,0,0,0,21,21,193,139.031774978,9.30086957851e-06,139.99555226,0.963787545045,,,,,x,1,0.950450739387,2018_Nov_15_1532,59.9869174917,spanish_cond1,001,1035,
images/radio03a.jpg,radio,z,sounds/greatgatsby_english.wav,,,,,,,,,0,0,0,0,0,22,22,37,141.212757714,8.98014991435e-06,142.029380806,0.816633033867,,,,,z,1,0.800408468538,2018_Nov_15_1532,59.9869174917,spanish_cond1,001,1035,
images/barrel01.jpg,barrel,z,sounds/greatgatsby_english.wav,,,,,,,,,0,0,0,0,0,23,23,9,143.228585229,9.94230890683e-06,144.079902809,0.851327843468,,,,,z,1,0.833628288499,2018_Nov_15_1532,59.9869174917,spanish_cond1,001,1035,
images/leek.jpg,donut,x,sounds/greatgatsby_english.wav,,,,,,,,,0,0,0,0,0,24,24,169,145.251069279,9.62158935636e-06,146.347140849,1.09608151154,,,,,x,1,1.08383515267,2018_Nov_15_1532,59.9869174917,spanish_cond1,001,1035,
images/tie01.jpg,bench,x,sounds/greatgatsby_english.wav,,,,,,,,,0,0,0,0,0,25,25,130,147.515239635,9.62158924267e-06,148.280936296,0.765706282385,,,,,x,1,0.750409558985,2018_Nov_15_1532,59.9869174917,spanish_cond1,001,1035,
images/elbow.jpg,elbow,z,sounds/greatgatsby_english.wav,,,,,,,,,0,0,0,0,0,26,26,105,149.460660208,9.62158935636e-06,150.181401917,0.720751330666,,,,,z,1,0.700402310721,2018_Nov_15_1532,59.9869174917,spanish_cond1,001,1035,
images/paintbrush03a.jpg,paint brush,z,sounds/greatgatsby_english.wav,,,,,,,,,0,0,0,0,0,27,27,0,151.34919153,9.3008696922e-06,152.481973632,1.1327920441,,,,,z,1,1.11716658307,2018_Nov_15_1532,59.9869174917,spanish_cond1,001,1035,
images/bowlingball.jpg,bowling ball,z,sounds/greatgatsby_english.wav,,,,,,,,,0,0,0,0,0,28,28,20,153.69382852,9.3008696922e-06,154.649177611,0.955358391373,,,,,z,1,0.9337925611,2018_Nov_15_1532,59.9869174917,spanish_cond1,001,1035,
images/bench02.jpg,electric toothbrush,x,sounds/greatgatsby_english.wav,,,,,,,,,0,0,0,0,0,29,29,172,155.839168079,9.3008696922e-06,156.68284291,0.843684773643,,,,,x,1,0.833602951647,2018_Nov_15_1532,59.9869174917,spanish_cond1,001,1035,
images/bat.jpg,hand,x,sounds/greatgatsby_english.wav,,,,,,,,,0,0,0,0,0,30,30,185,157.860224286,9.62158924267e-06,158.96705215,1.10683780694,,,,,x,1,1.08397691075,2018_Nov_15_1532,59.9869174917,spanish_cond1,001,1035,
images/coin01b.jpg,arrow,x,sounds/greatgatsby_english.wav,,,,,,,,,0,0,0,0,0,31,31,124,160.096487222,9.62158924267e-06,160.884046379,0.787568778328,,,,,x,1,0.767082490375,2018_Nov_15_1532,59.9869174917,spanish_cond1,001,1035,
images/corn01.jpg,corn,z,sounds/greatgatsby_english.wav,,,,,,,,,0,0,0,0,0,32,32,22,162.052674674,9.94230890683e-06,163.067916875,1.01525278481,,,,,x,0,1.00047306147,2018_Nov_15_1532,59.9869174917,spanish_cond1,001,1035,
images/icecube02 (2).jpg,aloe,x,sounds/greatgatsby_english.wav,,,,,,,,,0,0,0,0,0,33,33,122,164.236922336,8.98015002804e-06,165.085079866,0.8481674721,,,,,x,1,0.833748237646,2018_Nov_15_1532,59.9869174917,spanish_cond1,001,1035,
images/pepper05a.jpg,lighter,x,sounds/greatgatsby_english.wav,,,,,,,,,0,0,0,0,0,34,34,198,166.309027809,8.98015002804e-06,167.418992632,1.10997412434,,,,,x,1,1.10049846247,2018_Nov_15_1532,59.9869174917,spanish_cond1,001,1035,
images/printer03a.jpg,printer,z,sounds/greatgatsby_english.wav,,,,,,,,,0,0,0,0,0,35,35,72,168.563259705,8.65943047756e-06,169.419480768,0.85623068466,,,,,z,1,0.833755934917,2018_Nov_15_1532,59.9869174917,spanish_cond1,001,1035,
images/knife04.jpg,tooth brush,x,sounds/greatgatsby_english.wav,,,,,,,,,0,0,0,0,0,36,36,233,170.583639834,8.98015002804e-06,171.369974804,0.786344912168,,,,,x,1,0.767091791245,2018_Nov_15_1532,59.9869174917,spanish_cond1,001,1035,
images/dresser02.jpg,dresser,z,sounds/greatgatsby_english.wav,,,,,,,,,0,0,0,0,0,37,37,87,172.565988387,9.30086957851e-06,173.27043369,0.704455244857,,,,,z,1,0.683731303648,2018_Nov_15_1532,59.9869174917,spanish_cond1,001,1035,
images/daisy.jpg,daisy,z,sounds/greatgatsby_english.wav,,,,,,,,,0,0,0,0,0,38,38,6,174.438883344,9.3008696922e-06,175.20424357,0.765370168198,,,,,z,1,0.750410521144,2018_Nov_15_1532,59.9869174917,spanish_cond1,001,1035,
images/croissant02b.jpg,croissant,z,sounds/greatgatsby_english.wav,,,,,,,,,0,0,0,0,0,39,39,39,176.391541597,8.98014991435e-06,177.154820031,0.763287735552,,,,,z,1,0.750505454158,2018_Nov_15_1532,59.9869174917,spanish_cond1,001,1035,
images/lightswitch02a.jpg,fork,x,sounds/greatgatsby_english.wav,,,,,,,,,0,0,0,0,0,40,40,177,178.342308566,9.3008696922e-06,179.47197199,1.12967336629,,,,,x,1,1.11710147698,2018_Nov_15_1532,59.9869174917,spanish_cond1,001,1035,
images/parrot01.jpg,chameleon,x,sounds/greatgatsby_english.wav,,,,,,,,,0,0,0,0,0,41,41,150,180.610561683,8.98015002804e-06,181.405782511,0.795230449893,,,,,x,1,0.783764722635,2018_Nov_15_1532,59.9869174917,spanish_cond1,001,1035,
images/remotecontrol01c.jpg,remote control,z,sounds/greatgatsby_english.wav,,,,,,,,,0,0,0,0,0,42,42,85,182.598292873,9.3008696922e-06,183.289575842,0.691292589965,,,,,z,1,0.667057730819,2018_Nov_15_1532,59.9869174917,spanish_cond1,001,1035,
images/charcoalbarbecue.jpg,charcoal barbecue,z,sounds/greatgatsby_english.wav,,,,,,,,,0,0,0,0,0,43,43,77,184.477074318,9.62158935636e-06,185.34008213,0.863017753757,,,,,z,1,0.850436884298,2018_Nov_15_1532,59.9869174917,spanish_cond1,001,1035,
images/tissuebox03.jpg,tissue box,z,sounds/greatgatsby_english.wav,,,,,,,,,0,0,0,0,0,44,44,58,186.533959079,9.62158924267e-06,187.173975974,0.64002683782,,,,,z,1,0.617140925494,2018_Nov_15_1532,59.9869174917,spanish_cond1,001,1035,
images/redfox.jpg,red fox,z,sounds/greatgatsby_english.wav,,,,,,,,,0,0,0,0,0,45,45,1,188.358734864,9.62158924267e-06,189.191029279,0.832304037091,,,,,z,1,0.817096794471,2018_Nov_15_1532,59.9869174917,spanish_cond1,001,1035,
images/volleyball.jpg,volley ball,z,sounds/greatgatsby_english.wav,,,,,,,,,0,0,0,0,0,46,46,2,190.320944147,9.3008696922e-06,191.041485407,0.720550880889,,,,,z,1,0.700403914319,2018_Nov_15_1532,59.9869174917,spanish_cond1,001,1035,
images/skateboard.jpg,key,x,sounds/greatgatsby_english.wav,,,,,,,,,0,0,0,0,0,47,47,189,192.203726891,9.3008696922e-06,192.858598237,0.654881288831,,,,,x,1,0.633716358113,2018_Nov_15_1532,59.9869174917,spanish_cond1,001,1035,
images/toothbrush03a.jpg,parrot,x,sounds/greatgatsby_english.wav,,,,,,,,,0,0,0,0,0,48,48,210,194.012684462,9.62158935636e-06,194.859090862,0.846415701408,,,,,x,1,0.833765556506,2018_Nov_15_1532,59.9869174917,spanish_cond1,001,1035,
images/tulip02.jpg,sport shorts,x,sounds/greatgatsby_english.wav,,,,,,,,,0,0,0,0,0,49,49,225,196.024121645,9.62158935636e-06,196.776234546,0.75212316404,,,,,x,1,0.733735986155,2018_Nov_15_1532,59.9869174917,spanish_cond1,001,1035,
images/cocktailshrimp01.jpg,cocktail shrimp,z,sounds/greatgatsby_english.wav,,,,,,,,,0,0,0,0,0,50,50,30,197.973695858,9.3008696922e-06,198.843596255,0.869910339616,,,,,z,1,0.850617128738,2018_Nov_15_1532,59.9869174917,spanish_cond1,001,1035,
images/tape01a.jpg,tie,x,sounds/greatgatsby_english.wav,,,,,,,,,0,0,0,0,0,51,51,232,200.030048223,9.30086957851e-06,200.727212869,0.697174588228,,,,,x,1,0.68338781291,2018_Nov_15_1532,59.9869174917,spanish_cond1,001,1035,
images/ceilingfan02.jpg,paper clip,x,sounds/greatgatsby_english.wav,,,,,,,,,0,0,0,0,0,52,52,208,201.887412973,9.3008696922e-06,202.69436316,0.806959808697,,,,,x,1,0.78376023256,2018_Nov_15_1532,59.9869174917,spanish_cond1,001,1035,
images/comb02a.jpg,diploma,x,sounds/greatgatsby_english.wav,,,,,,,,,0,0,0,0,0,53,53,166,203.835201098,9.30086957851e-06,204.494797607,0.659606772059,,,,,x,1,0.650385440868,2018_Nov_15_1532,59.9869174917,spanish_cond1,001,1035,
images/handbag02a.jpg,candle,x,sounds/greatgatsby_english.wav,,,,,,,,,0,0,0,0,0,54,54,144,205.676887467,9.94230902052e-06,206.345263997,0.668386472302,,,,,x,1,0.650391213821,2018_Nov_15_1532,59.9869174917,spanish_cond1,001,1035,
images/pingpongpaddle01c (1).jpg,ping pong paddle,z,sounds/greatgatsby_english.wav,,,,,,,,,0,0,0,0,0,55,55,10,207.526978295,9.94230890683e-06,208.562469451,1.03550109879,,,,,z,1,1.01714278567,2018_Nov_15_1532,59.9869174917,spanish_cond1,001,1035,
images/broom02.jpg,broom,z,sounds/greatgatsby_english.wav,,,,,,,,,0,0,0,0,0,56,56,116,209.715684281,8.98015002804e-06,210.41317125,0.697498194348,,,,,z,1,0.683971201942,2018_Nov_15_1532,59.9869174917,spanish_cond1,001,1035,
images/ashtray02b.jpg,ashtray,z,sounds/greatgatsby_english.wav,,,,,,,,,0,0,0,0,0,57,57,43,211.603120666,9.3008696922e-06,212.313450533,0.710339488157,,,,,z,1,0.700360937887,2018_Nov_15_1532,59.9869174917,spanish_cond1,001,1035,
images/crocodile.jpg,triangle ruler,x,sounds/greatgatsby_english.wav,,,,,,,,,0,0,0,0,0,58,58,235,213.489331902,8.98015002804e-06,214.130517821,0.641195540201,,,,,x,1,0.617050803274,2018_Nov_15_1532,59.9869174917,spanish_cond1,001,1035,
images/cockroach02.jpg,belt,x,sounds/greatgatsby_english.wav,,,,,,,,,0,0,0,0,0,59,59,129,215.300125915,9.62158935636e-06,216.047667919,0.747551626241,,,,,x,1,0.733758115811,2018_Nov_15_1532,59.9869174917,spanish_cond1,001,1035,
images/birthdaycandle.jpg,birthday candle,z,sounds/greatgatsby_english.wav,,,,,,,,,0,0,0,0,0,60,60,55,217.208298428,9.62158935636e-06,218.014856055,0.806567247853,,,,,z,1,0.783811226984,2018_Nov_15_1532,59.9869174917,spanish_cond1,001,1035,
images/ostrich.jpg,ostrich,z,sounds/greatgatsby_english.wav,,,,,,,,,0,0,0,0,0,61,61,76,219.179032761,8.98015002804e-06,219.881928988,0.702905848259,,,,,z,1,0.683732586527,2018_Nov_15_1532,59.9869174917,spanish_cond1,001,1035,
images/paperclip04.jpg,eye drops,x,sounds/greatgatsby_english.wav,,,,,,,,,0,0,0,0,0,62,62,174,221.045236223,9.62158935636e-06,221.882436687,0.837210406198,,,,,x,1,0.817108981818,2018_Nov_15_1532,59.9869174917,spanish_cond1,001,1035,
images/mirror02.jpg,8 ball,x,sounds/greatgatsby_english.wav,,,,,,,,,0,0,0,0,0,63,63,121,223.050433805,9.62158935636e-06,224.06630141,1.01587818811,,,,,x,1,1.00047755155,2018_Nov_15_1532,59.9869174917,spanish_cond1,001,1035,
images/chameleon.jpg,50 dollar bill,x,sounds/greatgatsby_english.wav,,,,,,,,,0,0,0,0,0,64,64,120,225.248428153,8.98014991435e-06,225.950083836,0.701664983958,,,,,x,1,0.683716550545,2018_Nov_15_1532,59.9869174917,spanish_cond1,001,1035,
images/lamp04b.jpg,parking meter,x,sounds/greatgatsby_english.wav,,,,,,,,,0,0,0,0,0,65,65,209,227.149602243,9.62158924267e-06,227.850712382,0.701136437985,,,,,x,1,0.683796409736,2018_Nov_15_1532,59.9869174917,spanish_cond1,001,1035,
images/diaper01a.jpg,camera,x,sounds/greatgatsby_english.wav,,,,,,,,,0,0,0,0,0,66,66,143,229.031933413,9.94230890683e-06,229.7176891,0.685765628348,,,,,x,1,0.667059334417,2018_Nov_15_1532,59.9869174917,spanish_cond1,001,1035,
images/nailclipper03a.jpg,aquarium,x,sounds/greatgatsby_english.wav,,,,,,,,,0,0,0,0,0,67,67,123,230.882636495,9.62158924267e-06,231.651602893,0.76897633987,,,,,x,1,0.750502567681,2018_Nov_15_1532,59.9869174917,spanish_cond1,001,1035,
images/squirrel.jpg,binder,x,sounds/greatgatsby_english.wav,,,,,,,,,0,0,0,0,0,68,68,132,232.830767469,9.62158924267e-06,233.501796992,0.671039144474,,,,,x,1,0.650222194569,2018_Nov_15_1532,59.9869174917,spanish_cond1,001,1035,
images/acousticguitar02.jpg,acoustic guitar,z,sounds/greatgatsby_english.wav,,,,,,,,,0,0,0,0,0,69,69,97,234.692418957,9.3008696922e-06,235.352416687,0.660007350894,,,,,z,1,0.650385761587,2018_Nov_15_1532,59.9869174917,spanish_cond1,001,1035,
images/ladybug03.jpg,giraffe,x,sounds/greatgatsby_english.wav,,,,,,,,,0,0,0,0,0,70,70,178,236.526875344,9.62158924267e-06,237.302890518,0.776025436916,,,,,x,1,0.767077679581,2018_Nov_15_1532,59.9869174917,spanish_cond1,001,1035,
images/calculator02b.jpg,dice,x,sounds/greatgatsby_english.wav,,,,,,,,,0,0,0,0,0,71,71,165,238.46847358,9.3008696922e-06,239.120007197,0.651542918061,,,,,x,1,0.633716999552,2018_Nov_15_1532,59.9869174917,spanish_cond1,001,1035,
images/handfan01b.jpg,handfan,z,sounds/greatgatsby_english.wav,,,,,,,,,0,0,0,0,0,72,72,69,240.299450158,9.94230890683e-06,241.170654922,0.871214385687,,,,,z,1,0.850573831586,2018_Nov_15_1532,59.9869174917,spanish_cond1,001,1035,
images/fork01.jpg,cooking pot,x,sounds/greatgatsby_english.wav,,,,,,,,,0,0,0,0,0,73,73,160,242.339918242,9.62158935636e-06,242.971195207,0.631287227533,,,,,x,1,0.617285570054,2018_Nov_15_1532,59.9869174917,spanish_cond1,001,1035,
images/scissors04a.jpg,leek,x,sounds/greatgatsby_english.wav,,,,,,,,,0,0,0,0,0,74,74,194,244.125797149,9.30086957851e-06,244.838082764,0.712295557263,,,,,x,1,0.700395254889,2018_Nov_15_1532,59.9869174917,spanish_cond1,001,1035,
images/glasses01b.jpg,calculator,x,sounds/greatgatsby_english.wav,,,,,,,,,0,0,0,0,0,75,75,142,245.955862563,9.62158935636e-06,246.888584241,0.93273097908,,,,,x,1,0.917111932439,2018_Nov_15_1532,59.9869174917,spanish_cond1,001,1035,
images/mushroom01.jpg,shower head,x,sounds/greatgatsby_english.wav,,,,,,,,,0,0,0,0,0,76,76,222,248.092835187,9.3008696922e-06,248.839076995,0.746251749526,,,,,x,1,0.733746890623,2018_Nov_15_1532,59.9869174917,spanish_cond1,001,1035,
images/toucan.jpg,toucan,z,sounds/greatgatsby_english.wav,,,,,,,,,0,0,0,0,0,77,77,81,250.007104261,9.94230902052e-06,250.63954223,0.632448232642,,,,,z,1,0.617068763574,2018_Nov_15_1532,59.9869174917,spanish_cond1,001,1035,
images/eyedrops.jpg,bicycle,x,sounds/greatgatsby_english.wav,,,,,,,,,0,0,0,0,0,78,78,131,251.8129903,9.94230890683e-06,252.623340757,0.810360719797,,,,,x,1,0.80042450452,2018_Nov_15_1532,59.9869174917,spanish_cond1,001,1035,
images/parkingmeter.jpg,ear,x,sounds/greatgatsby_english.wav,,,,,,,,,0,0,0,0,0,79,79,171,253.797072343,9.3008696922e-06,254.557163786,0.760101706613,,,,,x,1,0.750424632808,2018_Nov_15_1532,59.9869174917,spanish_cond1,001,1035,
images/dreamcatcher.jpg,dream catcher,z,sounds/greatgatsby_english.wav,,,,,,,,,0,0,0,0,0,80,80,48,255.744012806,9.30086957851e-06,256.557645828,0.813643606069,,,,,z,1,0.80042450452,2018_Nov_15_1532,59.9869174917,spanish_cond1,001,1035,
images/straw.jpg,straw,z,sounds/greatgatsby_english.wav,,,,,,,,,0,0,0,0,0,81,81,109,257.717172099,9.94230902052e-06,258.441446856,0.724285019699,,,,,z,1,0.700405517917,2018_Nov_15_1532,59.9869174917,spanish_cond1,001,1035,
images/headphones02b.jpg,headphones,z,sounds/greatgatsby_english.wav,,,,,,,,,0,0,0,0,0,82,82,101,259.624082261,9.3008696922e-06,260.291891438,0.667818798533,,,,,z,1,0.650380950793,2018_Nov_15_1532,59.9869174917,spanish_cond1,001,1035,
images/razor04a.jpg,razor,z,sounds/greatgatsby_english.wav,,,,,,,,,0,0,0,0,0,83,83,36,261.425369501,9.30086957851e-06,262.342403178,0.917043298435,,,,,z,1,0.900445736161,2018_Nov_15_1532,59.9869174917,spanish_cond1,001,1035,
images/radish01.jpg,raisin,x,sounds/greatgatsby_english.wav,,,,,,,,,0,0,0,0,0,84,84,214,263.522471543,9.62158935636e-06,264.276061037,0.753600398719,,,,,x,1,0.733591341596,2018_Nov_15_1532,59.9869174917,spanish_cond1,001,1035,
images/aquarium.jpg,computer mouse,x,sounds/greatgatsby_english.wav,,,,,,,,,0,0,0,0,0,85,85,159,265.489324205,9.62158935636e-06,266.176680924,0.687366981528,,,,,x,1,0.666869789108,2018_Nov_15_1532,59.9869174917,spanish_cond1,001,1035,
images/lettuce.jpg,mushroom,x,sounds/greatgatsby_english.wav,,,,,,,,,0,0,0,0,0,86,86,205,267.372779498,8.98015002804e-06,268.010484325,0.637714769909,,,,,x,1,0.617064914939,2018_Nov_15_1532,59.9869174917,spanish_cond1,001,1035,
images/corkscrew02a.jpg,masquerade mask,x,sounds/greatgatsby_english.wav,,,,,,,,,0,0,0,0,0,87,87,201,269.179024101,9.62158924267e-06,269.827577912,0.648564394731,,,,,x,1,0.633712509477,2018_Nov_15_1532,59.9869174917,spanish_cond1,001,1035,
images/panda.jpg,panda,z,sounds/greatgatsby_english.wav,,,,,,,,,0,0,0,0,0,88,88,83,271.003454151,9.94230890683e-06,271.694708575,0.691264687356,,,,,x,0,0.667049071388,2018_Nov_15_1532,59.9869174917,spanish_cond1,001,1035,
images/safe.jpg,safe,z,sounds/greatgatsby_english.wav,,,,,,,,,0,0,0,0,0,89,89,78,272.8767112,8.98015002804e-06,273.645187538,0.768485638816,,,,,z,1,0.750406031069,2018_Nov_15_1532,59.9869174917,spanish_cond1,001,1035,
images/doll.jpg,carrot,x,sounds/greatgatsby_english.wav,,,,,,,,,0,0,0,0,0,90,90,146,274.824596182,9.62158935636e-06,275.595677084,0.771090523761,,,,,x,1,0.750415331938,2018_Nov_15_1532,59.9869174917,spanish_cond1,001,1035,
images/parkbench03.jpg,park bench,z,sounds/greatgatsby_english.wav,,,,,,,,,0,0,0,0,0,91,91,71,276.774666227,9.3008696922e-06,277.412779972,0.638123687455,,,,,z,1,0.617040860966,2018_Nov_15_1532,59.9869174917,spanish_cond1,001,1035,
images/bed.jpg,bed,z,sounds/greatgatsby_english.wav,,,,,,,,,0,0,0,0,0,92,92,103,278.59858537,9.62158924267e-06,279.296587735,0.698011987217,,,,,z,1,0.683730982929,2018_Nov_15_1532,59.9869174917,spanish_cond1,001,1035,
images/rubberglove02a.jpg,lady bug,x,sounds/greatgatsby_english.wav,,,,,,,,,0,0,0,0,0,93,93,192,280.470406878,9.3008696922e-06,281.130384081,0.659986824837,,,,,x,1,0.650403080448,2018_Nov_15_1532,59.9869174917,spanish_cond1,001,1035,
images/lantern03.jpg,lantern,z,sounds/greatgatsby_english.wav,,,,,,,,,0,0,0,0,0,94,94,5,282.306983863,9.62158924267e-06,283.030841684,0.723868084162,,,,,z,1,0.700397820646,2018_Nov_15_1532,59.9869174917,spanish_cond1,001,1035,
images/lemon02.jpg,lemon,z,sounds/greatgatsby_english.wav,,,,,,,,,0,0,0,0,0,95,95,14,284.228955339,8.98015002804e-06,284.831282224,0.602336186028,,,,,z,1,0.583638872247,2018_Nov_15_1532,59.9869174917,spanish_cond1,001,1035,
images/lightbulb03b.jpg,treadmill,x,sounds/greatgatsby_english.wav,,,,,,,,,0,0,0,0,0,96,96,234,285.999519562,9.3008696922e-06,286.665075683,0.665565743037,,,,,x,1,0.650395062457,2018_Nov_15_1532,59.9869174917,spanish_cond1,001,1035,
images/plant01.jpg,plant,z,sounds/greatgatsby_english.wav,,,,,,,,,0,0,0,0,0,97,97,47,287.846181897,8.98015002804e-06,288.765586013,0.91941373732,,,,,z,1,0.900447339759,2018_Nov_15_1532,59.9869174917,spanish_cond1,001,1035,
images/peach01.jpg,peach,z,sounds/greatgatsby_english.wav,,,,,,,,,0,0,0,0,0,98,98,106,289.953606941,8.98015002804e-06,290.61604663,0.66244963098,,,,,z,1,0.650383837269,2018_Nov_15_1532,59.9869174917,spanish_cond1,001,1035,
images/bracelet02a.jpg,chess knight,x,sounds/greatgatsby_english.wav,,,,,,,,,0,0,0,0,0,99,99,152,291.794469061,9.3008696922e-06,292.833264592,1.03880611471,,,,,x,1,1.01714791718,2018_Nov_15_1532,59.9869174917,spanish_cond1,001,1035,
images/honeycomb.jpg,honey comb,z,sounds/greatgatsby_english.wav,,,,,,,,,0,0,0,0,0,100,100,59,294.009076687,9.62158935636e-06,294.733729892,0.724662827439,,,,,z,1,0.700405517917,2018_Nov_15_1532,59.9869174917,spanish_cond1,001,1035,
images/50dollarbill.jpg,cherry,x,sounds/greatgatsby_english.wav,,,,,,,,,0,0,0,0,0,101,101,151,295.88974685,9.3008696922e-06,297.150978131,1.26124122351,,,,,x,1,1.25052469734,2018_Nov_15_1532,59.9869174917,spanish_cond1,001,1035,
images/medal01.jpg,medal,z,sounds/greatgatsby_english.wav,,,,,,,,,0,0,0,0,0,102,102,115,298.271839725,9.62158935636e-06,298.968100262,0.696270479553,,,,,z,1,0.683725209975,2018_Nov_15_1532,59.9869174917,spanish_cond1,001,1035,
images/computermouse02a.jpg,world map,x,sounds/greatgatsby_english.wav,,,,,,,,,0,0,0,0,0,103,103,239,300.139904002,9.62158924267e-06,300.868570373,0.728676313058,,,,,x,1,0.717064016924,2018_Nov_15_1532,59.9869174917,spanish_cond1,001,1035,
images/seagull.jpg,seagull,z,sounds/greatgatsby_english.wav,,,,,,,,,0,0,0,0,0,104,104,50,302.077883238,9.94230890683e-06,302.802383139,0.724509844169,,,,,z,1,0.700399424244,2018_Nov_15_1532,59.9869174917,spanish_cond1,001,1035,
images/ear.jpg,bullet,x,sounds/greatgatsby_english.wav,,,,,,,,,0,0,0,0,0,105,105,139,303.972942487,8.98015002804e-06,304.702853571,0.729920384556,,,,,x,1,0.717075242111,2018_Nov_15_1532,59.9869174917,spanish_cond1,001,1035,
images/button07.jpg,radish,x,sounds/greatgatsby_english.wav,,,,,,,,,0,0,0,0,0,106,106,215,305.903288274,8.98015002804e-06,306.636847544,0.733568570501,,,,,x,1,0.717257410869,2018_Nov_15_1532,59.9869174917,spanish_cond1,001,1035,
images/axe01.jpg,axe,z,sounds/greatgatsby_english.wav,,,,,,,,,0,0,0,0,0,107,107,104,307.806699705,9.62158924267e-06,308.536975768,0.730286004949,,,,,z,1,0.71691456157,2018_Nov_15_1532,59.9869174917,spanish_cond1,001,1035,
images/beachumbrella01.jpg,beach umbrella,z,sounds/greatgatsby_english.wav,,,,,,,,,0,0,0,0,0,108,108,92,309.717329894,9.3008696922e-06,310.570976219,0.8536565888,,,,,z,1,0.833775819535,2018_Nov_15_1532,59.9869174917,spanish_cond1,001,1035,
images/triangleruler02.jpg,bottle of red wine,x,sounds/greatgatsby_english.wav,,,,,,,,,0,0,0,0,0,109,109,134,311.749640153,9.3008696922e-06,312.738170256,0.988540045696,,,,,x,1,0.967138423881,2018_Nov_15_1532,59.9869174917,spanish_cond1,001,1035,
images/rhinoceros01.jpg,envelope,x,sounds/greatgatsby_english.wav,,,,,,,,,0,0,0,0,0,110,110,173,313.923243771,9.62158935636e-06,314.888700021,0.965466512379,,,,,x,1,0.950463888892,2018_Nov_15_1532,59.9869174917,spanish_cond1,001,1035,
images/globe.jpg,cloud,x,sounds/greatgatsby_english.wav,,,,,,,,,0,0,0,0,0,111,111,154,316.127215692,9.94230902052e-06,316.856206951,0.729001522777,,,,,x,1,0.717426109401,2018_Nov_15_1532,59.9869174917,spanish_cond1,001,1035,
images/flamingo.jpg,flamingo,z,sounds/greatgatsby_english.wav,,,,,,,,,0,0,0,0,0,112,112,52,318.021543059,8.98014991435e-06,318.589617407,0.568084290254,,,,,z,1,0.550372868658,2018_Nov_15_1532,59.9869174917,spanish_cond1,001,1035,
images/lock02a.jpg,lock,z,sounds/greatgatsby_english.wav,,,,,,,,,0,0,0,0,0,113,113,65,319.783096984,9.62158924267e-06,320.506744413,0.723658012795,,,,,z,1,0.700393009851,2018_Nov_15_1532,59.9869174917,spanish_cond1,001,1035,
images/nailpolish02b.jpg,nail polish,z,sounds/greatgatsby_english.wav,,,,,,,,,0,0,0,0,0,114,114,94,321.724261928,9.62158924267e-06,322.457233639,0.732980691394,,,,,z,1,0.717073959233,2018_Nov_15_1532,59.9869174917,spanish_cond1,001,1035,
images/swallow.jpg,mattress,x,sounds/greatgatsby_english.wav,,,,,,,,,0,0,0,0,0,115,115,202,323.623298422,9.30086980588e-06,324.341034667,0.717745866886,,,,,x,1,0.700405517917,2018_Nov_15_1532,59.9869174917,spanish_cond1,001,1035,
images/pen03c.jpg,pepper,x,sounds/greatgatsby_english.wav,,,,,,,,,0,0,0,0,0,116,116,211,325.501452539,9.94230890683e-06,326.358197979,0.856755381996,,,,,x,1,0.833769084423,2018_Nov_15_1532,59.9869174917,spanish_cond1,001,1035,
images/masquerademask02b.jpg,mirror,x,sounds/greatgatsby_english.wav,,,,,,,,,0,0,0,0,0,117,117,204,327.53869707,9.62158947004e-06,328.47538573,0.936698601791,,,,,x,1,0.917124761224,2018_Nov_15_1532,59.9869174917,spanish_cond1,001,1035,
images/banana04a.jpg,banana,z,sounds/greatgatsby_english.wav,,,,,,,,,0,0,0,0,0,118,118,118,329.680535974,8.98014991435e-06,330.225814532,0.545287858709,,,,,z,1,0.533698654389,2018_Nov_15_1532,59.9869174917,spanish_cond1,001,1035,
images/coffeepot03b.jpg,coffee pot,z,sounds/greatgatsby_english.wav,,,,,,,,,0,0,0,0,0,119,119,107,331.427845777,9.62158947004e-06,332.092943911,0.665107755386,,,,,z,1,0.650394421018,2018_Nov_15_1532,59.9869174917,spanish_cond1,001,1035,
images/lighter02b.jpg,stapler,x,sounds/greatgatsby_english.wav,,,,,,,,,0,0,0,0,0,120,120,227,333.279862527,9.62158947004e-06,333.976738204,0.696885940549,,,,,x,1,0.68373002077,2018_Nov_15_1532,59.9869174917,spanish_cond1,001,1035,
images/orange.jpg,bat,x,sounds/greatgatsby_english.wav,,,,,,,,,0,0,0,0,0,121,121,128,335.181548165,9.30086957851e-06,335.960576179,0.779037956528,,,,,x,1,0.767093394843,2018_Nov_15_1532,59.9869174917,spanish_cond1,001,1035,
images/apple06.jpg,apple,z,sounds/greatgatsby_english.wav,,,,,,,,,0,0,0,0,0,122,122,13,337.152084614,9.30086957851e-06,337.710998246,0.558923254355,,,,,z,1,0.550369340742,2018_Nov_15_1532,59.9869174917,spanish_cond1,001,1035,
images/flower01.jpg,bus,x,sounds/greatgatsby_english.wav,,,,,,,,,0,0,0,0,0,123,123,140,338.895692992,9.30086957851e-06,339.544796516,0.649112825322,,,,,x,1,0.633733356254,2018_Nov_15_1532,59.9869174917,spanish_cond1,001,1035,
images/lily.jpg,kiwi,x,sounds/greatgatsby_english.wav,,,,,,,,,0,0,0,0,0,124,124,190,340.710065594,9.30086957851e-06,341.44524546,0.735191732617,,,,,x,1,0.717072034915,2018_Nov_15_1532,59.9869174917,spanish_cond1,001,1035,
images/magnifyingglass01b.jpg,magnifying glass,z,sounds/greatgatsby_english.wav,,,,,,,,,0,0,0,0,0,125,125,64,342.621245495,9.62158947004e-06,343.579110632,0.957875078416,,,,,z,1,0.933784863829,2018_Nov_15_1532,59.9869174917,spanish_cond1,001,1035,
images/fryingpan01.jpg,frying pan,z,sounds/greatgatsby_english.wav,,,,,,,,,0,0,0,0,0,126,126,45,344.785166267,9.9423091342e-06,345.662956689,0.877800363568,,,,,z,1,0.867106608492,2018_Nov_15_1532,59.9869174917,spanish_cond1,001,1035,
images/lip.jpg,boxing glove,x,sounds/greatgatsby_english.wav,,,,,,,,,0,0,0,0,0,127,127,136,346.833472739,4.81079466681e-05,347.580088185,0.746640461734,,,,,x,1,0.733735023996,2018_Nov_15_1532,59.9869174917,spanish_cond1,001,1035,
images/licenseplate.jpg,license plate,z,sounds/greatgatsby_english.wav,,,,,,,,,0,0,0,0,0,128,128,40,348.775310232,9.62158924267e-06,349.513932703,0.738632412953,,,,,z,1,0.717102503281,2018_Nov_15_1532,59.9869174917,spanish_cond1,001,1035,
images/sock03.jpg,sock,z,sounds/greatgatsby_english.wav,,,,,,,,,0,0,0,0,0,129,129,90,350.687335872,9.30086980588e-06,351.431065803,0.743740193997,,,,,z,1,0.7337677374,2018_Nov_15_1532,59.9869174917,spanish_cond1,001,1035,
images/sportshorts02.jpg,tape,x,sounds/greatgatsby_english.wav,,,,,,,,,0,0,0,0,0,130,130,230,352.607104004,9.30086957851e-06,353.248160031,0.641066290185,,,,,x,1,0.617048558237,2018_Nov_15_1532,59.9869174917,spanish_cond1,001,1035,
images/banjo.jpg,knife,x,sounds/greatgatsby_english.wav,,,,,,,,,0,0,0,0,0,131,131,191,354.405106755,9.62158947004e-06,355.1319524,0.726855908362,,,,,x,1,0.717070431317,2018_Nov_15_1532,59.9869174917,spanish_cond1,001,1035,
images/carrot02.jpg,corkscrew,x,sounds/greatgatsby_english.wav,,,,,,,,,0,0,0,0,0,132,132,161,356.317061195,9.62158924267e-06,357.04909897,0.732048038671,,,,,x,1,0.71707652499,2018_Nov_15_1532,59.9869174917,spanish_cond1,001,1035,
images/camera01a.jpg,bull,x,sounds/greatgatsby_english.wav,,,,,,,,,0,0,0,0,0,133,133,138,358.240202977,9.62158924267e-06,359.299649967,1.05945725256,,,,,x,1,1.05048351693,2018_Nov_15_1532,59.9869174917,spanish_cond1,001,1035,
images/mattress.jpg,cat,x,sounds/greatgatsby_english.wav,,,,,,,,,0,0,0,0,0,134,134,147,360.43489744,8.98014991435e-06,361.333493907,0.898605767565,,,,,x,1,0.883792368669,2018_Nov_15_1532,59.9869174917,spanish_cond1,001,1035,
images/blueberry02.jpg,blueberry,z,sounds/greatgatsby_english.wav,,,,,,,,,0,0,0,0,0,135,135,46,362.529321152,8.98015014172e-06,363.367320849,0.83800963955,,,,,z,1,0.817088455761,2018_Nov_15_1532,59.9869174917,spanish_cond1,001,1035,
images/bowl02b (1).jpg,bowl,z,sounds/greatgatsby_english.wav,,,,,,,,,0,0,0,0,0,136,136,24,364.544208958,9.30086957851e-06,365.351145675,0.806947300631,,,,,z,1,0.783757025364,2018_Nov_15_1532,59.9869174917,spanish_cond1,001,1035,
images/hat05.jpg,hat,z,sounds/greatgatsby_english.wav,,,,,,,,,0,0,0,0,0,137,137,15,366.528432438,9.62158924267e-06,367.201634195,0.673212020059,,,,,z,1,0.650417192112,2018_Nov_15_1532,59.9869174917,spanish_cond1,001,1035,
images/electrictoothbrush01a.jpg,banjo,x,sounds/greatgatsby_english.wav,,,,,,,,,0,0,0,0,0,138,138,127,368.363133213,9.62158947004e-06,369.035381791,0.672258199839,,,,,x,1,0.650386723746,2018_Nov_15_1532,59.9869174917,spanish_cond1,001,1035,
images/puma.jpg,puma,z,sounds/greatgatsby_english.wav,,,,,,,,,0,0,0,0,0,139,139,4,370.133593843,8.98014991435e-06,370.852624192,0.719040612087,,,,,z,1,0.700522259868,2018_Nov_15_1532,59.9869174917,spanish_cond1,001,1035,
images/dragonfly02.jpg,dragon fly,z,sounds/greatgatsby_english.wav,,,,,,,,,0,0,0,0,0,140,140,29,372.022036647,8.98015014172e-06,372.903014059,0.880987033946,,,,,x,0,0.867109815689,2018_Nov_15_1532,59.9869174917,spanish_cond1,001,1035,
images/antelope.jpg,antelope,z,sounds/greatgatsby_english.wav,,,,,,,,,0,0,0,0,0,141,141,12,374.071001877,8.98014991435e-06,374.986852419,0.91585984295,,,,,z,1,0.900449264077,2018_Nov_15_1532,59.9869174917,spanish_cond1,001,1035,
images/umbrella01.jpg,umbrella,z,sounds/greatgatsby_english.wav,,,,,,,,,0,0,0,0,0,142,142,53,376.20872274,9.30086980588e-06,377.087379105,0.878666627325,,,,,z,1,0.867113985044,2018_Nov_15_1532,59.9869174917,spanish_cond1,001,1035,
images/bandaid01.jpg,door handle,x,sounds/greatgatsby_english.wav,,,,,,,,,0,0,0,0,0,143,143,170,378.263364708,9.30086980588e-06,379.387931897,1.12457681043,,,,,x,1,1.10049589671,2018_Nov_15_1532,59.9869174917,spanish_cond1,001,1035,
images/boxingglove02a.jpg,bracelet,x,sounds/greatgatsby_english.wav,,,,,,,,,0,0,0,0,0,144,144,135,380.525813762,9.62158924267e-06,381.405097775,0.879293954948,,,,,x,1,0.867107249932,2018_Nov_15_1532,59.9869174917,spanish_cond1,001,1035,
images/gps.jpg,gps,z,sounds/greatgatsby_english.wav,,,,,,,,,0,0,0,0,0,145,145,21,382.591500031,9.62158924267e-06,383.405590079,0.814099990122,,,,,z,1,0.800421618043,2018_Nov_15_1532,59.9869174917,spanish_cond1,001,1035,
images/basketball01.jpg,basket ball,z,sounds/greatgatsby_english.wav,,,,,,,,,0,0,0,0,0,146,146,33,384.615328218,8.98015014172e-06,385.272720421,0.657402465949,,,,,z,1,0.633712509477,2018_Nov_15_1532,59.9869174917,spanish_cond1,001,1035,
images/snowman.jpg,globe,x,sounds/greatgatsby_english.wav,,,,,,,,,0,0,0,0,0,147,147,180,386.419827786,9.30086957851e-06,387.556622412,1.13680456756,,,,,x,1,1.11717460106,2018_Nov_15_1532,59.9869174917,spanish_cond1,001,1035,
images/plate01b.jpg,plate,z,sounds/greatgatsby_english.wav,,,,,,,,,0,0,0,0,0,148,148,3,388.68243271,9.62158924267e-06,389.390403042,0.707980595179,,,,,z,1,0.68372104062,2018_Nov_15_1532,59.9869174917,spanish_cond1,001,1035,
images/atm.jpg,atm,z,sounds/greatgatsby_english.wav,,,,,,,,,0,0,0,0,0,149,149,96,390.593701451,8.65943047756e-06,391.624305161,1.03061333142,,,,,z,1,1.01716299101,2018_Nov_15_1532,59.9869174917,spanish_cond1,001,1035,
images/ant.jpg,ant,z,sounds/greatgatsby_english.wav,,,,,,,,,0,0,0,0,0,150,150,98,392.720371278,5.612593759e-05,393.758141789,1.03778205689,,,,,z,1,1.0171350884,2018_Nov_15_1532,59.9869174917,spanish_cond1,001,1035,
images/tent.jpg,tent,z,sounds/greatgatsby_english.wav,,,,,,,,,0,0,0,0,0,151,151,11,394.9279715,8.98014991435e-06,396.108725883,1.18076400551,,,,,z,1,1.16717767997,2018_Nov_15_1532,59.9869174917,spanish_cond1,001,1035,
images/bottleofredwine02.jpg,pipe,x,sounds/greatgatsby_english.wav,,,,,,,,,0,0,0,0,0,152,152,213,397.224411063,9.30086957851e-06,397.909176366,0.684774925368,,,,,x,1,0.667058051538,2018_Nov_15_1532,59.9869174917,spanish_cond1,001,1035,
images/hanger02a.jpg,hanger,z,sounds/greatgatsby_english.wav,,,,,,,,,0,0,0,0,0,153,153,88,399.066340538,9.30086980588e-06,399.676270082,0.609939165898,,,,,z,1,0.600372098931,2018_Nov_15_1532,59.9869174917,spanish_cond1,001,1035,
images/dolphin01.jpg,dolphin,z,sounds/greatgatsby_english.wav,,,,,,,,,0,0,0,0,0,154,154,99,400.841302147,8.98014991435e-06,401.826802412,0.985509886504,,,,,z,1,0.967122708618,2018_Nov_15_1532,59.9869174917,spanish_cond1,001,1035,
images/drink.jpg,drink,z,sounds/greatgatsby_english.wav,,,,,,,,,0,0,0,0,0,155,155,117,402.997897041,9.62158924267e-06,403.860633524,0.862746424938,,,,,z,1,0.850407378091,2018_Nov_15_1532,59.9869174917,spanish_cond1,001,1035,
images/lipstick04.jpg,lipstick,z,sounds/greatgatsby_english.wav,,,,,,,,,0,0,0,0,0,156,156,56,405.084834194,9.30086957851e-06,405.777792923,0.692968991542,,,,,z,1,0.683742849556,2018_Nov_15_1532,59.9869174917,spanish_cond1,001,1035,
images/flipflop01b.jpg,flip flop,z,sounds/greatgatsby_english.wav,,,,,,,,,0,0,0,0,0,157,157,27,406.955485076,9.94230890683e-06,407.74492846,0.789453647673,,,,,z,1,0.767080886777,2018_Nov_15_1532,59.9869174917,spanish_cond1,001,1035,
images/djmixer01.jpg,light bulb,x,sounds/greatgatsby_english.wav,,,,,,,,,0,0,0,0,0,158,158,196,408.930764647,9.62158924267e-06,409.712082599,0.781328215503,,,,,x,1,0.767083452534,2018_Nov_15_1532,59.9869174917,spanish_cond1,001,1035,
images/saltshaker03c.jpg,salt shaker,z,sounds/greatgatsby_english.wav,,,,,,,,,0,0,0,0,0,159,159,63,410.898837327,3.33548427989e-05,411.495862396,0.59705200918,,,,,z,1,0.583700771138,2018_Nov_15_1532,59.9869174917,spanish_cond1,001,1035,
images/bus.jpg,microphone,x,sounds/greatgatsby_english.wav,,,,,,,,,0,0,0,0,0,160,160,203,412.683229377,9.94230890683e-06,413.429685105,0.746465990248,,,,,x,1,0.733754908614,2018_Nov_15_1532,59.9869174917,spanish_cond1,001,1035,
images/screwdriver02b.jpg,cola,x,sounds/greatgatsby_english.wav,,,,,,,,,0,0,0,0,0,161,161,158,414.589602975,9.30086957851e-06,415.380148673,0.790555319648,,,,,x,1,0.767084093973,2018_Nov_15_1532,59.9869174917,spanish_cond1,001,1035,
images/blackolive.jpg,tank,x,sounds/greatgatsby_english.wav,,,,,,,,,0,0,0,0,0,162,162,229,416.562930326,9.30086980588e-06,417.513846429,0.950925725179,,,,,x,1,0.933625466166,2018_Nov_15_1532,59.9869174917,spanish_cond1,001,1035,
images/chessknight02b (1).jpg,cockroach,x,sounds/greatgatsby_english.wav,,,,,,,,,0,0,0,0,0,163,163,155,418.724612795,9.94230890683e-06,419.631196464,0.906593931728,,,,,x,1,0.883778257004,2018_Nov_15_1532,59.9869174917,spanish_cond1,001,1035,
images/notebook02b.jpg,notebook,z,sounds/greatgatsby_english.wav,,,,,,,,,0,0,0,0,0,164,164,7,420.774212409,9.62158924267e-06,421.464991847,0.690789701564,,,,,z,1,0.667069276726,2018_Nov_15_1532,59.9869174917,spanish_cond1,001,1035,
images/bull.jpg,button,x,sounds/greatgatsby_english.wav,,,,,,,,,0,0,0,0,0,165,165,141,422.644804598,9.62158924267e-06,423.31543226,0.670636962041,,,,,x,1,0.650379667914,2018_Nov_15_1532,59.9869174917,spanish_cond1,001,1035,
images/weight01.jpg,weight,z,sounds/greatgatsby_english.wav,,,,,,,,,0,0,0,0,0,166,166,67,424.492363024,9.62158924267e-06,425.132555032,0.640201309306,,,,,z,1,0.617049199676,2018_Nov_15_1532,59.9869174917,spanish_cond1,001,1035,
images/cactus.jpg,cactus,z,sounds/greatgatsby_english.wav,,,,,,,,,0,0,0,0,0,167,167,70,426.327613192,4.0410675183e-05,426.983008594,0.655414966318,,,,,z,1,0.633716037393,2018_Nov_15_1532,59.9869174917,spanish_cond1,001,1035,
images/lollipop03b.jpg,lollipop,z,sounds/greatgatsby_english.wav,,,,,,,,,0,0,0,0,0,168,168,42,428.140547366,9.30086980588e-06,428.816792752,0.676255328757,,,,,z,1,0.667053882183,2018_Nov_15_1532,59.9869174917,spanish_cond1,001,1035,
images/candy.jpg,candy,z,sounds/greatgatsby_english.wav,,,,,,,,,0,0,0,0,0,169,169,31,429.98721836,1.0263028571e-05,430.600568059,0.613360282336,,,,,z,1,0.600370495332,2018_Nov_15_1532,59.9869174917,spanish_cond1,001,1035,
images/8ball.jpg,nail clipper,x,sounds/greatgatsby_english.wav,,,,,,,,,0,0,0,0,0,170,170,206,431.77699369,9.62158924267e-06,432.451025469,0.674041721777,,,,,x,1,0.650389289503,2018_Nov_15_1532,59.9869174917,spanish_cond1,001,1035,
images/kiwi03.jpg,backpack,x,sounds/greatgatsby_english.wav,,,,,,,,,0,0,0,0,0,171,171,125,433.642574314,9.62158924267e-06,434.41818474,0.775621009446,,,,,x,1,0.767088263329,2018_Nov_15_1532,59.9869174917,spanish_cond1,001,1035,
images/graduationcap.jpg,graduation cap,z,sounds/greatgatsby_english.wav,,,,,,,,,0,0,0,0,0,172,172,35,435.582801794,9.62158947004e-06,436.235294684,0.652503152674,,,,,z,1,0.63371924459,2018_Nov_15_1532,59.9869174917,spanish_cond1,001,1035,
images/worldmap.jpg,scooter,x,sounds/greatgatsby_english.wav,,,,,,,,,0,0,0,0,0,173,173,220,437.431445535,9.30086957851e-06,438.185780381,0.75434575117,,,,,x,1,0.733747852782,2018_Nov_15_1532,59.9869174917,spanish_cond1,001,1035,
images/bowtie.jpg,bowtie,z,sounds/greatgatsby_english.wav,,,,,,,,,0,0,0,0,0,174,174,89,439.368223996,9.30086957851e-06,439.952912583,0.584698529949,,,,,z,1,0.567070174741,2018_Nov_15_1532,59.9869174917,spanish_cond1,001,1035,
images/aloe02.jpg,broad sword,x,sounds/greatgatsby_english.wav,,,,,,,,,0,0,0,0,0,175,175,137,441.143586505,9.62158924267e-06,441.786663387,0.643086823939,,,,,x,1,0.633716358113,2018_Nov_15_1532,59.9869174917,spanish_cond1,001,1035,
images/backpack01b.jpg,swallow,x,sounds/greatgatsby_english.wav,,,,,,,,,0,0,0,0,0,176,176,228,442.983146824,9.30086980588e-06,443.703802901,0.720665377801,,,,,x,1,0.700394934169,2018_Nov_15_1532,59.9869174917,spanish_cond1,001,1035,
images/tank.jpg,wallet,x,sounds/greatgatsby_english.wav,,,,,,,,,0,0,0,0,0,177,177,237,444.878689078,8.98014991435e-06,445.754307265,0.875628129422,,,,,x,1,0.867079988762,2018_Nov_15_1532,59.9869174917,spanish_cond1,001,1035,
images/cigar.jpg,crocodile,x,sounds/greatgatsby_english.wav,,,,,,,,,0,0,0,0,0,178,178,162,446.920722915,9.30086957851e-06,447.754793797,0.834080503196,,,,,x,1,0.817085569284,2018_Nov_15_1532,59.9869174917,spanish_cond1,001,1035,
images/flashlight05.jpg,flash light,z,sounds/greatgatsby_english.wav,,,,,,,,,0,0,0,0,0,179,179,8,448.928526024,9.62158947004e-06,449.75528578,0.826770340361,,,,,z,1,0.817081399928,2018_Nov_15_1532,59.9869174917,spanish_cond1,001,1035,
images/hairpin.jpg,hair pin,z,sounds/greatgatsby_english.wav,,,,,,,,,0,0,0,0,0,180,180,28,450.910985225,9.62158924267e-06,451.972504705,1.06152942218,,,,,z,1,1.05048383765,2018_Nov_15_1532,59.9869174917,spanish_cond1,001,1035,
images/grasshopper.jpg,cauliflower,x,sounds/greatgatsby_english.wav,,,,,,,,,0,0,0,0,0,181,181,148,453.149620845,9.62158924267e-06,453.906327093,0.756716190056,,,,,x,1,0.733750739259,2018_Nov_15_1532,59.9869174917,spanish_cond1,001,1035,
images/scooter.jpg,pen,x,sounds/greatgatsby_english.wav,,,,,,,,,0,0,0,0,0,182,182,212,455.065942845,9.62158924267e-06,455.823467569,0.757535308026,,,,,x,1,0.733752342857,2018_Nov_15_1532,59.9869174917,spanish_cond1,001,1035,
images/candycane01a.jpg,lip,x,sounds/greatgatsby_english.wav,,,,,,,,,0,0,0,0,0,183,183,200,456.977260657,9.30086957851e-06,457.607231009,0.629979974265,,,,,x,1,0.617044068162,2018_Nov_15_1532,59.9869174917,spanish_cond1,001,1035,
images/giraffe.jpg,lettuce,x,sounds/greatgatsby_english.wav,,,,,,,,,0,0,0,0,0,184,184,195,458.768972171,9.62158924267e-06,459.391001184,0.622038955891,,,,,x,1,0.600377871884,2018_Nov_15_1532,59.9869174917,spanish_cond1,001,1035,
images/doorhandle.jpg,doll,x,sounds/greatgatsby_english.wav,,,,,,,,,0,0,0,0,0,185,185,168,460.525476044,9.30086957851e-06,461.141435759,0.615969336636,,,,,x,1,0.600380116922,2018_Nov_15_1532,59.9869174917,spanish_cond1,001,1035,
images/eraser.jpg,eraser,z,sounds/greatgatsby_english.wav,,,,,,,,,0,0,0,0,0,186,186,110,462.319199432,9.62158924267e-06,463.12526732,0.806078471117,,,,,z,1,0.783756383924,2018_Nov_15_1532,59.9869174917,spanish_cond1,001,1035,
images/gluestick.jpg,squirrel,x,sounds/greatgatsby_english.wav,,,,,,,,,0,0,0,0,0,187,187,226,464.307013369,9.62158924267e-06,464.97572473,0.668721624329,,,,,x,1,0.650395062457,2018_Nov_15_1532,59.9869174917,spanish_cond1,001,1035,
images/cauliflower01.jpg,glue stick,x,sounds/greatgatsby_english.wav,,,,,,,,,0,0,0,0,0,188,188,181,466.173962825,9.62158924267e-06,466.826301769,0.652349207245,,,,,x,1,0.633838873017,2018_Nov_15_1532,59.9869174917,spanish_cond1,001,1035,
images/butterfly.jpg,butterfly,z,sounds/greatgatsby_english.wav,,,,,,,,,0,0,0,0,0,189,189,91,468.006102653,9.62158947004e-06,468.676684452,0.670592061291,,,,,z,1,0.650202951391,2018_Nov_15_1532,59.9869174917,spanish_cond1,001,1035,
images/hairband.jpg,hairband,z,sounds/greatgatsby_english.wav,,,,,,,,,0,0,0,0,0,190,190,66,469.852790325,9.62158947004e-06,470.510416653,0.65763594985,,,,,z,1,0.633719886029,2018_Nov_15_1532,59.9869174917,spanish_cond1,001,1035,
images/pineapple01a.jpg,pineapple,z,sounds/greatgatsby_english.wav,,,,,,,,,0,0,0,0,0,191,191,51,471.710429931,9.30086957851e-06,472.294181376,0.583763311469,,,,,z,1,0.567028801907,2018_Nov_15_1532,59.9869174917,spanish_cond1,001,1035,
images/donut.jpg,rhinoceros,x,sounds/greatgatsby_english.wav,,,,,,,,,0,0,0,0,0,192,192,216,473.487197193,9.30086957851e-06,474.077964059,0.590777129354,,,,,x,1,0.567038744216,2018_Nov_15_1532,59.9869174917,spanish_cond1,001,1035,
images/electricguitar02.jpg,electric guitar,z,sounds/greatgatsby_english.wav,,,,,,,,,0,0,0,0,0,193,193,100,475.245180225,9.94230890683e-06,476.361863804,1.11669352159,,,,,z,1,1.10050519758,2018_Nov_15_1532,59.9869174917,spanish_cond1,001,1035,
images/hairdryer03a.jpg,hairdryer,z,sounds/greatgatsby_english.wav,,,,,,,,,0,0,0,0,0,194,194,119,477.490499643,9.30086957851e-06,478.178973428,0.688483406607,,,,,z,1,0.667059975856,2018_Nov_15_1532,59.9869174917,spanish_cond1,001,1035,
images/pouch01b.jpg,pouch,z,sounds/greatgatsby_english.wav,,,,,,,,,0,0,0,0,0,195,195,25,479.369230735,9.30086980588e-06,480.212799408,0.843578294721,,,,,x,0,0.833758821394,2018_Nov_15_1532,59.9869174917,spanish_cond1,001,1035,
images/microphone01.jpg,diaper,x,sounds/greatgatsby_english.wav,,,,,,,,,0,0,0,0,0,196,196,164,481.393384131,9.30086957851e-06,482.313326735,0.919952546322,,,,,x,1,0.900451829834,2018_Nov_15_1532,59.9869174917,spanish_cond1,001,1035,
images/arrow02.jpg,hammer,x,sounds/greatgatsby_english.wav,,,,,,,,,0,0,0,0,0,197,197,184,483.468552798,9.62158924267e-06,484.363830137,0.895287281414,,,,,x,1,0.883784029958,2018_Nov_15_1532,59.9869174917,spanish_cond1,001,1035,
images/treadmill.jpg,lily,x,sounds/greatgatsby_english.wav,,,,,,,,,0,0,0,0,0,198,198,199,485.530777219,9.30086957851e-06,486.330989407,0.800223092584,,,,,x,1,0.783763439757,2018_Nov_15_1532,59.9869174917,spanish_cond1,001,1035,
images/clothespin02a.jpg,clothes pin,z,sounds/greatgatsby_english.wav,,,,,,,,,0,0,0,0,0,199,199,79,487.516916358,8.98015014172e-06,488.198108203,0.6812014671,,,,,z,1,0.667061579454,2018_Nov_15_1532,59.9869174917,spanish_cond1,001,1035,
images/gamecontroller01.jpg,game controller,z,sounds/greatgatsby_english.wav,,,,,,,,,0,0,0,0,0,200,200,112,489.392231465,9.30086980588e-06,490.18193367,0.789711506266,,,,,z,1,0.767077038141,2018_Nov_15_1532,59.9869174917,spanish_cond1,001,1035,
images/ladder.jpg,ladder,z,sounds/greatgatsby_english.wav,,,,,,,,,0,0,0,0,0,201,201,113,491.30949189,9.62158947004e-06,492.015721035,0.706238766795,,,,,z,1,0.683719757741,2018_Nov_15_1532,59.9869174917,spanish_cond1,001,1035,
images/highlighter03b.jpg,coin,x,sounds/greatgatsby_english.wav,,,,,,,,,0,0,0,0,0,202,202,156,493.18630989,9.30086957851e-06,494.049560807,0.863260859246,,,,,x,1,0.850448109486,2018_Nov_15_1532,59.9869174917,spanish_cond1,001,1035,
images/ruler02b.jpg,watermelon,x,sounds/greatgatsby_english.wav,,,,,,,,,0,0,0,0,0,203,203,238,495.221387638,9.30086980588e-06,495.916684092,0.695305754865,,,,,x,1,0.683724568536,2018_Nov_15_1532,59.9869174917,spanish_cond1,001,1035,
images/grandpiano.jpg,tulip,x,sounds/greatgatsby_english.wav,,,,,,,,,0,0,0,0,0,204,204,236,497.103202129,9.62158924267e-06,497.850488841,0.747296333405,,,,,x,1,0.73374079695,2018_Nov_15_1532,59.9869174917,spanish_cond1,001,1035,
images/envelope02a.jpg,grand piano,x,sounds/greatgatsby_english.wav,,,,,,,,,0,0,0,0,0,205,205,182,499.038907783,9.30086957851e-06,499.734286341,0.695388179813,,,,,x,1,0.683727775732,2018_Nov_15_1532,59.9869174917,spanish_cond1,001,1035,
images/lychee02a.jpg,lychee,z,sounds/greatgatsby_english.wav,,,,,,,,,0,0,0,0,0,206,206,62,500.918824896,9.62158924267e-06,502.068196863,1.1493819091,,,,,z,1,1.13384047661,2018_Nov_15_1532,59.9869174917,spanish_cond1,001,1035,
images/mitten01.jpg,mitten,z,sounds/greatgatsby_english.wav,,,,,,,,,0,0,0,0,0,207,207,102,503.246177984,9.30086980588e-06,503.901985832,0.655817469471,,,,,z,1,0.633721810347,2018_Nov_15_1532,59.9869174917,spanish_cond1,001,1035,
images/swan.jpg,swan,z,sounds/greatgatsby_english.wav,,,,,,,,,0,0,0,0,0,208,208,54,505.058044162,8.98015014172e-06,506.069188207,1.01115430848,,,,,z,1,1.00047851371,2018_Nov_15_1532,59.9869174917,spanish_cond1,001,1035,
images/baseball01a.jpg,baseball,z,sounds/greatgatsby_english.wav,,,,,,,,,0,0,0,0,0,209,209,74,507.270527982,9.30086980588e-06,508.019680961,0.749162280291,,,,,z,1,0.733760040128,2018_Nov_15_1532,59.9869174917,spanish_cond1,001,1035,
images/key03b.jpg,cigar,x,sounds/greatgatsby_english.wav,,,,,,,,,0,0,0,0,0,210,210,153,509.186554919,9.62158924267e-06,509.920129904,0.733584927203,,,,,x,1,0.71706722412,2018_Nov_15_1532,59.9869174917,spanish_cond1,001,1035,
images/screw03c.jpg,screw,z,sounds/greatgatsby_english.wav,,,,,,,,,0,0,0,0,0,211,211,84,511.081844446,9.30086957851e-06,511.770587956,0.688753452547,,,,,z,1,0.666910841222,2018_Nov_15_1532,59.9869174917,spanish_cond1,001,1035,
images/cake.jpg,cake,z,sounds/greatgatsby_english.wav,,,,,,,,,0,0,0,0,0,212,212,23,512.948796467,9.62158924267e-06,513.904455052,0.955668206549,,,,,z,1,0.933795126858,2018_Nov_15_1532,59.9869174917,spanish_cond1,001,1035,
images/thumbtack02a.jpg,thumb tack,z,sounds/greatgatsby_english.wav,,,,,,,,,0,0,0,0,0,213,213,60,515.081015065,9.62158924267e-06,515.921625741,0.840620618168,,,,,z,1,0.81710737822,2018_Nov_15_1532,59.9869174917,spanish_cond1,001,1035,
images/broadsword.jpg,teapot,x,sounds/greatgatsby_english.wav,,,,,,,,,0,0,0,0,0,214,214,231,517.087108738,9.30086957851e-06,517.805404318,0.718305843384,,,,,x,1,0.700388519776,2018_Nov_15_1532,59.9869174917,spanish_cond1,001,1035,
images/pipe.jpg,icecube,x,sounds/greatgatsby_english.wav,,,,,,,,,0,0,0,0,0,215,215,188,518.97813141,9.62158924267e-06,519.739224141,0.761102672621,,,,,x,1,0.750411483303,2018_Nov_15_1532,59.9869174917,spanish_cond1,001,1035,
images/cola.jpg,comb,x,sounds/greatgatsby_english.wav,,,,,,,,,0,0,0,0,0,216,216,157,520.927657194,9.62158924267e-06,521.739725425,0.812078814928,,,,,x,1,0.800436371147,2018_Nov_15_1532,59.9869174917,spanish_cond1,001,1035,
images/pictureframe04.jpg,picture frame,z,sounds/greatgatsby_english.wav,,,,,,,,,0,0,0,0,0,217,217,41,522.94200587,9.94230890683e-06,523.540159552,0.598164264904,,,,,z,1,0.583705261213,2018_Nov_15_1532,59.9869174917,spanish_cond1,001,1035,
images/cookingpot.jpg,grasshopper,x,sounds/greatgatsby_english.wav,,,,,,,,,0,0,0,0,0,218,218,183,524.729896972,9.30086980588e-06,525.473969111,0.744082081137,,,,,x,1,0.733741759109,2018_Nov_15_1532,59.9869174917,spanish_cond1,001,1035,
images/table02.jpg,table,z,sounds/greatgatsby_english.wav,,,,,,,,,0,0,0,0,0,219,219,49,526.638877699,9.30086957851e-06,527.274415745,0.635547667278,,,,,z,1,0.617050482555,2018_Nov_15_1532,59.9869174917,spanish_cond1,001,1035,
images/marker01a.jpg,marker,z,sounds/greatgatsby_english.wav,,,,,,,,,0,0,0,0,0,220,220,95,528.443001384,9.30086980588e-06,529.158209717,0.715217633936,,,,,z,1,0.700396858487,2018_Nov_15_1532,59.9869174917,spanish_cond1,001,1035,
images/nametag01a.jpg,name tag,z,sounds/greatgatsby_english.wav,,,,,,,,,0,0,0,0,0,221,221,108,530.350999747,9.62158924267e-06,531.325413376,0.974423570585,,,,,z,1,0.950460040257,2018_Nov_15_1532,59.9869174917,spanish_cond1,001,1035,
images/apricot.jpg,apricot,z,sounds/greatgatsby_english.wav,,,,,,,,,0,0,0,0,0,222,222,32,532.520415088,9.30086980588e-06,533.442604654,0.922198866705,,,,,z,1,0.900439963207,2018_Nov_15_1532,59.9869174917,spanish_cond1,001,1035,
images/beermug01b.jpg,beer mug,z,sounds/greatgatsby_english.wav,,,,,,,,,0,0,0,0,0,223,223,111,534.635100905,8.98015014172e-06,535.576456677,0.941366034763,,,,,z,1,0.917115460355,2018_Nov_15_1532,59.9869174917,spanish_cond1,001,1035,
images/floorlamp.jpg,floor lamp,z,sounds/greatgatsby_english.wav,,,,,,,,,0,0,0,0,0,224,224,26,536.768464151,9.30086980588e-06,537.760513511,0.992058660906,,,,,z,1,0.983986468197,2018_Nov_15_1532,59.9869174917,spanish_cond1,001,1035,
images/puzzle.jpg,puzzle,z,sounds/greatgatsby_english.wav,,,,,,,,,0,0,0,0,0,225,225,57,538.976541924,9.62158924267e-06,539.877528393,0.900996411789,,,,,z,1,0.883778257004,2018_Nov_15_1532,59.9869174917,spanish_cond1,001,1035,
images/diploma01.jpg,glasses,x,sounds/greatgatsby_english.wav,,,,,,,,,0,0,0,0,0,226,226,179,541.068920727,9.94230890683e-06,541.861358992,0.792448206985,,,,,x,1,0.783765364074,2018_Nov_15_1532,59.9869174917,spanish_cond1,001,1035,
images/sunglasses03a.jpg,sun glasses,z,sounds/greatgatsby_english.wav,,,,,,,,,0,0,0,0,0,227,227,17,543.041062377,9.30086980588e-06,543.911858545,0.870806430301,,,,,z,1,0.850301540609,2018_Nov_15_1532,59.9869174917,spanish_cond1,001,1035,
images/hand01a.jpg,cupcake,x,sounds/greatgatsby_english.wav,,,,,,,,,0,0,0,0,0,228,228,163,545.099253108,9.94230890683e-06,545.89567439,0.796431224238,,,,,x,1,0.78374259298,2018_Nov_15_1532,59.9869174917,spanish_cond1,001,1035,
images/computerkeyboard01a.jpg,computer keyboard,z,sounds/greatgatsby_english.wav,,,,,,,,,0,0,0,0,0,229,229,61,547.082953815,9.30086980588e-06,547.929501974,0.846558421649,,,,,z,1,0.833758500674,2018_Nov_15_1532,59.9869174917,spanish_cond1,001,1035,
images/teapot.jpg,light switch,x,sounds/greatgatsby_english.wav,,,,,,,,,0,0,0,0,0,230,230,197,549.111025123,9.30086957851e-06,549.829973047,0.718957866419,,,,,x,1,0.700397499926,2018_Nov_15_1532,59.9869174917,spanish_cond1,001,1035,
images/highheelshoe02a.jpg,high heel shoe,z,sounds/greatgatsby_english.wav,,,,,,,,,0,0,0,0,0,231,231,75,551.00459495,9.9423091342e-06,551.647097102,0.642512735777,,,,,z,1,0.633725338263,2018_Nov_15_1532,59.9869174917,spanish_cond1,001,1035,
images/watermelon01.jpg,orange,x,sounds/greatgatsby_english.wav,,,,,,,,,0,0,0,0,0,232,232,207,552.834296027,9.30086980588e-06,553.547560478,0.713274714335,,,,,x,1,0.700398141366,2018_Nov_15_1532,59.9869174917,spanish_cond1,001,1035,
images/desktopcomputer.jpg,desktop computer,z,sounds/greatgatsby_english.wav,,,,,,,,,0,0,0,0,0,233,233,16,554.745346037,9.30086980588e-06,555.564728601,0.81939250568,,,,,z,1,0.800426749558,2018_Nov_15_1532,59.9869174917,spanish_cond1,001,1035,
images/showerhead01.jpg,skateboard,x,sounds/greatgatsby_english.wav,,,,,,,,,0,0,0,0,0,234,234,223,556.746651687,9.30086957851e-06,557.448524818,0.701883394035,,,,,x,1,0.683727134293,2018_Nov_15_1532,59.9869174917,spanish_cond1,001,1035,
images/dice05a.jpg,band aid,x,sounds/greatgatsby_english.wav,,,,,,,,,0,0,0,0,0,235,235,126,558.637504699,9.30086980588e-06,559.432348681,0.794853604312,,,,,x,1,0.783761194719,2018_Nov_15_1532,59.9869174917,spanish_cond1,001,1035,
images/battery03b.jpg,battery,z,sounds/greatgatsby_english.wav,,,,,,,,,0,0,0,0,0,236,236,34,560.621037669,9.62158924267e-06,561.499526297,0.878498890952,,,,,z,1,0.867114305764,2018_Nov_15_1532,59.9869174917,spanish_cond1,001,1035,
,,,sounds/greatgatsby_english.wav,,,,,,,,,0,0,0,0,,,,,,,,,,,,,,,,2018_Nov_15_1532,59.9869174917,spanish_cond1,001,1035,
images/cat.jpg,black olive,x,sounds/animalfarm_spanish.wav,,,,,,,,,0,1,1,1,0,0,0,133,582.65375428,9.30086980588e-06,583.588320738,0.934577041349,,,,572.502440035,x,1,0.917139193608,2018_Nov_15_1532,59.9869174917,spanish_cond1,001,1035,
images/apple06.jpg,apple,z,sounds/animalfarm_spanish.wav,,,,,,,,,0,1,1,1,0,1,1,13,584.71282699,9.62158924267e-06,585.488791169,0.775974121774,,,,,z,1,0.76710558219,2018_Nov_15_1532,59.9869174917,spanish_cond1,001,1035,
images/notebook02b.jpg,notebook,z,sounds/animalfarm_spanish.wav,,,,,,,,,0,1,1,1,0,2,2,7,586.592754366,9.62158924267e-06,587.155838316,0.5630938926,,,,,z,1,0.550354908358,2018_Nov_15_1532,59.9869174917,spanish_cond1,001,1035,
images/rubberglove02a.jpg,lady bug,x,sounds/animalfarm_spanish.wav,,,,,,,,,0,1,1,1,0,3,3,192,588.258177389,8.98015014172e-06,589.072991301,0.814823533638,,,,,x,1,0.800423863081,2018_Nov_15_1532,59.9869174917,spanish_cond1,001,1035,
images/umbrella01.jpg,umbrella,z,sounds/animalfarm_spanish.wav,,,,,,,,,0,1,1,1,0,4,4,53,590.183289352,9.30086957851e-06,590.890106056,0.706826645901,,,,,z,1,0.683699231684,2018_Nov_15_1532,59.9869174917,spanish_cond1,001,1035,
images/radish01.jpg,raisin,x,sounds/animalfarm_spanish.wav,,,,,,,,,0,1,1,1,0,5,5,214,591.998424946,8.98014991435e-06,592.707215358,0.708800033868,,,,,x,1,0.70038531258,2018_Nov_15_1532,59.9869174917,spanish_cond1,001,1035,
images/plant01.jpg,plant,z,sounds/animalfarm_spanish.wav,,,,,,,,,0,1,1,1,0,6,6,47,593.81676485,6.99168822393e-05,594.524330754,0.707620106299,,,,,z,1,0.683731624368,2018_Nov_15_1532,59.9869174917,spanish_cond1,001,1035,
images/dreamcatcher.jpg,dream catcher,z,sounds/animalfarm_spanish.wav,,,,,,,,,0,1,1,1,0,7,7,48,595.620609829,9.30086957851e-06,596.491488742,0.870888534529,,,,,z,1,0.850440091495,2018_Nov_15_1532,59.9869174917,spanish_cond1,001,1035,
images/flower01.jpg,bus,x,sounds/animalfarm_spanish.wav,,,,,,,,,0,1,1,1,0,8,8,140,597.603263387,9.30086957851e-06,598.358612349,0.755358583805,,,,,x,1,0.733743683427,2018_Nov_15_1532,59.9869174917,spanish_cond1,001,1035,
images/ear.jpg,bullet,x,sounds/animalfarm_spanish.wav,,,,,,,,,0,1,1,1,0,9,9,139,599.459596701,9.62158924267e-06,600.259083742,0.799496983311,,,,,x,1,0.783762156878,2018_Nov_15_1532,59.9869174917,spanish_cond1,001,1035,
images/fork01.jpg,cooking pot,x,sounds/animalfarm_spanish.wav,,,,,,,,,0,1,1,1,0,10,10,160,601.350617129,9.94230890683e-06,602.092865656,0.742258148524,,,,,x,1,0.733742721268,2018_Nov_15_1532,59.9869174917,spanish_cond1,001,1035,
images/fryingpan01.jpg,frying pan,z,sounds/animalfarm_spanish.wav,,,,,,,,,0,1,1,1,0,11,11,45,603.19122588,9.62158924267e-06,603.793284323,0.602068385125,,,,,z,1,0.583702374737,2018_Nov_15_1532,59.9869174917,spanish_cond1,001,1035,
images/wallet01.jpg,lamp,x,sounds/animalfarm_spanish.wav,,,,,,,,,0,1,1,1,0,12,12,193,604.895894404,8.98014991435e-06,605.810453087,0.914568304945,,,,,x,1,0.900458564946,2018_Nov_15_1532,59.9869174917,spanish_cond1,001,1035,
images/cactus.jpg,cactus,z,sounds/animalfarm_spanish.wav,,,,,,,,,0,1,1,1,0,13,13,70,606.919648183,9.30086957851e-06,607.627557579,0.707919337727,,,,,z,1,0.683723927097,2018_Nov_15_1532,59.9869174917,spanish_cond1,001,1035,
images/nailpolish02b.jpg,nail polish,z,sounds/animalfarm_spanish.wav,,,,,,,,,0,1,1,1,0,14,14,94,608.733818411,9.30086957851e-06,609.344648215,0.610839746657,,,,,z,1,0.600367608855,2018_Nov_15_1532,59.9869174917,spanish_cond1,001,1035,
images/gorilla.jpg,gorilla,z,sounds/animalfarm_spanish.wav,,,,,,,,,0,1,1,1,0,15,15,80,610.453408416,9.62158947004e-06,611.211778236,0.758380404286,,,,,z,1,0.750408596826,2018_Nov_15_1532,59.9869174917,spanish_cond1,001,1035,
images/tissuebox03.jpg,tissue box,z,sounds/animalfarm_spanish.wav,,,,,,,,,0,1,1,1,0,16,16,58,612.335065754,9.30086957851e-06,613.012223267,0.677167134703,,,,,z,1,0.667055806501,2018_Nov_15_1532,59.9869174917,spanish_cond1,001,1035,
images/mitten01.jpg,mitten,z,sounds/animalfarm_spanish.wav,,,,,,,,,0,1,1,1,0,17,17,102,614.130192291,9.30086957851e-06,614.762653994,0.632471645176,,,,,z,1,0.617042143844,2018_Nov_15_1532,59.9869174917,spanish_cond1,001,1035,
images/safe.jpg,safe,z,sounds/animalfarm_spanish.wav,,,,,,,,,0,1,1,1,0,18,18,78,615.871341711,9.30086957851e-06,616.979889916,1.10855814711,,,,,z,1,1.10052123356,2018_Nov_15_1532,59.9869174917,spanish_cond1,001,1035,
images/clothespin02a.jpg,clothes pin,z,sounds/animalfarm_spanish.wav,,,,,,,,,0,1,1,1,0,19,19,79,618.082210708,9.9423091342e-06,618.696994023,0.614793257703,,,,,z,1,0.600392624988,2018_Nov_15_1532,59.9869174917,spanish_cond1,001,1035,
images/butterfly.jpg,butterfly,z,sounds/animalfarm_spanish.wav,,,,,,,,,0,1,1,1,0,20,20,91,619.801905588,8.98014991435e-06,620.48073405,0.678838084046,,,,,z,1,0.667059655136,2018_Nov_15_1532,59.9869174917,spanish_cond1,001,1035,
images/acousticguitar02.jpg,acoustic guitar,z,sounds/animalfarm_spanish.wav,,,,,,,,,0,1,1,1,0,21,21,97,621.59231498,9.62158924267e-06,622.247840595,0.655534915465,,,,,z,1,0.633722451786,2018_Nov_15_1532,59.9869174917,spanish_cond1,001,1035,
images/computerkeyboard01a.jpg,computer keyboard,z,sounds/animalfarm_spanish.wav,,,,,,,,,0,1,1,1,0,22,22,61,623.363728468,8.98015014172e-06,624.0652007,0.70148249448,,,,,x,0,0.683979540652,2018_Nov_15_1532,59.9869174917,spanish_cond1,001,1035,
images/gps.jpg,gps,z,sounds/animalfarm_spanish.wav,,,,,,,,,0,1,1,1,0,23,23,21,625.181285496,9.30086957851e-06,625.732024305,0.55074875208,,,,,z,1,0.533685825603,2018_Nov_15_1532,59.9869174917,spanish_cond1,001,1035,
images/straw.jpg,straw,z,sounds/animalfarm_spanish.wav,,,,,,,,,0,1,1,1,0,24,24,109,626.820667687,9.94230890683e-06,627.432446501,0.611788756082,,,,,z,1,0.600373702529,2018_Nov_15_1532,59.9869174917,spanish_cond1,001,1035,
images/desktopcomputer.jpg,desktop computer,z,sounds/animalfarm_spanish.wav,,,,,,,,,0,1,1,1,0,25,25,16,628.565302047,9.30086957851e-06,629.216228222,0.650936437215,,,,,z,1,0.633723734665,2018_Nov_15_1532,59.9869174917,spanish_cond1,001,1035,
images/teapot.jpg,light switch,x,sounds/animalfarm_spanish.wav,,,,,,,,,0,1,1,1,0,26,26,197,630.330145915,9.62158947004e-06,631.133358756,0.803222462691,,,,,x,1,0.783750610971,2018_Nov_15_1532,59.9869174917,spanish_cond1,001,1035,
images/electrictoothbrush01a.jpg,banjo,x,sounds/animalfarm_spanish.wav,,,,,,,,,0,1,1,1,0,27,27,127,632.225122419,9.62158924267e-06,633.117184543,0.892071746267,,,,,x,1,0.883785633556,2018_Nov_15_1532,59.9869174917,spanish_cond1,001,1035,
images/seagull.jpg,seagull,z,sounds/animalfarm_spanish.wav,,,,,,,,,0,1,1,1,0,28,28,50,634.221844664,9.62158947004e-06,635.000987175,0.779152453441,,,,,z,1,0.767077358861,2018_Nov_15_1532,59.9869174917,spanish_cond1,001,1035,
images/beermug01b.jpg,beer mug,z,sounds/animalfarm_spanish.wav,,,,,,,,,0,1,1,1,0,29,29,111,636.114940789,9.62158924267e-06,636.701401994,0.586471147419,,,,,z,1,0.567030084785,2018_Nov_15_1532,59.9869174917,spanish_cond1,001,1035,
images/tent.jpg,tent,z,sounds/animalfarm_spanish.wav,,,,,,,,,0,1,1,1,0,30,30,11,637.825236338,9.62158924267e-06,638.55185299,0.726626273097,,,,,z,1,0.716969725348,2018_Nov_15_1532,59.9869174917,spanish_cond1,001,1035,
images/hammer02a.jpg,flower,x,sounds/animalfarm_spanish.wav,,,,,,,,,0,1,1,1,0,31,31,176,639.645291451,8.98015014172e-06,640.368979932,0.723698423471,,,,,x,1,0.700407762955,2018_Nov_15_1532,59.9869174917,spanish_cond1,001,1035,
images/skateboard.jpg,key,x,sounds/animalfarm_spanish.wav,,,,,,,,,0,1,1,1,0,32,32,189,641.458083546,9.94230890683e-06,642.219270889,0.761197284916,,,,,x,1,0.750257217154,2018_Nov_15_1532,59.9869174917,spanish_cond1,001,1035,
images/radio03a.jpg,radio,z,sounds/animalfarm_spanish.wav,,,,,,,,,0,1,1,1,0,33,33,37,643.331202365,9.94230890683e-06,644.036541513,0.705349411223,,,,,z,1,0.68372970005,2018_Nov_15_1532,59.9869174917,spanish_cond1,001,1035,
images/broadsword.jpg,teapot,x,sounds/animalfarm_spanish.wav,,,,,,,,,0,1,1,1,0,34,34,231,645.126812868,9.94230890683e-06,645.920340617,0.793537691614,,,,,x,1,0.783756063205,2018_Nov_15_1532,59.9869174917,spanish_cond1,001,1035,
images/bowlingball.jpg,bowling ball,z,sounds/animalfarm_spanish.wav,,,,,,,,,0,1,1,1,0,35,35,20,647.050086466,9.30086957851e-06,647.737458579,0.687382055351,,,,,z,1,0.667059655136,2018_Nov_15_1532,59.9869174917,spanish_cond1,001,1035,
images/chessknight02b (1).jpg,cockroach,x,sounds/animalfarm_spanish.wav,,,,,,,,,0,1,1,1,0,36,36,155,648.844322685,9.30086957851e-06,649.554612141,0.710299077482,,,,,x,1,0.70019608799,2018_Nov_15_1532,59.9869174917,spanish_cond1,001,1035,
images/scissors04a.jpg,leek,x,sounds/animalfarm_spanish.wav,,,,,,,,,0,1,1,1,0,37,37,194,650.646425515,9.30086957851e-06,651.321675388,0.675259814983,,,,,x,1,0.667057730819,2018_Nov_15_1532,59.9869174917,spanish_cond1,001,1035,
images/croissant02b.jpg,croissant,z,sounds/animalfarm_spanish.wav,,,,,,,,,0,1,1,1,0,38,38,39,652.430822056,9.94230890683e-06,653.088775518,0.657963404606,,,,,z,1,0.633714754515,2018_Nov_15_1532,59.9869174917,spanish_cond1,001,1035,
images/banana04a.jpg,banana,z,sounds/animalfarm_spanish.wav,,,,,,,,,0,1,1,1,0,39,39,118,654.193727173,9.62158947004e-06,654.822533313,0.628816403399,,,,,z,1,0.617041502405,2018_Nov_15_1532,59.9869174917,spanish_cond1,001,1035,
images/coffeepot03b.jpg,coffee pot,z,sounds/animalfarm_spanish.wav,,,,,,,,,0,1,1,1,0,40,40,107,655.941962253,1.0263028571e-05,656.572970454,0.631018464471,,,,,z,1,0.617046633919,2018_Nov_15_1532,59.9869174917,spanish_cond1,001,1035,
images/8ball.jpg,nail clipper,x,sounds/animalfarm_spanish.wav,,,,,,,,,0,1,1,1,0,41,41,206,657.688345818,8.98014991435e-06,658.390077512,0.701740994513,,,,,x,1,0.683722323498,2018_Nov_15_1532,59.9869174917,spanish_cond1,001,1035,
images/mattress.jpg,cat,x,sounds/animalfarm_spanish.wav,,,,,,,,,0,1,1,1,0,42,42,147,659.492122484,9.94230890683e-06,660.173968918,0.681856697332,,,,,x,1,0.667174472769,2018_Nov_15_1532,59.9869174917,spanish_cond1,001,1035,
images/cherry01.jpg,highlighter,x,sounds/animalfarm_spanish.wav,,,,,,,,,0,1,1,1,0,43,43,187,661.280797745,8.98015014172e-06,662.024319529,0.743531405509,,,,,x,1,0.73374913566,2018_Nov_15_1532,59.9869174917,spanish_cond1,001,1035,
images/ceilingfan02.jpg,paper clip,x,sounds/animalfarm_spanish.wav,,,,,,,,,0,1,1,1,0,44,44,208,663.120410983,9.30086957851e-06,663.858110102,0.7377090611,,,,,x,1,0.717077807868,2018_Nov_15_1532,59.9869174917,spanish_cond1,001,1035,
images/panda.jpg,panda,z,sounds/animalfarm_spanish.wav,,,,,,,,,0,1,1,1,0,45,45,83,664.965422253,1.0263028571e-05,665.975308436,1.00989612532,,,,,z,1,1.00048781458,2018_Nov_15_1532,59.9869174917,spanish_cond1,001,1035,
images/mushroom01.jpg,shower head,x,sounds/animalfarm_spanish.wav,,,,,,,,,0,1,1,1,0,46,46,222,667.089658139,9.94230890683e-06,667.942550773,0.852902576918,,,,,x,1,0.83387075255,2018_Nov_15_1532,59.9869174917,spanish_cond1,001,1035,
images/lightswitch02a.jpg,fork,x,sounds/animalfarm_spanish.wav,,,,,,,,,0,1,1,1,0,47,47,177,669.052115659,9.30086957851e-06,669.74295828,0.690852562614,,,,,x,1,0.667133741374,2018_Nov_15_1532,59.9869174917,spanish_cond1,001,1035,
images/licenseplate.jpg,license plate,z,sounds/animalfarm_spanish.wav,,,,,,,,,0,1,1,1,0,48,48,40,670.857448136,9.30086957851e-06,671.54333211,0.685893274766,,,,,z,1,0.667064786651,2018_Nov_15_1532,59.9869174917,spanish_cond1,001,1035,
images/triangleruler02.jpg,bottle of red wine,x,sounds/animalfarm_spanish.wav,,,,,,,,,0,1,1,1,0,49,49,134,672.652179547,8.98014991435e-06,673.410451548,0.758281622636,,,,,x,1,0.733738551912,2018_Nov_15_1532,59.9869174917,spanish_cond1,001,1035,
images/binder03b.jpg,dj mixer,x,sounds/animalfarm_spanish.wav,,,,,,,,,0,1,1,1,0,50,50,167,674.521184815,9.30086957851e-06,675.160724801,0.63954960699,,,,,x,1,0.616879859705,2018_Nov_15_1532,59.9869174917,spanish_cond1,001,1035,
images/knife04.jpg,tooth brush,x,sounds/animalfarm_spanish.wav,,,,,,,,,0,1,1,1,0,51,51,233,676.255674493,9.30086980588e-06,676.861301904,0.605637353319,,,,,x,1,0.583705902653,2018_Nov_15_1532,59.9869174917,spanish_cond1,001,1035,
images/lamp04b.jpg,parking meter,x,sounds/animalfarm_spanish.wav,,,,,,,,,0,1,1,1,0,52,52,209,677.98075618,8.65943025019e-06,678.678419866,0.697673307274,,,,,x,1,0.683725851414,2018_Nov_15_1532,59.9869174917,spanish_cond1,001,1035,
images/razor04a.jpg,razor,z,sounds/animalfarm_spanish.wav,,,,,,,,,0,1,1,1,0,53,53,36,679.776128067,9.62158924267e-06,680.645570156,0.869452351965,,,,,z,1,0.850421489755,2018_Nov_15_1532,59.9869174917,spanish_cond1,001,1035,
images/pictureframe04.jpg,picture frame,z,sounds/animalfarm_spanish.wav,,,,,,,,,0,1,1,1,0,54,54,41,681.765450027,9.30086957851e-06,682.362663679,0.59722327347,,,,,z,1,0.583704299054,2018_Nov_15_1532,59.9869174917,spanish_cond1,001,1035,
images/worldmap.jpg,scooter,x,sounds/animalfarm_spanish.wav,,,,,,,,,0,1,1,1,0,55,55,220,683.490809779,8.98015014172e-06,684.446514547,0.955714390177,,,,,x,1,0.933795126858,2018_Nov_15_1532,59.9869174917,spanish_cond1,001,1035,
images/handbag02a.jpg,candle,x,sounds/animalfarm_spanish.wav,,,,,,,,,0,1,1,1,0,56,56,144,685.560109276,9.94230890683e-06,686.263622567,0.703523554292,,,,,x,1,0.683734190125,2018_Nov_15_1532,59.9869174917,spanish_cond1,001,1035,
images/microphone01.jpg,diaper,x,sounds/animalfarm_spanish.wav,,,,,,,,,0,1,1,1,0,57,57,164,687.360459373,9.30086980588e-06,687.997364326,0.636914895118,,,,,x,1,0.617025145703,2018_Nov_15_1532,59.9869174917,spanish_cond1,001,1035,
images/baseball01a.jpg,baseball,z,sounds/animalfarm_spanish.wav,,,,,,,,,0,1,1,1,0,58,58,74,689.127334679,8.98014991435e-06,689.697821159,0.570496101973,,,,,z,1,0.550382490247,2018_Nov_15_1532,59.9869174917,spanish_cond1,001,1035,
images/graduationcap.jpg,graduation cap,z,sounds/animalfarm_spanish.wav,,,,,,,,,0,1,1,1,0,59,59,35,690.797528406,9.30086980588e-06,691.431581199,0.634062735328,,,,,z,1,0.617058500546,2018_Nov_15_1532,59.9869174917,spanish_cond1,001,1035,
images/honeycomb.jpg,honey comb,z,sounds/animalfarm_spanish.wav,,,,,,,,,0,1,1,1,0,60,60,59,692.542778869,8.98015014172e-06,693.232025268,0.689256340948,,,,,z,1,0.66707440824,2018_Nov_15_1532,59.9869174917,spanish_cond1,001,1035,
images/lightbulb03b.jpg,treadmill,x,sounds/animalfarm_spanish.wav,,,,,,,,,0,1,1,1,0,61,61,234,694.332687297,9.30086957851e-06,695.015784859,0.683107824661,,,,,x,1,0.66705676866,2018_Nov_15_1532,59.9869174917,spanish_cond1,001,1035,
images/axe01.jpg,axe,z,sounds/animalfarm_spanish.wav,,,,,,,,,0,1,1,1,0,62,62,104,696.11742797,8.98015014172e-06,696.766218151,0.64879948223,,,,,z,1,0.633720848188,2018_Nov_15_1532,59.9869174917,spanish_cond1,001,1035,
images/squirrel.jpg,binder,x,sounds/animalfarm_spanish.wav,,,,,,,,,0,1,1,1,0,63,63,132,697.867043106,9.62158924267e-06,698.566666068,0.699632904296,,,,,x,1,0.683736755882,2018_Nov_15_1532,59.9869174917,spanish_cond1,001,1035,
images/cauliflower01.jpg,glue stick,x,sounds/animalfarm_spanish.wav,,,,,,,,,0,1,1,1,0,64,64,181,699.680770741,8.98015014172e-06,700.40045183,0.719690710805,,,,,x,1,0.700395575608,2018_Nov_15_1532,59.9869174917,spanish_cond1,001,1035,
images/tank.jpg,wallet,x,sounds/animalfarm_spanish.wav,,,,,,,,,0,1,1,1,0,65,65,237,701.503161654,9.62158924267e-06,702.284248689,0.781096335201,,,,,x,1,0.767092753404,2018_Nov_15_1532,59.9869174917,spanish_cond1,001,1035,
images/corkscrew02a.jpg,masquerade mask,x,sounds/animalfarm_spanish.wav,,,,,,,,,0,1,1,1,0,66,66,201,703.386172429,8.98014991435e-06,704.034679415,0.648516607504,,,,,x,1,0.633647403389,2018_Nov_15_1532,59.9869174917,spanish_cond1,001,1035,
images/handfan01b.jpg,handfan,z,sounds/animalfarm_spanish.wav,,,,,,,,,0,1,1,1,0,67,67,69,705.146823208,9.30086957851e-06,705.735094875,0.588282251246,,,,,z,1,0.5670352163,2018_Nov_15_1532,59.9869174917,spanish_cond1,001,1035,
images/parkingmeter.jpg,ear,x,sounds/animalfarm_spanish.wav,,,,,,,,,0,1,1,1,0,68,68,171,706.834635027,8.98014991435e-06,707.652233748,0.817608663022,,,,,x,1,0.800426749558,2018_Nov_15_1532,59.9869174917,spanish_cond1,001,1035,
images/tulip02.jpg,sport shorts,x,sounds/animalfarm_spanish.wav,,,,,,,,,0,1,1,1,0,69,69,225,708.744681827,9.30086957851e-06,709.502695969,0.758023764043,,,,,x,1,0.733748173502,2018_Nov_15_1532,59.9869174917,spanish_cond1,001,1035,
images/banjo.jpg,knife,x,sounds/animalfarm_spanish.wav,,,,,,,,,0,1,1,1,0,70,70,191,710.597202427,8.98015014172e-06,711.869948185,1.27275537943,,,,,x,1,1.2505404126,2018_Nov_15_1532,59.9869174917,spanish_cond1,001,1035,
images/shotglass.jpg,shot glass,z,sounds/animalfarm_spanish.wav,,,,,,,,,0,1,1,1,0,71,71,86,712.976991893,8.98014991435e-06,713.620379552,0.643396639115,,,,,z,1,0.633724376104,2018_Nov_15_1532,59.9869174917,spanish_cond1,001,1035,
images/envelope02a.jpg,grand piano,x,sounds/animalfarm_spanish.wav,,,,,,,,,0,1,1,1,0,72,72,182,714.741023057,9.30086980588e-06,715.68755332,0.946540525493,,,,,x,1,0.933794485418,2018_Nov_15_1532,59.9869174917,spanish_cond1,001,1035,
images/highheelshoe02a.jpg,high heel shoe,z,sounds/animalfarm_spanish.wav,,,,,,,,,0,1,1,1,0,73,73,75,716.792348142,9.62158947004e-06,717.421318171,0.628980291136,,,,,z,1,0.617057538387,2018_Nov_15_1532,59.9869174917,spanish_cond1,001,1035,
images/watermelon01.jpg,orange,x,sounds/animalfarm_spanish.wav,,,,,,,,,0,1,1,1,0,74,74,207,718.548375747,9.94230890683e-06,719.221783406,0.67341792207,,,,,x,1,0.650416229953,2018_Nov_15_1532,59.9869174917,spanish_cond1,001,1035,
images/icecube02 (2).jpg,aloe,x,sounds/animalfarm_spanish.wav,,,,,,,,,0,1,1,1,0,75,75,122,720.330394793,9.62158947004e-06,721.055554736,0.725170526635,,,,,x,1,0.717073638513,2018_Nov_15_1532,59.9869174917,spanish_cond1,001,1035,
images/marker01a.jpg,marker,z,sounds/animalfarm_spanish.wav,,,,,,,,,0,1,1,1,0,76,76,95,722.151637851,8.98014991435e-06,722.772628374,0.621000144965,,,,,z,1,0.600373381809,2018_Nov_15_1532,59.9869174917,spanish_cond1,001,1035,
images/broom02.jpg,broom,z,sounds/animalfarm_spanish.wav,,,,,,,,,0,1,1,1,0,77,77,116,723.864285879,9.30086957851e-06,724.439706631,0.57543037369,,,,,z,1,0.567035537019,2018_Nov_15_1532,59.9869174917,spanish_cond1,001,1035,
images/nailclipper03a.jpg,aquarium,x,sounds/animalfarm_spanish.wav,,,,,,,,,0,1,1,1,0,78,78,123,725.536808673,9.62158924267e-06,726.206815421,0.67001701097,,,,,x,1,0.650391213821,2018_Nov_15_1532,59.9869174917,spanish_cond1,001,1035,
images/flamingo.jpg,flamingo,z,sounds/animalfarm_spanish.wav,,,,,,,,,0,1,1,1,0,79,79,52,727.302915534,9.30086957851e-06,727.840555833,0.537650241117,,,,,z,1,0.517026364438,2018_Nov_15_1532,59.9869174917,spanish_cond1,001,1035,
images/cola.jpg,comb,x,sounds/animalfarm_spanish.wav,,,,,,,,,0,1,1,1,0,80,80,157,728.959202858,9.94230890683e-06,729.72434307,0.765149833803,,,,,x,1,0.750405710349,2018_Nov_15_1532,59.9869174917,spanish_cond1,001,1035,
images/weight01.jpg,weight,z,sounds/animalfarm_spanish.wav,,,,,,,,,0,1,1,1,0,81,81,67,730.826906005,9.9423091342e-06,731.408093938,0.581197233601,,,,,z,1,0.567035537019,2018_Nov_15_1532,59.9869174917,spanish_cond1,001,1035,
images/barrel01.jpg,barrel,z,sounds/animalfarm_spanish.wav,,,,,,,,,0,1,1,1,0,82,82,9,732.536723041,9.62158924267e-06,733.191872451,0.655159032042,,,,,z,1,0.633721810347,2018_Nov_15_1532,59.9869174917,spanish_cond1,001,1035,
images/grandpiano.jpg,tulip,x,sounds/animalfarm_spanish.wav,,,,,,,,,0,1,1,1,0,83,83,236,734.304011754,9.62158924267e-06,735.092347052,0.788345240585,,,,,x,1,0.767098847077,2018_Nov_15_1532,59.9869174917,spanish_cond1,001,1035,
images/djmixer01.jpg,light bulb,x,sounds/animalfarm_spanish.wav,,,,,,,,,0,1,1,1,0,84,84,196,736.211654118,9.62158924267e-06,736.976158985,0.764515450348,,,,,x,1,0.750430085042,2018_Nov_15_1532,59.9869174917,spanish_cond1,001,1035,
images/ant.jpg,ant,z,sounds/animalfarm_spanish.wav,,,,,,,,,0,1,1,1,0,85,85,98,738.068727654,9.30086957851e-06,738.993297922,0.924579889339,,,,,z,1,0.900442849684,2018_Nov_15_1532,59.9869174917,spanish_cond1,001,1035,
images/dryingmachine01.jpg,drying machine,z,sounds/animalfarm_spanish.wav,,,,,,,,,0,1,1,1,0,86,86,18,740.112418329,9.30086980588e-06,740.827084325,0.714675938458,,,,,z,1,0.700396217048,2018_Nov_15_1532,59.9869174917,spanish_cond1,001,1035,
images/sock03.jpg,sock,z,sounds/animalfarm_spanish.wav,,,,,,,,,0,1,1,1,0,87,87,90,741.930767533,8.98015014172e-06,742.527500747,0.596742835444,,,,,z,1,0.583704940494,2018_Nov_15_1532,59.9869174917,spanish_cond1,001,1035,
images/globe.jpg,cloud,x,sounds/animalfarm_spanish.wav,,,,,,,,,0,1,1,1,0,88,88,154,743.654327085,9.30086980588e-06,744.428030191,0.773713048286,,,,,x,1,0.750463760605,2018_Nov_15_1532,59.9869174917,spanish_cond1,001,1035,
images/lock02a.jpg,lock,z,sounds/animalfarm_spanish.wav,,,,,,,,,0,1,1,1,0,89,89,65,745.536458126,9.30086957851e-06,746.128385677,0.591937813744,,,,,z,1,0.583703657615,2018_Nov_15_1532,59.9869174917,spanish_cond1,001,1035,
images/boxingglove02a.jpg,bracelet,x,sounds/animalfarm_spanish.wav,,,,,,,,,0,1,1,1,0,90,90,135,747.237799504,8.98015014172e-06,748.012196006,0.774406444156,,,,,x,1,0.750419822014,2018_Nov_15_1532,59.9869174917,spanish_cond1,001,1035,
images/headphones02b.jpg,headphones,z,sounds/animalfarm_spanish.wav,,,,,,,,,0,1,1,1,0,91,91,101,749.117579029,8.98014991435e-06,749.745951877,0.628382149001,,,,,z,1,0.617045351041,2018_Nov_15_1532,59.9869174917,spanish_cond1,001,1035,
images/doorhandle.jpg,doll,x,sounds/animalfarm_spanish.wav,,,,,,,,,0,1,1,1,0,92,92,168,750.847120322,9.30086957851e-06,751.613076125,0.765965423857,,,,,x,1,0.750411804022,2018_Nov_15_1532,59.9869174917,spanish_cond1,001,1035,
images/parkbench03.jpg,park bench,z,sounds/animalfarm_spanish.wav,,,,,,,,,0,1,1,1,0,93,93,71,752.71666408,9.62158924267e-06,753.296828917,0.580174779377,,,,,z,1,0.567039064935,2018_Nov_15_1532,59.9869174917,spanish_cond1,001,1035,
images/cupcake.jpg,scissors,x,sounds/animalfarm_spanish.wav,,,,,,,,,0,1,1,1,0,94,94,219,754.414582096,9.9423091342e-06,755.04735201,0.632779856754,,,,,x,1,0.617141887653,2018_Nov_15_1532,59.9869174917,spanish_cond1,001,1035,
images/candycane01a.jpg,lip,x,sounds/animalfarm_spanish.wav,,,,,,,,,0,1,1,1,0,95,95,200,756.138890528,9.30086957851e-06,756.94773264,0.808851733874,,,,,x,1,0.800209301639,2018_Nov_15_1532,59.9869174917,spanish_cond1,001,1035,
images/cigar.jpg,crocodile,x,sounds/animalfarm_spanish.wav,,,,,,,,,0,1,1,1,0,96,96,162,758.044087405,9.30086957851e-06,758.764840981,0.720763197293,,,,,x,1,0.700399103524,2018_Nov_15_1532,59.9869174917,spanish_cond1,001,1035,
images/lion.jpg,lion,z,sounds/animalfarm_spanish.wav,,,,,,,,,0,1,1,1,0,97,97,44,759.946177792,4.49007500265e-05,760.715160546,0.769005846078,,,,,z,1,0.750246954125,2018_Nov_15_1532,59.9869174917,spanish_cond1,001,1035,
images/50dollarbill.jpg,cherry,x,sounds/animalfarm_spanish.wav,,,,,,,,,0,1,1,1,0,98,98,151,761.834839967,9.62158924267e-06,762.59912482,0.764295115953,,,,,x,1,0.750412766181,2018_Nov_15_1532,59.9869174917,spanish_cond1,001,1035,
images/puzzle.jpg,puzzle,z,sounds/animalfarm_spanish.wav,,,,,,,,,0,1,1,1,0,99,99,57,763.7176535,9.62158924267e-06,764.416241499,0.698598262726,,,,,z,1,0.683734190125,2018_Nov_15_1532,59.9869174917,spanish_cond1,001,1035,
images/key03b.jpg,cigar,x,sounds/animalfarm_spanish.wav,,,,,,,,,0,1,1,1,0,100,100,153,765.516247336,8.98015014172e-06,766.233351443,0.717114049188,,,,,x,1,0.700398141365,2018_Nov_15_1532,59.9869174917,spanish_cond1,001,1035,
images/lollipop03b.jpg,lollipop,z,sounds/animalfarm_spanish.wav,,,,,,,,,0,1,1,1,0,101,101,42,767.324177001,9.62158924267e-06,768.133832459,0.80966539961,,,,,z,1,0.800441823381,2018_Nov_15_1532,59.9869174917,spanish_cond1,001,1035,
images/spoon02b.jpg,spoon,z,sounds/animalfarm_spanish.wav,,,,,,,,,0,1,1,1,0,102,102,38,769.223117921,9.30086957851e-06,769.934293846,0.711185546577,,,,,z,1,0.700427326853,2018_Nov_15_1532,59.9869174917,spanish_cond1,001,1035,
images/basketball01.jpg,basket ball,z,sounds/animalfarm_spanish.wav,,,,,,,,,0,1,1,1,0,103,103,33,771.071532347,9.62158924267e-06,771.684691859,0.613169454148,,,,,z,1,0.600377551164,2018_Nov_15_1532,59.9869174917,spanish_cond1,001,1035,
images/puma.jpg,puma,z,sounds/animalfarm_spanish.wav,,,,,,,,,0,1,1,1,0,104,104,4,772.781800956,9.30086957851e-06,773.535146383,0.753355368911,,,,,z,1,0.733739514071,2018_Nov_15_1532,59.9869174917,spanish_cond1,001,1035,
images/camera01a.jpg,bull,x,sounds/animalfarm_spanish.wav,,,,,,,,,0,1,1,1,0,105,105,138,774.643912677,9.30086957851e-06,775.468957866,0.825055452426,,,,,x,1,0.800421297324,2018_Nov_15_1532,59.9869174917,spanish_cond1,001,1035,
images/lychee02a.jpg,lychee,z,sounds/animalfarm_spanish.wav,,,,,,,,,0,1,1,1,0,106,106,62,776.591059042,9.30086980588e-06,777.236389941,0.645340841594,,,,,z,1,0.634047982225,2018_Nov_15_1532,59.9869174917,spanish_cond1,001,1035,
images/chameleon.jpg,50 dollar bill,x,sounds/animalfarm_spanish.wav,,,,,,,,,0,1,1,1,0,107,107,120,778.343996192,9.62158924267e-06,778.969838563,0.625852312453,,,,,x,1,0.617062028462,2018_Nov_15_1532,59.9869174917,spanish_cond1,001,1035,
images/doll.jpg,carrot,x,sounds/animalfarm_spanish.wav,,,,,,,,,0,1,1,1,0,108,108,146,780.07911897,9.30086980588e-06,780.736925222,0.657816835729,,,,,x,1,0.633714754515,2018_Nov_15_1532,59.9869174917,spanish_cond1,001,1035,
images/bowl02b (1).jpg,bowl,z,sounds/animalfarm_spanish.wav,,,,,,,,,0,1,1,1,0,109,109,24,781.852383011,8.98015014172e-06,782.387334717,0.534960686186,,,,,z,1,0.517021553643,2018_Nov_15_1532,59.9869174917,spanish_cond1,001,1035,
images/computermouse02a.jpg,world map,x,sounds/animalfarm_spanish.wav,,,,,,,,,0,1,1,1,0,110,110,239,783.487307841,8.98015014172e-06,784.25452792,0.767229379972,,,,,x,1,0.750483003783,2018_Nov_15_1532,59.9869174917,spanish_cond1,001,1035,
images/ladybug03.jpg,giraffe,x,sounds/animalfarm_spanish.wav,,,,,,,,,0,1,1,1,0,111,111,178,785.356065193,9.30086980588e-06,786.071577569,0.715521996877,,,,,x,1,0.700406800796,2018_Nov_15_1532,59.9869174917,spanish_cond1,001,1035,
images/hand01a.jpg,cupcake,x,sounds/animalfarm_spanish.wav,,,,,,,,,0,1,1,1,0,112,112,163,787.181178055,9.30086980588e-06,787.855440111,0.674271677761,,,,,x,1,0.650481656761,2018_Nov_15_1532,59.9869174917,spanish_cond1,001,1035,
images/scooter.jpg,pen,x,sounds/animalfarm_spanish.wav,,,,,,,,,0,1,1,1,0,113,113,212,788.945841357,9.30086980588e-06,789.589114519,0.643282783641,,,,,x,1,0.633723093225,2018_Nov_15_1532,59.9869174917,spanish_cond1,001,1035,
images/parrot01.jpg,chameleon,x,sounds/animalfarm_spanish.wav,,,,,,,,,0,1,1,1,0,114,114,150,790.700575499,8.98015014172e-06,791.439564873,0.738998995506,,,,,x,1,0.717071072756,2018_Nov_15_1532,59.9869174917,spanish_cond1,001,1035,
images/swan.jpg,swan,z,sounds/animalfarm_spanish.wav,,,,,,,,,0,1,1,1,0,115,115,54,792.529332698,8.98014991435e-06,793.173335176,0.644012100111,,,,,z,1,0.633725979702,2018_Nov_15_1532,59.9869174917,spanish_cond1,001,1035,
images/diaper01a.jpg,camera,x,sounds/animalfarm_spanish.wav,,,,,,,,,0,1,1,1,0,116,116,143,794.291280467,8.98014991435e-06,794.990450893,0.699180689599,,,,,x,1,0.683734831564,2018_Nov_15_1532,59.9869174917,spanish_cond1,001,1035,
images/gamecontroller01.jpg,game controller,z,sounds/animalfarm_spanish.wav,,,,,,,,,0,1,1,1,0,117,117,112,796.108210487,9.30086980588e-06,796.840735757,0.73253489109,,,,,z,1,0.716906864298,2018_Nov_15_1532,59.9869174917,spanish_cond1,001,1035,
images/egg01b (1).jpg,egg,z,sounds/animalfarm_spanish.wav,,,,,,,,,0,1,1,1,0,118,118,19,797.952065884,9.30086980588e-06,798.958091885,1.00603562297,,,,,z,1,0.983801733682,2018_Nov_15_1532,59.9869174917,spanish_cond1,001,1035,
images/saltshaker03c.jpg,salt shaker,z,sounds/animalfarm_spanish.wav,,,,,,,,,0,1,1,1,0,119,119,63,800.067208405,9.62158947004e-06,801.275320174,1.20812171182,,,,,z,1,1.18383970689,2018_Nov_15_1532,59.9869174917,spanish_cond1,001,1035,
images/lemon02.jpg,lemon,z,sounds/animalfarm_spanish.wav,,,,,,,,,0,1,1,1,0,120,120,14,802.385256775,9.30086980588e-06,803.109108181,0.723861349049,,,,,z,1,0.700395254889,2018_Nov_15_1532,59.9869174917,spanish_cond1,001,1035,
images/flashlight05.jpg,flash light,z,sounds/animalfarm_spanish.wav,,,,,,,,,0,1,1,1,0,121,121,8,804.209665015,9.62158924267e-06,805.109595996,0.899940923442,,,,,z,1,0.883771521892,2018_Nov_15_1532,59.9869174917,spanish_cond1,001,1035,
images/dice05a.jpg,band aid,x,sounds/animalfarm_spanish.wav,,,,,,,,,0,1,1,1,0,122,122,126,806.220302323,9.30086957851e-06,806.910041026,0.689748324881,,,,,x,1,0.667019565181,2018_Nov_15_1532,59.9869174917,spanish_cond1,001,1035,
images/bat.jpg,hand,x,sounds/animalfarm_spanish.wav,,,,,,,,,0,1,1,1,0,123,123,185,808.006121897,9.62158924267e-06,808.743838976,0.7377270214,,,,,x,1,0.717079411467,2018_Nov_15_1532,59.9869174917,spanish_cond1,001,1035,
images/atm.jpg,atm,z,sounds/animalfarm_spanish.wav,,,,,,,,,0,1,1,1,0,124,124,96,809.880729175,9.94230890683e-06,810.577620889,0.696901976531,,,,,z,1,0.68373034149,2018_Nov_15_1532,59.9869174917,spanish_cond1,001,1035,
images/cocktailshrimp01.jpg,cocktail shrimp,z,sounds/animalfarm_spanish.wav,,,,,,,,,0,1,1,1,0,125,125,30,811.690371483,8.98014991435e-06,812.328054181,0.637692640254,,,,,z,1,0.617049199676,2018_Nov_15_1532,59.9869174917,spanish_cond1,001,1035,
images/crocodile.jpg,triangle ruler,x,sounds/animalfarm_spanish.wav,,,,,,,,,0,1,1,1,0,126,126,235,813.423618693,9.30086980588e-06,814.211845908,0.788237478784,,,,,x,1,0.767073510225,2018_Nov_15_1532,59.9869174917,spanish_cond1,001,1035,
images/raisin.jpg,ruler,x,sounds/animalfarm_spanish.wav,,,,,,,,,0,1,1,1,0,127,127,218,815.315340854,9.30086957851e-06,816.028967398,0.713636165373,,,,,x,1,0.700403593599,2018_Nov_15_1532,59.9869174917,spanish_cond1,001,1035,
images/daisy.jpg,daisy,z,sounds/animalfarm_spanish.wav,,,,,,,,,0,1,1,1,0,128,128,6,817.12930518,8.98014991435e-06,817.779394597,0.650098717506,,,,,z,1,0.633713150916,2018_Nov_15_1532,59.9869174917,spanish_cond1,001,1035,
images/medal01.jpg,medal,z,sounds/animalfarm_spanish.wav,,,,,,,,,0,1,1,1,0,129,129,115,818.878331796,9.30086957851e-06,819.496500628,0.618178453541,,,,,z,1,0.600389738511,2018_Nov_15_1532,59.9869174917,spanish_cond1,001,1035,
images/peach01.jpg,peach,z,sounds/animalfarm_spanish.wav,,,,,,,,,0,1,1,1,0,130,130,106,820.623851022,8.98015014172e-06,821.180231932,0.55639053133,,,,,z,1,0.533685184164,2018_Nov_15_1532,59.9869174917,spanish_cond1,001,1035,
images/cloud.jpg,ceiling fan,x,sounds/animalfarm_spanish.wav,,,,,,,,,0,1,1,1,0,131,131,149,822.283391726,8.98014991435e-06,822.997359836,0.713978373233,,,,,x,1,0.70041225303,2018_Nov_15_1532,59.9869174917,spanish_cond1,001,1035,
images/comb02a.jpg,diploma,x,sounds/animalfarm_spanish.wav,,,,,,,,,0,1,1,1,0,132,132,166,824.099848364,9.30086980588e-06,824.830979144,0.731141364239,,,,,x,1,0.716905902139,2018_Nov_15_1532,59.9869174917,spanish_cond1,001,1035,
images/pen03c.jpg,pepper,x,sounds/animalfarm_spanish.wav,,,,,,,,,0,1,1,1,0,133,133,211,825.923453522,9.62158924267e-06,826.864976068,0.941532808978,,,,,x,1,0.917125081944,2018_Nov_15_1532,59.9869174917,spanish_cond1,001,1035,
images/hairband.jpg,hairband,z,sounds/animalfarm_spanish.wav,,,,,,,,,0,1,1,1,0,134,134,66,827.972290785,9.30086980588e-06,828.615410002,0.643128838213,,,,,z,1,0.633701925729,2018_Nov_15_1532,59.9869174917,spanish_cond1,001,1035,
images/bracelet02a.jpg,chess knight,x,sounds/animalfarm_spanish.wav,,,,,,,,,0,1,1,1,0,135,135,152,829.722310349,9.62158924267e-06,830.449191273,0.726890225363,,,,,x,1,0.716939898422,2018_Nov_15_1532,59.9869174917,spanish_cond1,001,1035,
images/dresser02.jpg,dresser,z,sounds/animalfarm_spanish.wav,,,,,,,,,0,1,1,1,0,136,136,87,831.569661589,9.30086980588e-06,832.199624886,0.629973239153,,,,,z,1,0.617048558237,2018_Nov_15_1532,59.9869174917,spanish_cond1,001,1035,
images/belt02a.jpg,snowman,x,sounds/animalfarm_spanish.wav,,,,,,,,,0,1,1,1,0,137,137,224,833.301024892,9.62158924267e-06,833.916725145,0.615710195164,,,,,x,1,0.60039037995,2018_Nov_15_1532,59.9869174917,spanish_cond1,001,1035,
images/hat05.jpg,hat,z,sounds/animalfarm_spanish.wav,,,,,,,,,0,1,1,1,0,138,138,15,835.018513541,8.98015014172e-06,835.700484094,0.681980174395,,,,,z,1,0.667061258735,2018_Nov_15_1532,59.9869174917,spanish_cond1,001,1035,
images/magnifyingglass01b.jpg,magnifying glass,z,sounds/animalfarm_spanish.wav,,,,,,,,,0,1,1,1,0,139,139,64,836.805680137,9.94230890683e-06,837.450913859,0.645243984262,,,,,z,1,0.633721168908,2018_Nov_15_1532,59.9869174917,spanish_cond1,001,1035,
images/rhinoceros01.jpg,envelope,x,sounds/animalfarm_spanish.wav,,,,,,,,,0,1,1,1,0,140,140,173,838.561191704,8.98015014172e-06,839.168013796,0.606831713272,,,,,x,1,0.583714241363,2018_Nov_15_1532,59.9869174917,spanish_cond1,001,1035,
images/glasses01b.jpg,calculator,x,sounds/animalfarm_spanish.wav,,,,,,,,,0,1,1,1,0,141,141,142,840.258865332,9.62158947004e-06,840.985118929,0.72626321846,,,,,x,1,0.717074279952,2018_Nov_15_1532,59.9869174917,spanish_cond1,001,1035,
images/eraser.jpg,eraser,z,sounds/animalfarm_spanish.wav,,,,,,,,,0,1,1,1,0,142,142,110,842.090215549,9.30086957851e-06,842.718886025,0.62867977683,,,,,z,1,0.617037333049,2018_Nov_15_1532,59.9869174917,spanish_cond1,001,1035,
images/coin01b.jpg,arrow,x,sounds/animalfarm_spanish.wav,,,,,,,,,0,1,1,1,0,143,143,124,843.819984875,9.30086957851e-06,844.552665693,0.732690760837,,,,,x,1,0.71706786556,2018_Nov_15_1532,59.9869174917,spanish_cond1,001,1035,
images/plate01b.jpg,plate,z,sounds/animalfarm_spanish.wav,,,,,,,,,0,1,1,1,0,144,144,3,845.649740474,9.62158924267e-06,846.269597253,0.619867363184,,,,,z,1,0.600213342707,2018_Nov_15_1532,59.9869174917,spanish_cond1,001,1035,
images/fireextinguisher02.jpg,fire extinguisher,x,sounds/animalfarm_spanish.wav,,,,,,,,,0,1,1,1,0,145,145,175,847.378469385,9.62158924267e-06,848.286931188,0.908471745241,,,,,z,0,0.900457602787,2018_Nov_15_1532,59.9869174917,spanish_cond1,001,1035,
images/ashtray02b.jpg,ashtray,z,sounds/animalfarm_spanish.wav,,,,,,,,,0,1,1,1,0,146,146,43,849.399247848,9.30086957851e-06,850.187390394,0.788152808798,,,,,z,1,0.767077679581,2018_Nov_15_1532,59.9869174917,spanish_cond1,001,1035,
images/diploma01.jpg,glasses,x,sounds/animalfarm_spanish.wav,,,,,,,,,0,1,1,1,0,147,147,179,851.316481013,9.30086957851e-06,852.021194758,0.704724007918,,,,,x,1,0.683752791865,2018_Nov_15_1532,59.9869174917,spanish_cond1,001,1035,
images/toucan.jpg,toucan,z,sounds/animalfarm_spanish.wav,,,,,,,,,0,1,1,1,0,148,148,81,853.11982599,9.62158924267e-06,853.738267113,0.618451065238,,,,,z,1,0.600374985407,2018_Nov_15_1532,59.9869174917,spanish_cond1,001,1035,
images/bandaid01.jpg,door handle,x,sounds/animalfarm_spanish.wav,,,,,,,,,0,1,1,1,0,149,149,170,854.843563221,9.62158924267e-06,855.45535775,0.611805112784,,,,,x,1,0.600382682679,2018_Nov_15_1532,59.9869174917,spanish_cond1,001,1035,
images/gluestick.jpg,squirrel,x,sounds/animalfarm_spanish.wav,,,,,,,,,0,1,1,1,0,150,150,226,856.560974256,9.62158924267e-06,857.455843319,0.894879005307,,,,,x,1,0.883770880452,2018_Nov_15_1532,59.9869174917,spanish_cond1,001,1035,
images/hairdryer03a.jpg,hairdryer,z,sounds/animalfarm_spanish.wav,,,,,,,,,0,1,1,1,0,151,151,119,858.553920349,9.30086957851e-06,859.172951916,0.619040868663,,,,,z,1,0.600388776352,2018_Nov_15_1532,59.9869174917,spanish_cond1,001,1035,
images/blueberry02.jpg,blueberry,z,sounds/animalfarm_spanish.wav,,,,,,,,,0,1,1,1,0,152,152,46,860.284042466,8.98014991435e-06,860.890028762,0.605995597161,,,,,z,1,0.583707506251,2018_Nov_15_1532,59.9869174917,spanish_cond1,001,1035,
images/lantern03.jpg,lantern,z,sounds/animalfarm_spanish.wav,,,,,,,,,0,1,1,1,0,153,153,5,861.994924612,9.30086980588e-06,863.073897013,1.07898266446,,,,,z,1,1.06714843033,2018_Nov_15_1532,59.9869174917,spanish_cond1,001,1035,
images/tie01.jpg,bench,x,sounds/animalfarm_spanish.wav,,,,,,,,,0,1,1,1,0,154,154,130,864.170894179,9.30086957851e-06,865.107726842,0.93684260491,,,,,x,1,0.91711032884,2018_Nov_15_1532,59.9869174917,spanish_cond1,001,1035,
images/kiwi03.jpg,backpack,x,sounds/animalfarm_spanish.wav,,,,,,,,,0,1,1,1,0,155,155,125,866.234235988,9.30086957851e-06,866.958196119,0.723970073009,,,,,x,1,0.700406159357,2018_Nov_15_1532,59.9869174917,spanish_cond1,001,1035,
images/orange.jpg,bat,x,sounds/animalfarm_spanish.wav,,,,,,,,,0,1,1,1,0,156,156,128,868.082502563,9.62158924267e-06,868.908664177,0.826171556786,,,,,x,1,0.8170890972,2018_Nov_15_1532,59.9869174917,spanish_cond1,001,1035,
images/elbow.jpg,elbow,z,sounds/animalfarm_spanish.wav,,,,,,,,,0,1,1,1,0,157,157,105,870.018439776,9.9423091342e-06,870.692448143,0.674018629963,,,,,z,1,0.650382554391,2018_Nov_15_1532,59.9869174917,spanish_cond1,001,1035,
images/paintbrush03a.jpg,paint brush,z,sounds/animalfarm_spanish.wav,,,,,,,,,0,1,1,1,0,158,158,0,871.791046662,9.94230890683e-06,872.459697728,0.668661970476,,,,,z,1,0.650531368305,2018_Nov_15_1532,59.9869174917,spanish_cond1,001,1035,
images/charcoalbarbecue.jpg,charcoal barbecue,z,sounds/animalfarm_spanish.wav,,,,,,,,,0,1,1,1,0,159,159,77,873.574976876,9.30086980588e-06,874.143300423,0.568333489417,,,,,z,1,0.550366454265,2018_Nov_15_1532,59.9869174917,spanish_cond1,001,1035,
images/sunglasses03a.jpg,sun glasses,z,sounds/animalfarm_spanish.wav,,,,,,,,,0,1,1,1,0,160,160,17,875.249671904,9.30086957851e-06,875.877058539,0.627396256817,,,,,z,1,0.61704599248,2018_Nov_15_1532,59.9869174917,spanish_cond1,001,1035,
images/cockroach02.jpg,belt,x,sounds/animalfarm_spanish.wav,,,,,,,,,0,1,1,1,0,161,161,129,876.974439607,8.98014991435e-06,877.610822107,0.636391801379,,,,,x,1,0.617048558237,2018_Nov_15_1532,59.9869174917,spanish_cond1,001,1035,
images/antelope.jpg,antelope,z,sounds/animalfarm_spanish.wav,,,,,,,,,0,1,1,1,0,162,162,12,878.714148355,8.98014991435e-06,879.344589203,0.630450790702,,,,,z,1,0.617053689751,2018_Nov_15_1532,59.9869174917,spanish_cond1,001,1035,
images/electricguitar02.jpg,electric guitar,z,sounds/animalfarm_spanish.wav,,,,,,,,,0,1,1,1,0,163,163,100,880.444756362,8.98014991435e-06,881.095022816,0.650276396189,,,,,z,1,0.6337275833,2018_Nov_15_1532,59.9869174917,spanish_cond1,001,1035,
images/stapler03a.jpg,candy cane,x,sounds/animalfarm_spanish.wav,,,,,,,,,0,1,1,1,0,164,164,145,882.203947225,9.94230890683e-06,882.912126987,0.708190345826,,,,,x,1,0.683723606377,2018_Nov_15_1532,59.9869174917,spanish_cond1,001,1035,
images/button07.jpg,radish,x,sounds/animalfarm_spanish.wav,,,,,,,,,0,1,1,1,0,165,165,215,884.022431773,9.62158924267e-06,884.879310312,0.856888480648,,,,,x,1,0.833797628471,2018_Nov_15_1532,59.9869174917,spanish_cond1,001,1035,
images/pouch01b.jpg,pouch,z,sounds/animalfarm_spanish.wav,,,,,,,,,0,1,1,1,0,166,166,25,885.989520486,9.30086980588e-06,886.729736612,0.740225748143,,,,,z,1,0.717076845709,2018_Nov_15_1532,59.9869174917,spanish_cond1,001,1035,
images/toothbrush03a.jpg,parrot,x,sounds/animalfarm_spanish.wav,,,,,,,,,0,1,1,1,0,167,167,210,887.820801106,9.30086957851e-06,888.513510956,0.692719471659,,,,,x,1,0.683731624368,2018_Nov_15_1532,59.9869174917,spanish_cond1,001,1035,
images/table02.jpg,table,z,sounds/animalfarm_spanish.wav,,,,,,,,,0,1,1,1,0,168,168,49,889.625932492,9.62158924267e-06,890.247524044,0.621600852857,,,,,z,1,0.600575435185,2018_Nov_15_1532,59.9869174917,spanish_cond1,001,1035,
images/bench02.jpg,electric toothbrush,x,sounds/animalfarm_spanish.wav,,,,,,,,,0,1,1,1,0,169,169,172,891.354596939,9.30086957851e-06,892.114397169,0.759810172457,,,,,x,1,0.750412445462,2018_Nov_15_1532,59.9869174917,spanish_cond1,001,1035,
images/volleyball.jpg,volley ball,z,sounds/animalfarm_spanish.wav,,,,,,,,,0,1,1,1,0,170,170,2,893.245535903,9.62158924267e-06,893.764803136,0.519276854176,,,,,z,1,0.500349584412,2018_Nov_15_1532,59.9869174917,spanish_cond1,001,1035,
images/pingpongpaddle01c (1).jpg,ping pong paddle,z,sounds/animalfarm_spanish.wav,,,,,,,,,0,1,1,1,0,171,171,10,894.873819271,8.98015014172e-06,895.565243356,0.691434027328,,,,,z,1,0.667054202903,2018_Nov_15_1532,59.9869174917,spanish_cond1,001,1035,
images/aloe02.jpg,broad sword,x,sounds/animalfarm_spanish.wav,,,,,,,,,0,1,1,1,0,172,172,137,896.685544653,9.30086980588e-06,897.399036173,0.713501463123,,,,,x,1,0.700398462085,2018_Nov_15_1532,59.9869174917,spanish_cond1,001,1035,
images/backpack01b.jpg,swallow,x,sounds/animalfarm_spanish.wav,,,,,,,,,0,1,1,1,0,173,173,228,898.529061048,8.98014991435e-06,899.249487169,0.720436063256,,,,,x,1,0.700397499926,2018_Nov_15_1532,59.9869174917,spanish_cond1,001,1035,
images/bed.jpg,bed,z,sounds/animalfarm_spanish.wav,,,,,,,,,0,1,1,1,0,174,174,103,900.366901669,9.30086957851e-06,901.099946825,0.733054456913,,,,,z,1,0.717074279952,2018_Nov_15_1532,59.9869174917,spanish_cond1,001,1035,
images/sportshorts02.jpg,tape,x,sounds/animalfarm_spanish.wav,,,,,,,,,0,1,1,1,0,175,175,230,902.20857104,9.30086980588e-06,902.883728545,0.675167768446,,,,,x,1,0.66705644794,2018_Nov_15_1532,59.9869174917,spanish_cond1,001,1035,
images/dragonfly02.jpg,dragon fly,z,sounds/animalfarm_spanish.wav,,,,,,,,,0,1,1,1,0,176,176,29,903.979885105,9.94230890683e-06,904.617679734,0.63780425069,,,,,z,1,0.617246762977,2018_Nov_15_1532,59.9869174917,spanish_cond1,001,1035,
images/thumbtack02a.jpg,thumb tack,z,sounds/animalfarm_spanish.wav,,,,,,,,,0,1,1,1,0,177,177,60,905.726415881,3.17512447054e-05,906.384589036,0.658194002029,,,,,z,1,0.633687172625,2018_Nov_15_1532,59.9869174917,spanish_cond1,001,1035,
images/tape01a.jpg,tie,x,sounds/animalfarm_spanish.wav,,,,,,,,,0,1,1,1,0,178,178,232,907.508491053,9.62158924267e-06,908.218376722,0.70989561217,,,,,x,1,0.700409366553,2018_Nov_15_1532,59.9869174917,spanish_cond1,001,1035,
images/bicycle.jpg,hand bag,x,sounds/animalfarm_spanish.wav,,,,,,,,,0,1,1,1,0,179,179,186,909.32676553,8.98015014172e-06,910.118834646,0.792079379395,,,,,x,1,0.783756063205,2018_Nov_15_1532,59.9869174917,spanish_cond1,001,1035,
images/bull.jpg,button,x,sounds/animalfarm_spanish.wav,,,,,,,,,0,1,1,1,0,180,180,141,911.22296173,8.65943025019e-06,911.9193079,0.696355470258,,,,,x,1,0.683755036902,2018_Nov_15_1532,59.9869174917,spanish_cond1,001,1035,
images/grasshopper.jpg,cauliflower,x,sounds/animalfarm_spanish.wav,,,,,,,,,0,1,1,1,0,181,181,148,913.010702094,8.98014991435e-06,913.853086349,0.842394518516,,,,,x,1,0.833756255637,2018_Nov_15_1532,59.9869174917,spanish_cond1,001,1035,
images/pepper05a.jpg,lighter,x,sounds/animalfarm_spanish.wav,,,,,,,,,0,1,1,1,0,182,182,198,914.972058905,9.62158924267e-06,915.653535549,0.681486266143,,,,,x,1,0.667050995706,2018_Nov_15_1532,59.9869174917,spanish_cond1,001,1035,
images/aquarium.jpg,computer mouse,x,sounds/animalfarm_spanish.wav,,,,,,,,,0,1,1,1,0,183,183,159,916.78884396,9.30086957851e-06,917.570677629,0.781843291251,,,,,x,1,0.767089546207,2018_Nov_15_1532,59.9869174917,spanish_cond1,001,1035,
images/bullet (2).jpg,rubber glove,x,sounds/animalfarm_spanish.wav,,,,,,,,,0,1,1,1,0,184,184,217,918.750777745,8.98015014172e-06,919.504489754,0.753721630744,,,,,x,1,0.733743041987,2018_Nov_15_1532,59.9869174917,spanish_cond1,001,1035,
images/screwdriver02b.jpg,cola,x,sounds/animalfarm_spanish.wav,,,,,,,,,0,1,1,1,0,185,185,158,920.596207554,8.98015014172e-06,921.271596619,0.675399328028,,,,,x,1,0.667067993847,2018_Nov_15_1532,59.9869174917,spanish_cond1,001,1035,
images/cake.jpg,cake,z,sounds/animalfarm_spanish.wav,,,,,,,,,0,1,1,1,0,186,186,23,922.383578769,9.62158924267e-06,923.038694504,0.6551256772,,,,,z,1,0.633675947438,2018_Nov_15_1532,59.9869174917,spanish_cond1,001,1035,
images/lighter02b.jpg,stapler,x,sounds/animalfarm_spanish.wav,,,,,,,,,0,1,1,1,0,187,187,227,924.138286613,9.94230890683e-06,924.739109644,0.600833293778,,,,,x,1,0.58369884682,2018_Nov_15_1532,59.9869174917,spanish_cond1,001,1035,
images/hairpin.jpg,hair pin,z,sounds/animalfarm_spanish.wav,,,,,,,,,0,1,1,1,0,188,188,28,925.828402483,8.98014991435e-06,926.522887516,0.694494654886,,,,,z,1,0.683733548686,2018_Nov_15_1532,59.9869174917,spanish_cond1,001,1035,
images/ladder.jpg,ladder,z,sounds/animalfarm_spanish.wav,,,,,,,,,0,1,1,1,0,189,189,113,927.613811856,9.30086957851e-06,928.323337357,0.70953544401,,,,,z,1,0.700413215189,2018_Nov_15_1532,59.9869174917,spanish_cond1,001,1035,
images/apricot.jpg,apricot,z,sounds/animalfarm_spanish.wav,,,,,,,,,0,1,1,1,0,190,190,32,929.438208229,9.62158924267e-06,930.10709759,0.668899303012,,,,,z,1,0.650385120148,2018_Nov_15_1532,59.9869174917,spanish_cond1,001,1035,
images/pineapple01a.jpg,pineapple,z,sounds/animalfarm_spanish.wav,,,,,,,,,0,1,1,1,0,191,191,51,931.218386023,9.30086980588e-06,931.857548842,0.639172761409,,,,,z,1,0.617061707742,2018_Nov_15_1532,59.9869174917,spanish_cond1,001,1035,
images/treadmill.jpg,lily,x,sounds/animalfarm_spanish.wav,,,,,,,,,0,1,1,1,0,192,192,199,932.961582597,9.30086957851e-06,933.641306509,0.679733533291,,,,,x,1,0.667062220894,2018_Nov_15_1532,59.9869174917,spanish_cond1,001,1035,
images/birthdaycandle.jpg,birthday candle,z,sounds/animalfarm_spanish.wav,,,,,,,,,0,1,1,1,0,193,193,55,934.735910145,9.30086980588e-06,935.375318956,0.639418753376,,,,,z,1,0.617292625886,2018_Nov_15_1532,59.9869174917,spanish_cond1,001,1035,
