images,name,corrAns,sounds,trials_3.thisRepN,trials_3.thisTrialN,trials_3.thisN,trials_3.thisIndex,trials_4.thisRepN,trials_4.thisTrialN,trials_4.thisN,trials_4.thisIndex,trials_2.thisRepN,trials_2.thisTrialN,trials_2.thisN,trials_2.thisIndex,trials.thisRepN,trials.thisTrialN,trials.thisN,trials.thisIndex,begin_global,begin_routine,end_global,end_routine,key_resp_2.keys,key_resp_2.corr,begin_book,key_resp_1.keys,key_resp_1.corr,key_resp_1.rt,date,frameRate,expName,session,participant,
images\volleyball.jpg,volley ball,z,,0,0,0,0,,,,,,,,,,,,,,,,,,,,,,,2018_Nov_15_1534,59.9824167199,chinese_cond2,001,1036,
images\puma.jpg,puma,z,,,,,,0,0,0,0,,,,,,,,,48.235383222,9.62168189744e-06,51.0054567765,2.7700841384,None,0,,,,,2018_Nov_15_1534,59.9824167199,chinese_cond2,001,1036,
images\notebook02b.jpg,notebook,z,sounds\animalfarm_english.wav,,,,,,,,,0,0,0,1,0,0,0,7,93.2529129642,9.94240451746e-06,95.0669685095,1.8140664499,,,83.0022306266,z,1,1.80070033015,2018_Nov_15_1534,59.9824167199,chinese_cond2,001,1036,
images\pouch01b.jpg,pouch,z,sounds\animalfarm_english.wav,,,,,,,,,0,0,0,1,0,1,1,25,96.261559649,8.98023643003e-06,98.6011982843,2.33964825697,,,,z,1,2.31748856142,2018_Nov_15_1534,59.9824167199,chinese_cond2,001,1036,
images\battery03b.jpg,battery,z,sounds\animalfarm_english.wav,,,,,,,,,0,0,0,1,0,2,2,34,99.7593543595,9.94240463115e-06,101.168749868,1.40940545062,,,,z,1,1.40080719497,2018_Nov_15_1534,59.9824167199,chinese_cond2,001,1036,
images\clothespin02a.jpg,clothes pin,z,sounds\animalfarm_english.wav,,,,,,,,,0,0,0,1,0,3,3,79,102.343583525,9.62168189744e-06,104.486040864,2.1424663193,,,,z,1,2.13411053003,2018_Nov_15_1534,59.9824167199,chinese_cond2,001,1036,
images\cockroach02.jpg,belt,x,sounds\animalfarm_english.wav,,,,,,,,,0,0,0,1,0,4,4,129,105.659227931,9.30095916374e-06,107.620173203,1.96095553564,,,,x,1,1.95073378153,2018_Nov_15_1534,59.9824167199,chinese_cond2,001,1036,
images\pingpongpaddle01c (1).jpg,ping pong paddle,z,sounds\animalfarm_english.wav,,,,,,,,,0,0,0,1,0,5,5,10,108.80400634,9.30095916374e-06,111.537851697,2.73385529888,,,,z,1,2.71759433578,2018_Nov_15_1534,59.9824167199,chinese_cond2,001,1036,
images\coffeepot03b.jpg,coffee pot,z,sounds\animalfarm_english.wav,,,,,,,,,0,0,0,1,0,6,6,107,112.734946077,8.98023643003e-06,115.288817232,2.55388045638,,,,z,1,2.53421919089,2018_Nov_15_1534,59.9824167199,chinese_cond2,001,1036,
images\fryingpan01.jpg,frying pan,z,sounds\animalfarm_english.wav,,,,,,,,,0,0,0,1,0,7,7,45,116.482502651,9.62168189744e-06,119.123122569,2.64062986095,,,,z,1,2.61756861382,2018_Nov_15_1534,59.9824167199,chinese_cond2,001,1036,
images\seagull.jpg,seagull,z,sounds\animalfarm_english.wav,,,,,,,,,0,0,0,1,0,8,8,50,120.262115782,8.98023643003e-06,121.990523606,1.72841744501,,,,z,1,1.7173406441,2018_Nov_15_1534,59.9824167199,chinese_cond2,001,1036,
images\watermelon01.jpg,orange,x,sounds\animalfarm_english.wav,,,,,,,,,0,0,0,1,0,9,9,207,123.191868203,8.98023643003e-06,126.191450622,2.99959332358,,,,None,0,,2018_Nov_15_1534,59.9824167199,chinese_cond2,001,1036,
images\table02.jpg,table,z,sounds\animalfarm_english.wav,,,,,,,,,0,0,0,1,0,10,10,49,127.385671648,9.30095916374e-06,128.64223155,1.25656984475,,,,z,1,1.23387871164,2018_Nov_15_1534,59.9824167199,chinese_cond2,001,1036,
images\lighter02b.jpg,stapler,x,sounds\animalfarm_english.wav,,,,,,,,,0,0,0,1,0,11,11,227,129.820492451,8.98023643003e-06,131.509630983,1.68914847474,,,,z,0,1.66732457589,2018_Nov_15_1534,59.9824167199,chinese_cond2,001,1036,
images\bull.jpg,button,x,sounds\animalfarm_english.wav,,,,,,,,,0,0,0,1,0,12,12,141,132.68629308,9.30095916374e-06,134.226992153,1.54070901532,,,,z,0,1.51728471006,2018_Nov_15_1534,59.9824167199,chinese_cond2,001,1036,
images\tent.jpg,tent,z,sounds\animalfarm_english.wav,,,,,,,,,0,0,0,1,0,13,13,11,135.417568806,8.98023643003e-06,136.744301238,1.32674173289,,,,x,0,1.317223003,2018_Nov_15_1534,59.9824167199,chinese_cond2,001,1036,
images\diaper01a.jpg,camera,x,sounds\animalfarm_english.wav,,,,,,,,,0,0,0,1,0,14,14,143,137.910596615,9.30095905005e-06,138.811527929,0.900940936344,,,,x,1,0.883817549819,2018_Nov_15_1534,59.9824167199,chinese_cond2,001,1036,
images\panda.jpg,panda,z,sounds\animalfarm_english.wav,,,,,,,,,0,0,0,1,0,15,15,83,139.99806508,9.30095916374e-06,141.845610172,1.84755439297,,,,z,1,1.83402759113,2018_Nov_15_1534,59.9824167199,chinese_cond2,001,1036,
images\scooter.jpg,pen,x,sounds\animalfarm_english.wav,,,,,,,,,0,0,0,1,0,16,16,212,143.004830405,9.30095916374e-06,143.862786157,0.857965694214,,,,x,1,0.833765239942,2018_Nov_15_1534,59.9824167199,chinese_cond2,001,1036,
images\cocktailshrimp01.jpg,cocktail shrimp,z,sounds\animalfarm_english.wav,,,,,,,,,0,0,0,1,0,17,17,30,145.061703846,9.62168189744e-06,147.930500026,2.86880612247,,,,x,0,2.85095212957,2018_Nov_15_1534,59.9824167199,chinese_cond2,001,1036,
images\globe.jpg,cloud,x,sounds\animalfarm_english.wav,,,,,,,,,0,0,0,1,0,18,18,154,149.125391683,9.30095905005e-06,150.531166552,1.40578481173,,,,x,1,1.38391312519,2018_Nov_15_1534,59.9824167199,chinese_cond2,001,1036,
images\coin01b.jpg,arrow,x,sounds\animalfarm_english.wav,,,,,,,,,0,0,0,1,0,19,19,124,151.6777192,9.62168178376e-06,152.765078939,1.08737000306,,,,x,1,1.06717409279,2018_Nov_15_1534,59.9824167199,chinese_cond2,001,1036,
images\skateboard.jpg,key,x,sounds\animalfarm_english.wav,,,,,,,,,0,0,0,1,0,20,20,189,153.87681489,9.30095916374e-06,155.61594287,1.73915299693,,,,x,1,1.7174083166,2018_Nov_15_1534,59.9824167199,chinese_cond2,001,1036,
images\bowlingball.jpg,bowling ball,z,sounds\animalfarm_english.wav,,,,,,,,,0,0,0,1,0,21,21,20,156.770252197,9.30095916374e-06,158.216466033,1.44622345779,,,,z,1,1.43392374112,2018_Nov_15_1534,59.9824167199,chinese_cond2,001,1036,
images\comb02a.jpg,diploma,x,sounds\animalfarm_english.wav,,,,,,,,,0,0,0,1,0,22,22,166,159.388342306,9.62168189744e-06,160.483725887,1.0953938443,,,,x,1,1.08384622243,2018_Nov_15_1534,59.9824167199,chinese_cond2,001,1036,
images\ear.jpg,bullet,x,sounds\animalfarm_english.wav,,,,,,,,,0,0,0,1,0,23,23,139,161.700824065,9.62168189744e-06,163.534518104,1.83370334046,,,,x,1,1.81737983642,2018_Nov_15_1534,59.9824167199,chinese_cond2,001,1036,
images\chessknight02b (1).jpg,cockroach,x,sounds\animalfarm_english.wav,,,,,,,,,0,0,0,1,0,24,24,155,164.70669714,9.30095905005e-06,165.951803713,1.24511651536,,,,x,1,1.23389474778,2018_Nov_15_1534,59.9824167199,chinese_cond2,001,1036,
images\peach01.jpg,peach,z,sounds\animalfarm_english.wav,,,,,,,,,0,0,0,1,0,25,25,106,167.111893425,9.62168189744e-06,167.918952404,0.807069562836,,,,z,1,0.783752378961,2018_Nov_15_1534,59.9824167199,chinese_cond2,001,1036,
images\redfox.jpg,red fox,z,sounds\animalfarm_english.wav,,,,,,,,,0,0,0,1,0,26,26,1,169.106047933,8.98023643003e-06,170.269557512,1.16351887998,,,,z,1,1.15052094993,2018_Nov_15_1534,59.9824167199,chinese_cond2,001,1036,
images\rhinoceros01.jpg,envelope,x,sounds\animalfarm_english.wav,,,,,,,,,0,0,0,1,0,27,27,173,171.404542653,9.62168189744e-06,172.886903223,1.48237051301,,,,x,1,1.46727377341,2018_Nov_15_1534,59.9824167199,chinese_cond2,001,1036,
images\tissuebox03.jpg,tissue box,z,sounds\animalfarm_english.wav,,,,,,,,,0,0,0,1,0,28,28,58,174.090172478,9.94240463115e-06,175.337366315,1.24720474105,,,,z,1,1.23371289799,2018_Nov_15_1534,59.9824167199,chinese_cond2,001,1036,
images\dreamcatcher.jpg,dream catcher,z,sounds\animalfarm_english.wav,,,,,,,,,0,0,0,1,0,29,29,48,176.505255042,9.62168189744e-06,178.104900066,1.59965464576,,,,z,1,1.58396745562,2018_Nov_15_1534,59.9824167199,chinese_cond2,001,1036,
images\honeycomb.jpg,honey comb,z,sounds\animalfarm_english.wav,,,,,,,,,0,0,0,1,0,30,30,59,179.277794634,9.62168189744e-06,180.455515757,1.17773138702,,,,z,1,1.16720622921,2018_Nov_15_1534,59.9824167199,chinese_cond2,001,1036,
images\feather03b.jpg,feather,z,sounds\animalfarm_english.wav,,,,,,,,,0,0,0,1,0,31,31,114,181.628775307,9.30095916374e-06,183.272750306,1.64398494143,,,,x,0,1.63383182198,2018_Nov_15_1534,59.9824167199,chinese_cond2,001,1036,
images\leaf01a.jpg,leaf,z,sounds\animalfarm_english.wav,,,,,,,,,0,0,0,1,0,32,32,68,184.44865165,8.98023643003e-06,185.290073824,0.841432116789,,,,z,1,0.81710273198,2018_Nov_15_1534,59.9824167199,chinese_cond2,001,1036,
images\lightswitch02a.jpg,fork,x,sounds\animalfarm_english.wav,,,,,,,,,0,0,0,1,0,33,33,177,186.475751117,8.98023643003e-06,188.390866073,1.91512457833,,,,x,1,1.90070456369,2018_Nov_15_1534,59.9824167199,chinese_cond2,001,1036,
images\snowman.jpg,globe,x,sounds\animalfarm_english.wav,,,,,,,,,0,0,0,1,0,34,34,180,189.628322768,9.30095916374e-06,190.674784907,1.04647240277,,,,x,1,1.0338198911,2018_Nov_15_1534,59.9824167199,chinese_cond2,001,1036,
images\ruler02b.jpg,watermelon,x,sounds\animalfarm_english.wav,,,,,,,,,0,0,0,1,0,35,35,238,191.823476134,8.98023643003e-06,193.008717565,1.18525105213,,,,x,1,1.16718762729,2018_Nov_15_1534,59.9824167199,chinese_cond2,001,1036,
images\bench02.jpg,electric toothbrush,x,sounds\animalfarm_english.wav,,,,,,,,,0,0,0,1,0,36,36,172,194.145318827,9.30095916374e-06,195.409331043,1.26402215809,,,,x,1,1.25054186105,2018_Nov_15_1534,59.9824167199,chinese_cond2,001,1036,
images\candle08a.jpg,screw driver,x,sounds\animalfarm_english.wav,,,,,,,,,0,0,0,1,0,37,37,221,196.550445195,9.30095905005e-06,197.6765832,1.12614762611,,,,x,1,1.11717572847,2018_Nov_15_1534,59.9824167199,chinese_cond2,001,1036,
images\lettuce.jpg,mushroom,x,sounds\animalfarm_english.wav,,,,,,,,,0,0,0,1,0,38,38,205,198.821333065,9.30095916374e-06,199.693771372,0.872448570507,,,,x,1,0.850443463318,2018_Nov_15_1534,59.9824167199,chinese_cond2,001,1036,
images\gps.jpg,gps,z,sounds\animalfarm_english.wav,,,,,,,,,0,0,0,1,0,39,39,21,200.880735404,9.30095916374e-06,202.494481965,1.61375618273,,,,z,1,1.60061136167,2018_Nov_15_1534,59.9824167199,chinese_cond2,001,1036,
images\pipe.jpg,icecube,x,sounds\animalfarm_english.wav,,,,,,,,,0,0,0,1,0,40,40,188,203.680561444,9.62168189744e-06,206.678741022,2.99818984092,,,,None,0,,2018_Nov_15_1534,59.9824167199,chinese_cond2,001,1036,
images\bullet (2).jpg,rubber glove,x,sounds\animalfarm_english.wav,,,,,,,,,0,0,0,1,0,41,41,217,207.848138108,9.62168189744e-06,208.979494272,1.13136642636,,,,z,0,1.11718727449,2018_Nov_15_1534,59.9824167199,chinese_cond2,001,1036,
images\elbow.jpg,elbow,z,sounds\animalfarm_english.wav,,,,,,,,,0,0,0,1,0,42,42,105,210.158483212,9.94240463115e-06,211.146701142,0.988228192939,,,,z,1,0.967139069866,2018_Nov_15_1534,59.9824167199,chinese_cond2,001,1036,
images\ostrich.jpg,ostrich,z,sounds\animalfarm_english.wav,,,,,,,,,0,0,0,1,0,43,43,76,212.328272542,9.30095916374e-06,213.463992138,1.13572953837,,,,z,1,1.11720780075,2018_Nov_15_1534,59.9824167199,chinese_cond2,001,1036,
images\bat.jpg,hand,x,sounds\animalfarm_english.wav,,,,,,,,,0,0,0,1,0,44,44,185,214.597229661,9.62168189744e-06,216.314689293,1.71746957464,,,,x,1,1.70066017567,2018_Nov_15_1534,59.9824167199,chinese_cond2,001,1036,
images\envelope02a.jpg,grand piano,x,sounds\animalfarm_english.wav,,,,,,,,,0,0,0,1,0,45,45,182,217.520542612,9.94240463115e-06,218.915354537,1.39482250883,,,,x,1,1.38390671074,2018_Nov_15_1534,59.9824167199,chinese_cond2,001,1036,
images\highlighter03b.jpg,coin,x,sounds\animalfarm_english.wav,,,,,,,,,0,0,0,1,0,46,46,156,220.084699666,9.30095916374e-06,221.399487421,1.314797377,,,,x,1,1.30072149785,2018_Nov_15_1534,59.9824167199,chinese_cond2,001,1036,
images\gluestick.jpg,squirrel,x,sounds\animalfarm_english.wav,,,,,,,,,0,0,0,1,0,47,47,226,222.527438792,9.30095916374e-06,223.966647402,1.43921823193,,,,z,0,1.41724519702,2018_Nov_15_1534,59.9824167199,chinese_cond2,001,1036,
images\bracelet02a.jpg,chess knight,x,sounds\animalfarm_english.wav,,,,,,,,,0,0,0,1,0,48,48,152,225.152670434,9.30095916374e-06,226.55048721,1.39782671864,,,,x,1,1.38375276383,2018_Nov_15_1534,59.9824167199,chinese_cond2,001,1036,
images\giraffe.jpg,lettuce,x,sounds\animalfarm_english.wav,,,,,,,,,0,0,0,1,0,49,49,195,227.720158193,8.98023643003e-06,229.401389307,1.68124105584,,,,x,1,1.66733002818,2018_Nov_15_1534,59.9824167199,chinese_cond2,001,1036,
images\ladybug03.jpg,giraffe,x,sounds\animalfarm_english.wav,,,,,,,,,0,0,0,1,0,50,50,178,230.581803219,8.98023643003e-06,232.635540953,2.05374703572,,,,x,1,2.03407871434,2018_Nov_15_1534,59.9824167199,chinese_cond2,001,1036,
images\straw.jpg,straw,z,sounds\animalfarm_english.wav,,,,,,,,,0,0,0,1,0,51,51,109,233.794922831,8.98023643003e-06,234.969476176,1.17456264645,,,,z,1,1.1505247986,2018_Nov_15_1534,59.9824167199,chinese_cond2,001,1036,
images\flower01.jpg,bus,x,sounds\animalfarm_english.wav,,,,,,,,,0,0,0,1,0,52,52,140,236.154059484,8.98023643003e-06,237.236722239,1.08267237724,,,,x,1,1.06716735761,2018_Nov_15_1534,59.9824167199,chinese_cond2,001,1036,
images\lion.jpg,lion,z,sounds\animalfarm_english.wav,,,,,,,,,0,0,0,1,0,53,53,44,238.364417032,9.62168178376e-06,239.537304864,1.17289841621,,,,z,1,1.15051325258,2018_Nov_15_1534,59.9824167199,chinese_cond2,001,1036,
images\orange.jpg,bat,x,sounds\animalfarm_english.wav,,,,,,,,,0,0,0,1,0,54,54,128,240.731191697,9.62168201113e-06,241.721319851,0.990138096793,,,,x,1,0.967255171494,2018_Nov_15_1534,59.9824167199,chinese_cond2,001,1036,
images\cat.jpg,black olive,x,sounds\animalfarm_english.wav,,,,,,,,,0,0,0,1,0,55,55,133,242.950469506,9.62168178376e-06,244.872012708,1.921552824,,,,x,1,1.90070424297,2018_Nov_15_1534,59.9824167199,chinese_cond2,001,1036,
images\eyedrops.jpg,bicycle,x,sounds\animalfarm_english.wav,,,,,,,,,0,0,0,1,0,56,56,131,246.046272913,8.98023654372e-06,246.972549662,0.926286370759,,,,x,1,0.917127491775,2018_Nov_15_1534,59.9824167199,chinese_cond2,001,1036,
images\ant.jpg,ant,z,sounds\animalfarm_english.wav,,,,,,,,,0,0,0,1,0,57,57,98,248.155642571,9.30095916374e-06,249.156443095,1.00081046634,,,,z,1,0.98381472746,2018_Nov_15_1534,59.9824167199,chinese_cond2,001,1036,
images\mushroom01.jpg,shower head,x,sounds\animalfarm_english.wav,,,,,,,,,0,0,0,1,0,58,58,222,250.355076303,9.94240440377e-06,252.107201252,1.75213521157,,,,x,1,1.734000907,2018_Nov_15_1534,59.9824167199,chinese_cond2,001,1036,
images\button07.jpg,radish,x,sounds\animalfarm_english.wav,,,,,,,,,0,0,0,1,0,59,59,215,253.294727511,1.02631272512e-05,254.174397154,0.87968022661,,,,x,1,0.86711655513,2018_Nov_15_1534,59.9824167199,chinese_cond2,001,1036,
images\treadmill.jpg,lily,x,sounds\animalfarm_english.wav,,,,,,,,,0,0,0,1,0,60,60,199,255.312027295,9.62168201113e-06,256.491663133,1.17964578099,,,,x,1,1.16719981475,2018_Nov_15_1534,59.9824167199,chinese_cond2,001,1036,
images\screwdriver02b.jpg,cola,x,sounds\animalfarm_english.wav,,,,,,,,,0,0,0,1,0,61,61,158,257.605942415,9.30095916374e-06,258.592194635,0.986262162608,,,,x,1,0.967144201429,2018_Nov_15_1534,59.9824167199,chinese_cond2,001,1036,
images\saltshaker03c.jpg,salt shaker,z,sounds\animalfarm_english.wav,,,,,,,,,0,0,0,1,0,62,62,63,259.787030165,1.02631274785e-05,260.759417863,0.97239796046,,,,z,1,0.950469506004,2018_Nov_15_1534,59.9824167199,chinese_cond2,001,1036,
images\tank.jpg,wallet,x,sounds\animalfarm_english.wav,,,,,,,,,0,0,0,1,0,63,63,237,261.935673284,8.98023631635e-06,262.82660286,0.890938556581,,,,x,1,0.867103726221,2018_Nov_15_1534,59.9824167199,chinese_cond2,001,1036,
images\aquarium.jpg,computer mouse,x,sounds\animalfarm_english.wav,,,,,,,,,0,0,0,1,0,64,64,159,264.033899751,9.62168201113e-06,266.060780164,2.0268903558,,,,x,1,2.01742230011,2018_Nov_15_1534,59.9824167199,chinese_cond2,001,1036,
images\dresser02.jpg,dresser,z,sounds\animalfarm_english.wav,,,,,,,,,0,0,0,1,0,65,65,87,267.218027953,9.30095916374e-06,268.86148723,1.64346954,,,,x,0,1.63396652553,2018_Nov_15_1534,59.9824167199,chinese_cond2,001,1036,
images\pictureframe04.jpg,picture frame,z,sounds\animalfarm_english.wav,,,,,,,,,0,0,0,1,0,66,66,41,270.054006821,8.98023631635e-06,271.078725563,1.02472836388,,,,z,1,1.00047883903,2018_Nov_15_1534,59.9824167199,chinese_cond2,001,1036,
images\butterfly.jpg,butterfly,z,sounds\animalfarm_english.wav,,,,,,,,,0,0,0,1,0,67,67,91,272.229558256,8.98023631635e-06,272.895855877,0.666306922672,,,,z,1,0.650391057224,2018_Nov_15_1534,59.9824167199,chinese_cond2,001,1036,
images\knife04.jpg,tooth brush,x,sounds\animalfarm_english.wav,,,,,,,,,0,0,0,1,0,68,68,233,274.05750783,9.62168201113e-06,274.929707199,0.872209311351,,,,x,1,0.850438331754,2018_Nov_15_1534,59.9824167199,chinese_cond2,001,1036,
images\birthdaycandle.jpg,birthday candle,z,sounds\animalfarm_english.wav,,,,,,,,,0,0,0,1,0,69,69,55,276.10489301,9.62168201113e-06,277.313666188,1.20878312023,,,,z,1,1.20054022537,2018_Nov_15_1534,59.9824167199,chinese_cond2,001,1036,
images\apple06.jpg,apple,z,sounds\animalfarm_english.wav,,,,,,,,,0,0,0,1,0,70,70,13,278.468265127,9.30095916374e-06,278.997412409,0.529156903332,,,,z,1,0.517012737183,2018_Nov_15_1534,59.9824167199,chinese_cond2,001,1036,
images\doorhandle.jpg,doll,x,sounds\animalfarm_english.wav,,,,,,,,,0,0,0,1,0,71,71,168,280.167215209,8.98023654372e-06,281.798144491,1.63093922368,,,,x,1,1.61731235636,2018_Nov_15_1534,59.9824167199,chinese_cond2,001,1036,
images\flipflop01b.jpg,flip flop,z,sounds\animalfarm_english.wav,,,,,,,,,0,0,0,1,0,72,72,27,282.982368909,8.98023654372e-06,284.59885765,1.61649804135,,,,x,0,1.6006315672,2018_Nov_15_1534,59.9824167199,chinese_cond2,001,1036,
images\mitten01.jpg,mitten,z,sounds\animalfarm_english.wav,,,,,,,,,0,0,0,1,0,73,73,102,285.796722085,9.94240463115e-06,286.732744957,0.936033134507,,,,x,0,0.917094778057,2018_Nov_15_1534,59.9824167199,chinese_cond2,001,1036,
images\corkscrew02a.jpg,masquerade mask,x,sounds\animalfarm_english.wav,,,,,,,,,0,0,0,1,0,74,74,201,287.948396034,9.94240463115e-06,289.183365523,1.23497975277,,,,x,1,1.21719471526,2018_Nov_15_1534,59.9824167199,chinese_cond2,001,1036,
images\fork01.jpg,cooking pot,x,sounds\animalfarm_english.wav,,,,,,,,,0,0,0,1,0,75,75,160,290.293802867,8.98023631635e-06,292.834299885,2.54050696,,,,x,1,2.51753327017,2018_Nov_15_1534,59.9824167199,chinese_cond2,001,1036,
images\handfan01b.jpg,handfan,z,sounds\animalfarm_english.wav,,,,,,,,,0,0,0,1,0,76,76,69,294.014624636,9.62168201113e-06,294.834650435,0.820035741341,,,,x,0,0.800266071576,2018_Nov_15_1534,59.9824167199,chinese_cond2,001,1036,
images\bottleofredwine02.jpg,pipe,x,sounds\animalfarm_english.wav,,,,,,,,,0,0,0,1,0,77,77,213,296.00457094,8.98023654372e-06,296.98536029,0.980799292357,,,,x,1,0.967121109393,2018_Nov_15_1534,59.9824167199,chinese_cond2,001,1036,
images\medal01.jpg,medal,z,sounds\animalfarm_english.wav,,,,,,,,,0,0,0,1,0,78,78,115,298.161527513,9.30095916374e-06,299.002552953,0.84103506205,,,,x,0,0.817106580653,2018_Nov_15_1534,59.9824167199,chinese_cond2,001,1036,
images\apricot.jpg,apricot,z,sounds\animalfarm_english.wav,,,,,,,,,0,0,0,1,0,79,79,32,300.18586684,9.62168178376e-06,300.986229128,0.800372551523,,,,x,0,0.783595224823,2018_Nov_15_1534,59.9824167199,chinese_cond2,001,1036,
images\acousticguitar02.jpg,acoustic guitar,z,sounds\animalfarm_english.wav,,,,,,,,,0,0,0,1,0,80,80,97,302.161865554,9.30095916374e-06,303.136943474,0.975087541269,,,,z,1,0.967144842875,2018_Nov_15_1534,59.9824167199,chinese_cond2,001,1036,
images\bandaid01.jpg,door handle,x,sounds\animalfarm_english.wav,,,,,,,,,0,0,0,1,0,81,81,170,304.30144152,1.02631272512e-05,305.654262501,1.35283156476,,,,x,1,1.33390892373,2018_Nov_15_1534,59.9824167199,chinese_cond2,001,1036,
images\desktopcomputer.jpg,desktop computer,z,sounds\animalfarm_english.wav,,,,,,,,,0,0,0,1,0,82,82,16,306.821539931,8.98023631635e-06,307.854816197,1.03328556703,,,,z,1,1.01714968579,2018_Nov_15_1534,59.9824167199,chinese_cond2,001,1036,
images\wallet01.jpg,lamp,x,sounds\animalfarm_english.wav,,,,,,,,,0,0,0,1,0,83,83,193,309.02204616,9.62168178376e-06,310.188745968,1.16670975042,,,,x,1,1.15051934632,2018_Nov_15_1534,59.9824167199,chinese_cond2,001,1036,
images\puma.jpg,puma,z,sounds\animalfarm_english.wav,,,,,,,,,0,0,0,1,0,84,84,4,311.286077298,9.30095916374e-06,312.172603031,0.886535995674,,,,z,1,0.867129704762,2018_Nov_15_1534,59.9824167199,chinese_cond2,001,1036,
images\binder03b.jpg,dj mixer,x,sounds\animalfarm_english.wav,,,,,,,,,0,0,0,1,0,85,85,167,313.358888093,9.30095916374e-06,314.389829177,1.03095070556,,,,x,1,1.01715481735,2018_Nov_15_1534,59.9824167199,chinese_cond2,001,1036,
images\mattress.jpg,cat,x,sounds\animalfarm_english.wav,,,,,,,,,0,0,0,1,0,86,86,147,315.551158483,8.98023654372e-06,316.423693007,0.872543825157,,,,x,1,0.850458858009,2018_Nov_15_1534,59.9824167199,chinese_cond2,001,1036,
images\antelope.jpg,antelope,z,sounds\animalfarm_english.wav,,,,,,,,,0,0,0,1,0,87,87,12,317.588656743,9.30095916374e-06,319.057694491,1.46904769083,,,,z,1,1.45060388883,2018_Nov_15_1534,59.9824167199,chinese_cond2,001,1036,
images\lightbulb03b.jpg,treadmill,x,sounds\animalfarm_english.wav,,,,,,,,,0,0,0,1,0,88,88,234,320.228116607,9.62168178376e-06,321.308260727,1.08015406237,,,,x,1,1.06716671617,2018_Nov_15_1534,59.9824167199,chinese_cond2,001,1036,
images\cookingpot.jpg,grasshopper,x,sounds\animalfarm_english.wav,,,,,,,,,0,0,0,1,0,89,89,183,322.445782464,9.30095916374e-06,323.192085653,0.746312811141,,,,x,1,0.733755233393,2018_Nov_15_1534,59.9824167199,chinese_cond2,001,1036,
images\bed.jpg,bed,z,sounds\animalfarm_english.wav,,,,,,,,,0,0,0,1,0,90,90,103,324.375385429,9.30095916374e-06,325.05922498,0.683849173081,,,,z,1,0.667061262531,2018_Nov_15_1534,59.9824167199,chinese_cond2,001,1036,
images\nailclipper03a.jpg,aquarium,x,sounds\animalfarm_english.wav,,,,,,,,,0,0,0,1,0,91,91,123,326.227494726,9.30095893636e-06,327.09307983,0.865595046502,,,,x,1,0.850444425486,2018_Nov_15_1534,59.9824167199,chinese_cond2,001,1036,
images\corn01.jpg,corn,z,sounds\animalfarm_english.wav,,,,,,,,,0,0,0,1,0,92,92,22,328.265978887,9.62168201113e-06,329.060256424,0.794287479177,,,,x,0,0.783746926674,2018_Nov_15_1534,59.9824167199,chinese_cond2,001,1036,
images\chameleon.jpg,50 dollar bill,x,sounds\animalfarm_english.wav,,,,,,,,,0,0,0,1,0,93,93,120,330.251516217,8.98023654372e-06,331.177456207,0.925949611893,,,,x,1,0.917129416111,2018_Nov_15_1534,59.9824167199,chinese_cond2,001,1036,
images\remotecontrol01c.jpg,remote control,z,sounds\animalfarm_english.wav,,,,,,,,,0,0,0,1,0,94,94,85,332.353869103,9.30095916374e-06,333.261334822,0.907475661956,,,,z,1,0.883790929833,2018_Nov_15_1534,59.9824167199,chinese_cond2,001,1036,
images\cake.jpg,cake,z,sounds\animalfarm_english.wav,,,,,,,,,0,0,0,1,0,95,95,23,334.42822995,9.62168201113e-06,335.295185503,0.866964853279,,,,z,1,0.850442180427,2018_Nov_15_1534,59.9824167199,chinese_cond2,001,1036,
images\blackolive.jpg,tank,x,sounds\animalfarm_english.wav,,,,,,,,,0,0,0,1,0,96,96,229,336.470303,9.30095916374e-06,337.695827205,1.22553382695,,,,x,1,1.21723640921,2018_Nov_15_1534,59.9824167199,chinese_cond2,001,1036,
images\eraser.jpg,eraser,z,sounds\animalfarm_english.wav,,,,,,,,,0,0,0,1,0,97,97,110,338.825389887,8.98023631635e-06,339.896360695,1.07098010942,,,,x,0,1.0502925312,2018_Nov_15_1534,59.9824167199,chinese_cond2,001,1036,
images\scissors04a.jpg,leek,x,sounds\animalfarm_english.wav,,,,,,,,,0,0,0,1,0,98,98,194,341.055551743,8.98023631635e-06,342.180292037,1.12474991645,,,,x,1,1.1005215593,2018_Nov_15_1534,59.9824167199,chinese_cond2,001,1036,
images\floorlamp.jpg,floor lamp,z,sounds\animalfarm_english.wav,,,,,,,,,0,0,0,1,0,99,99,26,343.290819825,8.98023654372e-06,345.081024825,1.79021526268,,,,z,1,1.7673480528,2018_Nov_15_1534,59.9824167199,chinese_cond2,001,1036,
images\screw03c.jpg,screw,z,sounds\animalfarm_english.wav,,,,,,,,,0,0,0,1,0,100,100,84,346.244577701,9.94240463115e-06,347.331605493,1.08703773431,,,,x,0,1.06716607472,2018_Nov_15_1534,59.9824167199,chinese_cond2,001,1036,
images\hanger02a.jpg,hanger,z,sounds\animalfarm_english.wav,,,,,,,,,0,0,0,1,0,101,101,88,348.447476521,1.02631272512e-05,349.682348832,1.23488193234,,,,z,1,1.21734898289,2018_Nov_15_1534,59.9824167199,chinese_cond2,001,1036,
images\tape01a.jpg,tie,x,sounds\animalfarm_english.wav,,,,,,,,,0,0,0,1,0,102,102,232,350.825933191,9.30095916374e-06,352.149524785,1.32360153665,,,,x,1,1.30057653118,2018_Nov_15_1534,59.9824167199,chinese_cond2,001,1036,
images\electrictoothbrush01a.jpg,banjo,x,sounds\animalfarm_english.wav,,,,,,,,,0,0,0,1,0,103,103,127,353.262149458,9.62168178376e-06,354.30005696,1.03791776541,,,,x,1,1.01715674169,2018_Nov_15_1534,59.9824167199,chinese_cond2,001,1036,
images\highheelshoe02a.jpg,high heel shoe,z,sounds\animalfarm_english.wav,,,,,,,,,0,0,0,1,0,104,104,75,355.479433014,8.98023654372e-06,356.317235832,0.837812760788,,,,z,1,0.817103373426,2018_Nov_15_1534,59.9824167199,chinese_cond2,001,1036,
images\bowtie.jpg,bowtie,z,sounds\animalfarm_english.wav,,,,,,,,,0,0,0,1,0,105,105,89,357.497556414,9.30095916374e-06,358.401101298,0.903554505866,,,,x,0,0.883786118992,2018_Nov_15_1534,59.9824167199,chinese_cond2,001,1036,
images\parrot01.jpg,chameleon,x,sounds\animalfarm_english.wav,,,,,,,,,0,0,0,1,0,106,106,150,359.57771689,9.62168201113e-06,360.484976706,0.907270078686,,,,z,0,0.883787401883,2018_Nov_15_1534,59.9824167199,chinese_cond2,001,1036,
images\lollipop03b.jpg,lollipop,z,sounds\animalfarm_english.wav,,,,,,,,,0,0,0,1,0,107,107,42,361.642263623,9.62168178376e-06,362.435473794,0.793219793211,,,,x,0,0.783764245702,2018_Nov_15_1534,59.9824167199,chinese_cond2,001,1036,
images\plant01.jpg,plant,z,sounds\animalfarm_english.wav,,,,,,,,,0,0,0,1,0,108,108,47,363.606293606,8.98023654372e-06,364.419313538,0.813029874039,,,,z,1,0.800432847396,2018_Nov_15_1534,59.9824167199,chinese_cond2,001,1036,
images\arrow02.jpg,hammer,x,sounds\animalfarm_english.wav,,,,,,,,,0,0,0,1,0,109,109,184,365.567518549,9.62168201113e-06,366.653224963,1.08571603594,,,,x,1,1.06717505496,2018_Nov_15_1534,59.9824167199,chinese_cond2,001,1036,
images\pen03c.jpg,pepper,x,sounds\animalfarm_english.wav,,,,,,,,,0,0,0,1,0,110,110,211,367.768613945,9.62168178376e-06,368.63705701,0.868452686021,,,,x,1,0.850441538982,2018_Nov_15_1534,59.9824167199,chinese_cond2,001,1036,
images\axe01.jpg,axe,z,sounds\animalfarm_english.wav,,,,,,,,,0,0,0,1,0,111,111,104,369.830929089,8.98023631635e-06,370.637576901,0.806657434128,,,,x,0,0.783762642088,2018_Nov_15_1534,59.9824167199,chinese_cond2,001,1036,
images\blueberry02.jpg,blueberry,z,sounds\animalfarm_english.wav,,,,,,,,,0,0,0,1,0,112,112,46,371.821046018,9.62168201113e-06,372.504715907,0.683679510757,,,,z,1,0.66706350759,2018_Nov_15_1534,59.9824167199,chinese_cond2,001,1036,
images\beermug01b.jpg,beer mug,z,sounds\animalfarm_english.wav,,,,,,,,,0,0,0,1,0,113,113,111,373.694035648,9.30095916374e-06,374.638611874,0.944586168255,,,,x,0,0.933811808882,2018_Nov_15_1534,59.9824167199,chinese_cond2,001,1036,
images\safe.jpg,safe,z,sounds\animalfarm_english.wav,,,,,,,,,0,0,0,1,0,114,114,78,375.822872855,9.62168201113e-06,376.755807808,0.932944895345,,,,x,0,0.917129416111,2018_Nov_15_1534,59.9824167199,chinese_cond2,001,1036,
images\key03b.jpg,cigar,x,sounds\animalfarm_english.wav,,,,,,,,,0,0,0,1,0,115,115,153,377.957451961,9.30095916374e-06,378.77299149,0.815548830356,,,,z,0,0.800433488841,2018_Nov_15_1534,59.9824167199,chinese_cond2,001,1036,
images\gorilla.jpg,gorilla,z,sounds\animalfarm_english.wav,,,,,,,,,0,0,0,1,0,116,116,80,379.887047228,9.62168178376e-06,380.656810643,0.769773358076,,,,z,1,0.750419024246,2018_Nov_15_1534,59.9824167199,chinese_cond2,001,1036,
images\lamp04b.jpg,parking meter,x,sounds\animalfarm_english.wav,,,,,,,,,0,0,0,1,0,117,117,209,381.847685889,9.62168178376e-06,383.107439869,1.25976392241,,,,x,1,1.25054859623,2018_Nov_15_1534,59.9824167199,chinese_cond2,001,1036,
images\dragonfly02.jpg,dragon fly,z,sounds\animalfarm_english.wav,,,,,,,,,0,0,0,1,0,118,118,29,384.22786933,9.30095916374e-06,385.958163003,1.73030297393,,,,z,1,1.71733326748,2018_Nov_15_1534,59.9824167199,chinese_cond2,001,1036,
images\candycane01a.jpg,lip,x,sounds\animalfarm_english.wav,,,,,,,,,0,0,0,1,0,119,119,200,387.154392394,8.98023654372e-06,388.642194667,1.48781221556,,,,x,1,1.46728115003,2018_Nov_15_1534,59.9824167199,chinese_cond2,001,1036,
images\parkingmeter.jpg,ear,x,sounds\animalfarm_english.wav,,,,,,,,,0,0,0,1,0,120,120,171,389.810776155,9.30095916374e-06,391.526260777,1.71549488479,,,,x,1,1.70066081711,2018_Nov_15_1534,59.9824167199,chinese_cond2,001,1036,
images\bus.jpg,microphone,x,sounds\animalfarm_english.wav,,,,,,,,,0,0,0,1,0,121,121,203,392.705904634,9.30095916374e-06,393.493488046,0.787593354368,,,,x,1,0.767148563258,2018_Nov_15_1534,59.9824167199,chinese_cond2,001,1036,
images\weight01.jpg,weight,z,sounds\animalfarm_english.wav,,,,,,,,,0,0,0,1,0,122,122,67,394.663844734,9.94240440377e-06,395.493938982,0.830104510708,,,,x,0,0.81709920403,2018_Nov_15_1534,59.9824167199,chinese_cond2,001,1036,
images\paintbrush03a.jpg,paint brush,z,sounds\animalfarm_english.wav,,,,,,,,,0,0,0,1,0,123,123,0,396.662018218,8.65951369633e-06,398.011258009,1.3492494126,,,,z,1,1.3339015471,2018_Nov_15_1534,59.9824167199,chinese_cond2,001,1036,
images\spoon02b.jpg,spoon,z,sounds\animalfarm_english.wav,,,,,,,,,0,0,0,1,0,124,124,38,399.142032381,9.30095916374e-06,400.41186828,1.26984552069,,,,z,1,1.25053993672,2018_Nov_15_1534,59.9824167199,chinese_cond2,001,1036,
images\cigar.jpg,crocodile,x,sounds\animalfarm_english.wav,,,,,,,,,0,0,0,1,0,125,125,162,401.584089651,9.30095916374e-06,402.929265564,1.34518585561,,,,x,1,1.33398589718,2018_Nov_15_1534,59.9824167199,chinese_cond2,001,1036,
images\cupcake.jpg,scissors,x,sounds\animalfarm_english.wav,,,,,,,,,0,0,0,1,0,126,126,219,404.074963806,9.30095916374e-06,404.996382889,0.921428704299,,,,x,1,0.900463700922,2018_Nov_15_1534,59.9824167199,chinese_cond2,001,1036,
images\lily.jpg,kiwi,x,sounds\animalfarm_english.wav,,,,,,,,,0,0,0,1,0,127,127,190,406.159387971,8.98023654372e-06,407.130256726,0.970878696891,,,,x,1,0.950465657331,2018_Nov_15_1534,59.9824167199,chinese_cond2,001,1036,
images\lantern03.jpg,lantern,z,sounds\animalfarm_english.wav,,,,,,,,,0,0,0,1,0,128,128,5,408.332751756,9.94240463115e-06,409.764269115,1.43152730088,,,,z,1,1.41726059171,2018_Nov_15_1534,59.9824167199,chinese_cond2,001,1036,
images\basketball01.jpg,basket ball,z,sounds\animalfarm_english.wav,,,,,,,,,0,0,0,1,0,129,129,33,410.974041985,8.98023654372e-06,411.664753342,0.690720657559,,,,z,1,0.667063186868,2018_Nov_15_1534,59.9824167199,chinese_cond2,001,1036,
images\daisy.jpg,daisy,z,sounds\animalfarm_english.wav,,,,,,,,,0,0,0,1,0,130,130,6,412.832752077,9.30095916374e-06,413.698605305,0.865863170703,,,,z,1,0.850445387654,2018_Nov_15_1534,59.9824167199,chinese_cond2,001,1036,
images\hairband.jpg,hairband,z,sounds\animalfarm_english.wav,,,,,,,,,0,0,0,1,0,131,131,66,414.882064159,9.62168201113e-06,416.032538283,1.15048470826,,,,z,1,1.13384785812,2018_Nov_15_1534,59.9824167199,chinese_cond2,001,1036,
images\teapot.jpg,light switch,x,sounds\animalfarm_english.wav,,,,,,,,,0,0,0,1,0,132,132,197,417.210142664,9.94240463115e-06,418.699888196,1.48975547458,,,,x,1,1.46726864185,2018_Nov_15_1534,59.9824167199,chinese_cond2,001,1036,
images\carrot02.jpg,corkscrew,x,sounds\animalfarm_english.wav,,,,,,,,,0,0,0,1,0,133,133,161,419.878054804,9.62168178376e-06,420.78375302,0.905707838271,,,,z,0,0.883782911765,2018_Nov_15_1534,59.9824167199,chinese_cond2,001,1036,
images\grasshopper.jpg,cauliflower,x,sounds\animalfarm_english.wav,,,,,,,,,0,0,0,1,0,134,134,148,422.005435288,9.30095916374e-06,423.351076249,1.34565154502,,,,x,1,1.33390282999,2018_Nov_15_1534,59.9824167199,chinese_cond2,001,1036,
images\broom02.jpg,broom,z,sounds\animalfarm_english.wav,,,,,,,,,0,0,0,1,0,135,135,116,424.522162903,9.62168178376e-06,425.334939085,0.812785804042,,,,x,0,0.800448883532,2018_Nov_15_1534,59.9824167199,chinese_cond2,001,1036,
images\marker01a.jpg,marker,z,sounds\animalfarm_english.wav,,,,,,,,,0,0,0,1,0,136,136,95,426.500715853,9.30095916374e-06,427.335463146,0.834757235345,,,,z,1,0.817125182571,2018_Nov_15_1534,59.9824167199,chinese_cond2,001,1036,
images\calculator02b.jpg,dice,x,sounds\animalfarm_english.wav,,,,,,,,,0,0,0,1,0,137,137,165,428.503098182,9.30095916374e-06,429.602681306,1.099593067,,,,z,0,1.08383660075,2018_Nov_15_1534,59.9824167199,chinese_cond2,001,1036,
images\bowl02b (1).jpg,bowl,z,sounds\animalfarm_english.wav,,,,,,,,,0,0,0,1,0,138,138,24,430.793346479,9.94240463115e-06,431.353127271,0.559790414111,,,,z,1,0.550367259597,2018_Nov_15_1534,59.9824167199,chinese_cond2,001,1036,
images\kiwi03.jpg,backpack,x,sounds\animalfarm_english.wav,,,,,,,,,0,0,0,1,0,139,139,125,432.544233437,9.62168178376e-06,433.570374264,1.02615141063,,,,x,1,1.01716347687,2018_Nov_15_1534,59.9824167199,chinese_cond2,001,1036,
images\shotglass.jpg,shot glass,z,sounds\animalfarm_english.wav,,,,,,,,,0,0,0,1,0,140,140,86,434.723900386,9.30095916374e-06,435.920982579,1.19709181458,,,,z,1,1.18387290656,2018_Nov_15_1534,59.9824167199,chinese_cond2,001,1036,
images\plate01b.jpg,plate,z,sounds\animalfarm_english.wav,,,,,,,,,0,0,0,1,0,141,141,3,437.095675118,9.62168178376e-06,437.754618888,0.658953712654,,,,z,1,0.650241921155,2018_Nov_15_1534,59.9824167199,chinese_cond2,001,1036,
images\pepper05a.jpg,lighter,x,sounds\animalfarm_english.wav,,,,,,,,,0,0,0,1,0,142,142,198,438.943683975,9.94240463115e-06,439.605245805,0.66157241374,,,,x,1,0.650305424255,2018_Nov_15_1534,59.9824167199,chinese_cond2,001,1036,
images\graduationcap.jpg,graduation cap,z,sounds\animalfarm_english.wav,,,,,,,,,0,0,0,1,0,143,143,35,440.769515818,8.98023654372e-06,442.072553896,1.30304769981,,,,z,1,1.28389189335,2018_Nov_15_1534,59.9824167199,chinese_cond2,001,1036,
images\paperclip04.jpg,eye drops,x,sounds\animalfarm_english.wav,,,,,,,,,0,0,0,1,0,144,144,174,443.247090564,9.30095916374e-06,445.173341655,1.92626071294,,,,x,1,1.91739112586,2018_Nov_15_1534,59.9824167199,chinese_cond2,001,1036,
images\sunglasses03a.jpg,sun glasses,z,sounds\animalfarm_english.wav,,,,,,,,,0,0,0,1,0,145,145,17,446.353647163,9.30095916374e-06,447.507280406,1.1536431857,,,,z,1,1.13386261136,2018_Nov_15_1534,59.9824167199,chinese_cond2,001,1036,
images\sportshorts02.jpg,tape,x,sounds\animalfarm_english.wav,,,,,,,,,0,0,0,1,0,146,146,230,448.681791095,9.30095916374e-06,449.641154243,0.959372768973,,,,x,1,0.950470468172,2018_Nov_15_1534,59.9824167199,chinese_cond2,001,1036,
images\icecube02 (2).jpg,aloe,x,sounds\animalfarm_english.wav,,,,,,,,,0,0,0,1,0,147,147,122,450.855979138,9.30095916374e-06,451.958407714,1.10243851906,,,,z,0,1.08383050702,2018_Nov_15_1534,59.9824167199,chinese_cond2,001,1036,
images\volleyball.jpg,volley ball,z,sounds\animalfarm_english.wav,,,,,,,,,0,0,0,1,0,148,148,2,453.090237264,9.62168178376e-06,453.742201787,0.651974144616,,,,z,1,0.633723417698,2018_Nov_15_1534,59.9824167199,chinese_cond2,001,1036,
images\lychee02a.jpg,lychee,z,sounds\animalfarm_english.wav,,,,,,,,,0,0,0,1,0,149,149,62,454.930801505,9.94240463115e-06,455.7260457,0.795254458206,,,,z,1,0.783768094375,2018_Nov_15_1534,59.9824167199,chinese_cond2,001,1036,
images\cheetah.jpg,cheetah,z,sounds\animalfarm_english.wav,,,,,,,,,0,0,0,1,0,150,150,82,456.895410394,9.30095916374e-06,457.843256708,0.947855936482,,,,z,1,0.933801225033,2018_Nov_15_1534,59.9824167199,chinese_cond2,001,1036,
images\banjo.jpg,knife,x,sounds\animalfarm_english.wav,,,,,,,,,0,0,0,1,0,151,151,191,459.025516059,9.62168201113e-06,459.843771148,0.818265031152,,,,x,1,0.800435413177,2018_Nov_15_1534,59.9824167199,chinese_cond2,001,1036,
images\swan.jpg,swan,z,sounds\animalfarm_english.wav,,,,,,,,,0,0,0,1,0,152,152,54,461.015602519,9.62168201113e-06,462.061006595,1.04541401776,,,,x,0,1.03383079567,2018_Nov_15_1534,59.9824167199,chinese_cond2,001,1036,
images\lemon02.jpg,lemon,z,sounds\animalfarm_english.wav,,,,,,,,,0,0,0,1,0,153,153,14,463.223503011,9.62168201113e-06,465.045103879,1.82161081067,,,,z,1,1.80069519859,2018_Nov_15_1534,59.9824167199,chinese_cond2,001,1036,
images\licenseplate.jpg,license plate,z,sounds\animalfarm_english.wav,,,,,,,,,0,0,0,1,0,154,154,40,466.238350549,9.94240463115e-06,467.495729577,1.2573889706,,,,z,1,1.23386844852,2018_Nov_15_1534,59.9824167199,chinese_cond2,001,1036,
images\baseball01a.jpg,baseball,z,sounds\animalfarm_english.wav,,,,,,,,,0,0,0,1,0,155,155,74,468.651591522,9.30095916374e-06,469.229505337,0.57792375651,,,,z,1,0.567036823459,2018_Nov_15_1534,59.9824167199,chinese_cond2,001,1036,
images\cloud.jpg,ceiling fan,x,sounds\animalfarm_english.wav,,,,,,,,,0,0,0,1,0,156,156,149,470.400558956,9.94240463115e-06,471.596781932,1.19623259839,,,,x,1,1.18387034078,2018_Nov_15_1534,59.9824167199,chinese_cond2,001,1036,
images\hairdryer03a.jpg,hairdryer,z,sounds\animalfarm_english.wav,,,,,,,,,0,0,0,1,0,157,157,119,472.736158409,8.98023654372e-06,473.563954037,0.827806532352,,,,z,1,0.81711556089,2018_Nov_15_1534,59.9824167199,chinese_cond2,001,1036,
images\grandpiano.jpg,tulip,x,sounds\animalfarm_english.wav,,,,,,,,,0,0,0,1,0,158,158,236,474.746086702,9.62168201113e-06,475.581132587,0.835055828205,,,,x,1,0.817103373426,2018_Nov_15_1534,59.9824167199,chinese_cond2,001,1036,
images\parkbench03.jpg,park bench,z,sounds\animalfarm_english.wav,,,,,,,,,0,0,0,1,0,159,159,71,476.761489731,8.98023654372e-06,478.23181454,1.47033507186,,,,x,0,1.45060260594,2018_Nov_15_1534,59.9824167199,chinese_cond2,001,1036,
images\ceilingfan02.jpg,paper clip,x,sounds\animalfarm_english.wav,,,,,,,,,0,0,0,1,0,160,160,208,479.419893084,9.62168178376e-06,480.432382989,1.01249952693,,,,x,1,1.00049519589,2018_Nov_15_1534,59.9824167199,chinese_cond2,001,1036,
images\masquerademask02b.jpg,mirror,x,sounds\animalfarm_english.wav,,,,,,,,,0,0,0,1,0,161,161,204,481.596374935,9.94240463115e-06,482.999700766,1.40333641441,,,,x,1,1.38391921892,2018_Nov_15_1534,59.9824167199,chinese_cond2,001,1036,
images\headphones02b.jpg,headphones,z,sounds\animalfarm_english.wav,,,,,,,,,0,0,0,1,0,162,162,101,484.193751487,9.30095893636e-06,485.250279831,1.05653796491,,,,z,1,1.03382822989,2018_Nov_15_1534,59.9824167199,chinese_cond2,001,1036,
images\microphone01.jpg,diaper,x,sounds\animalfarm_english.wav,,,,,,,,,0,0,0,1,0,163,163,164,486.37738738,9.94240463115e-06,487.567538113,1.1901609964,,,,z,0,1.16719500391,2018_Nov_15_1534,59.9824167199,chinese_cond2,001,1036,
images\ladder.jpg,ladder,z,sounds\animalfarm_english.wav,,,,,,,,,0,0,0,1,0,164,164,113,488.723900386,8.98023631635e-06,489.584717626,0.860827182406,,,,z,1,0.850441859704,2018_Nov_15_1534,59.9824167199,chinese_cond2,001,1036,
images\hand01a.jpg,cupcake,x,sounds\animalfarm_english.wav,,,,,,,,,0,0,0,1,0,165,165,163,490.764171294,5.1636359558e-05,493.202318312,2.43818197679,,,,x,1,2.41748445617,2018_Nov_15_1534,59.9824167199,chinese_cond2,001,1036,
images\computerkeyboard01a.jpg,computer keyboard,z,sounds\animalfarm_english.wav,,,,,,,,,0,0,0,1,0,166,166,61,494.404304997,9.30095916374e-06,495.669621592,1.26532717888,,,,z,1,1.25054891695,2018_Nov_15_1534,59.9824167199,chinese_cond2,001,1036,
images\stapler03a.jpg,candy cane,x,sounds\animalfarm_english.wav,,,,,,,,,0,0,0,1,0,167,167,145,496.811381038,9.30095916374e-06,497.770148604,0.958777507587,,,,x,1,0.950467260945,2018_Nov_15_1534,59.9824167199,chinese_cond2,001,1036,
images\tulip02.jpg,sport shorts,x,sounds\animalfarm_english.wav,,,,,,,,,0,0,0,1,0,168,168,225,498.935994006,9.30095916374e-06,499.6873226,0.751338536311,,,,x,1,0.733761327125,2018_Nov_15_1534,59.9824167199,chinese_cond2,001,1036,
images\cherry01.jpg,highlighter,x,sounds\animalfarm_english.wav,,,,,,,,,0,0,0,1,0,169,169,187,500.868577768,9.62168178376e-06,501.637810708,0.769242241236,,,,x,1,0.750423835087,2018_Nov_15_1534,59.9824167199,chinese_cond2,001,1036,
images\worldmap.jpg,scooter,x,sounds\animalfarm_english.wav,,,,,,,,,0,0,0,1,0,170,170,220,502.831390288,9.62168201113e-06,503.771692563,0.940312217163,,,,x,1,0.917026464115,2018_Nov_15_1534,59.9824167199,chinese_cond2,001,1036,
images\nailpolish02b.jpg,nail polish,z,sounds\animalfarm_english.wav,,,,,,,,,0,0,0,1,0,171,171,94,504.956754068,9.30095916374e-06,506.339020603,1.3822764771,,,,z,1,1.36724356133,2018_Nov_15_1534,59.9824167199,chinese_cond2,001,1036,
images\belt02a.jpg,snowman,x,sounds\animalfarm_english.wav,,,,,,,,,0,0,0,1,0,172,172,224,507.515532281,9.30095916374e-06,508.289513201,0.773990861968,,,,x,1,0.750419344969,2018_Nov_15_1534,59.9824167199,chinese_cond2,001,1036,
images\umbrella01.jpg,umbrella,z,sounds\animalfarm_english.wav,,,,,,,,,0,0,0,1,0,173,173,53,509.470135582,9.94240463115e-06,510.340038256,0.869912615885,,,,z,1,0.8504389732,2018_Nov_15_1534,59.9824167199,chinese_cond2,001,1036,
images\backpack01b.jpg,swallow,x,sounds\animalfarm_english.wav,,,,,,,,,0,0,0,1,0,174,174,228,511.535053391,9.62168178376e-06,512.773991183,1.23894773438,,,,x,1,1.21720048827,2018_Nov_15_1534,59.9824167199,chinese_cond2,001,1036,
images\crocodile.jpg,triangle ruler,x,sounds\animalfarm_english.wav,,,,,,,,,0,0,0,1,0,175,175,235,513.897573027,8.98023631635e-06,515.257981025,1.3604179402,,,,x,1,1.35058682638,2018_Nov_15_1534,59.9824167199,chinese_cond2,001,1036,
images\razor04a.jpg,razor,z,sounds\animalfarm_english.wav,,,,,,,,,0,0,0,1,0,176,176,36,516.461424432,9.30095916374e-06,517.658581674,1.19716750514,,,,z,1,1.18385975693,2018_Nov_15_1534,59.9824167199,chinese_cond2,001,1036,
images\triangleruler02.jpg,bottle of red wine,x,sounds\animalfarm_english.wav,,,,,,,,,0,0,0,1,0,177,177,134,518.797567511,9.30095916374e-06,519.542408846,0.744851277663,,,,z,0,0.733757799175,2018_Nov_15_1534,59.9824167199,chinese_cond2,001,1036,
images\electricguitar02.jpg,electric guitar,z,sounds\animalfarm_english.wav,,,,,,,,,0,0,0,1,0,178,178,100,520.705385384,9.30095916374e-06,521.592925883,0.887550441667,,,,z,1,0.867120724525,2018_Nov_15_1534,59.9824167199,chinese_cond2,001,1036,
images\banana04a.jpg,banana,z,sounds\animalfarm_english.wav,,,,,,,,,0,0,0,1,0,179,179,118,522.764131845,9.30095916374e-06,523.393383747,0.629261523087,,,,z,1,0.617054495282,2018_Nov_15_1534,59.9824167199,chinese_cond2,001,1036,
images\printer03a.jpg,printer,z,sounds\animalfarm_english.wav,,,,,,,,,0,0,0,1,0,180,180,72,524.567251387,8.98023654372e-06,525.343885646,0.776643880386,,,,z,1,0.76709115389,2018_Nov_15_1534,59.9824167199,chinese_cond2,001,1036,
images\candy.jpg,candy,z,sounds\animalfarm_english.wav,,,,,,,,,0,0,0,1,0,181,181,31,526.518433539,9.94240463115e-06,527.277714774,0.75929117711,,,,z,1,0.750423193641,2018_Nov_15_1534,59.9824167199,chinese_cond2,001,1036,
images\egg01b (1).jpg,egg,z,sounds\animalfarm_english.wav,,,,,,,,,0,0,0,1,0,182,182,19,528.463699319,9.62168178376e-06,529.211541977,0.747852921688,,,,z,1,0.73374785677,2018_Nov_15_1534,59.9824167199,chinese_cond2,001,1036,
images\broadsword.jpg,teapot,x,sounds\animalfarm_english.wav,,,,,,,,,0,0,0,1,0,183,183,231,530.360039487,8.98023631635e-06,531.228726301,0.868696114572,,,,x,1,0.85044250115,2018_Nov_15_1534,59.9824167199,chinese_cond2,001,1036,
images\flamingo.jpg,flamingo,z,sounds\animalfarm_english.wav,,,,,,,,,0,0,0,1,0,184,184,52,532.388401319,9.62168178376e-06,533.545985546,1.15759384828,,,,z,1,1.13384689595,2018_Nov_15_1534,59.9824167199,chinese_cond2,001,1036,
images\gamecontroller01.jpg,game controller,z,sounds\animalfarm_english.wav,,,,,,,,,0,0,0,1,0,185,185,112,534.692356343,9.62168201113e-06,535.51315765,0.820811248901,,,,z,1,0.800430923059,2018_Nov_15_1534,59.9824167199,chinese_cond2,001,1036,
images\charcoalbarbecue.jpg,charcoal barbecue,z,sounds\animalfarm_english.wav,,,,,,,,,0,0,0,1,0,186,186,77,536.701301942,9.94240463115e-06,537.963789442,1.26249776296,,,,z,1,1.2505495584,2018_Nov_15_1534,59.9824167199,chinese_cond2,001,1036,
images\dice05a.jpg,band aid,x,sounds\animalfarm_english.wav,,,,,,,,,0,0,0,1,0,187,187,126,539.110242986,9.30095916374e-06,541.16461511,2.05438206672,,,,x,1,2.03409539192,2018_Nov_15_1534,59.9824167199,chinese_cond2,001,1036,
images\sock03.jpg,sock,z,sounds\animalfarm_english.wav,,,,,,,,,0,0,0,1,0,188,188,90,542.343059143,8.98023631635e-06,543.348499242,1.00545004134,,,,z,1,0.983813123846,2018_Nov_15_1534,59.9824167199,chinese_cond2,001,1036,
images\puzzle.jpg,puzzle,z,sounds\animalfarm_english.wav,,,,,,,,,0,0,0,1,0,189,189,57,544.490259009,1.02631274785e-05,545.482378852,0.992130105665,,,,x,0,0.9838124824,2018_Nov_15_1534,59.9824167199,chinese_cond2,001,1036,
images\computermouse02a.jpg,world map,x,sounds\animalfarm_english.wav,,,,,,,,,0,0,0,1,0,190,190,239,546.659728258,9.62168201113e-06,547.916336269,1.25661763244,,,,x,1,1.23387710803,2018_Nov_15_1534,59.9824167199,chinese_cond2,001,1036,
images\camera01a.jpg,bull,x,sounds\animalfarm_english.wav,,,,,,,,,0,0,0,1,0,191,191,138,549.065827378,8.98023654372e-06,550.166913089,1.10109629443,,,,x,1,1.08383435569,2018_Nov_15_1534,59.9824167199,chinese_cond2,001,1036,
images\croissant02b.jpg,croissant,z,sounds\animalfarm_english.wav,,,,,,,,,0,0,0,1,0,192,192,39,551.35243451,8.98023631635e-06,552.300788208,0.948363961285,,,,z,1,0.933793527687,2018_Nov_15_1534,59.9824167199,chinese_cond2,001,1036,
images\cactus.jpg,cactus,z,sounds\animalfarm_english.wav,,,,,,,,,0,0,0,1,0,193,193,70,553.513311276,3.11101046009e-05,554.73474787,1.22144781937,,,,z,1,1.2004998143,2018_Nov_15_1534,59.9824167199,chinese_cond2,001,1036,
images\beachumbrella01.jpg,beach umbrella,z,sounds\animalfarm_english.wav,,,,,,,,,0,0,0,1,0,194,194,92,555.928056119,9.30095916374e-06,557.202049547,1.27400272871,,,,z,1,1.250545389,2018_Nov_15_1534,59.9824167199,chinese_cond2,001,1036,
images\lipstick04.jpg,lipstick,z,sounds\animalfarm_english.wav,,,,,,,,,0,0,0,1,0,195,195,56,558.325161853,9.62168178376e-06,559.202559496,0.877407906072,,,,z,1,0.867110782121,2018_Nov_15_1534,59.9824167199,chinese_cond2,001,1036,
images\showerhead01.jpg,skateboard,x,sounds\animalfarm_english.wav,,,,,,,,,0,0,0,1,0,196,196,223,560.384512556,9.94240463115e-06,561.536495039,1.15199210509,,,,x,1,1.1338533104,2018_Nov_15_1534,59.9824167199,chinese_cond2,001,1036,
images\mailbox01.jpg,mail box,z,sounds\animalfarm_english.wav,,,,,,,,,0,0,0,1,0,197,197,73,562.68042642,9.62168178376e-06,563.820425419,1.14000926247,,,,z,1,1.11718021859,2018_Nov_15_1534,59.9824167199,chinese_cond2,001,1036,
,,,sounds\animalfarm_english.wav,,,,,,,,,0,0,0,1,,,,,,,,,,,,,,,2018_Nov_15_1534,59.9824167199,chinese_cond2,001,1036,
images\mailbox01.jpg,mail box,z,sounds\greatgatsby_chinese.wav,,,,,,,,,0,1,1,0,0,0,0,73,584.958126761,1.60361364578e-05,587.47647595,2.51836458349,,,574.823433478,z,1,2.50086947932,2018_Nov_15_1534,59.9824167199,chinese_cond2,001,1036,
images\bat.jpg,hand,x,sounds\greatgatsby_chinese.wav,,,,,,,,,0,1,1,0,0,1,1,185,588.573297331,9.30095916374e-06,590.0437995,1.47051243153,,,,x,1,1.45060324738,2018_Nov_15_1534,59.9824167199,chinese_cond2,001,1036,
images\computermouse02a.jpg,world map,x,sounds\greatgatsby_chinese.wav,,,,,,,,,0,1,1,0,0,2,2,239,591.144593032,8.98023631635e-06,592.711155506,1.5665717755,,,,x,1,1.55063313874,2018_Nov_15_1534,59.9824167199,chinese_cond2,001,1036,
images\hairband.jpg,hairband,z,sounds\greatgatsby_chinese.wav,,,,,,,,,0,1,1,0,0,3,3,66,593.819406804,9.30095916374e-06,594.594966962,0.775570100688,,,,z,1,0.767096926899,2018_Nov_15_1534,59.9824167199,chinese_cond2,001,1036,
images\flashlight05.jpg,flash light,z,sounds\greatgatsby_chinese.wav,,,,,,,,,0,1,1,0,0,4,4,8,595.771289735,3.07893822082e-05,597.228977427,1.45770308644,,,,z,1,1.43393207991,2018_Nov_15_1534,59.9824167199,chinese_cond2,001,1036,
images\table02.jpg,table,z,sounds\greatgatsby_chinese.wav,,,,,,,,,0,1,1,0,0,5,5,49,598.342527064,9.62168178376e-06,599.562909443,1.22039200015,,,,z,1,1.20054247042,2018_Nov_15_1534,59.9824167199,chinese_cond2,001,1036,
images\parkbench03.jpg,park bench,z,sounds\greatgatsby_chinese.wav,,,,,,,,,0,1,1,0,0,6,6,71,600.66764594,9.62168178376e-06,602.563680139,1.89604670749,,,,z,1,1.88405103597,2018_Nov_15_1534,59.9824167199,chinese_cond2,001,1036,
images\envelope02a.jpg,grand piano,x,sounds\greatgatsby_chinese.wav,,,,,,,,,0,1,1,0,0,7,7,182,603.685639447,9.30095916374e-06,604.847606029,1.16197620366,,,,x,1,1.1505360239,2018_Nov_15_1534,59.9824167199,chinese_cond2,001,1036,
images\mirror02.jpg,8 ball,x,sounds\greatgatsby_chinese.wav,,,,,,,,,0,1,1,0,0,8,8,121,606.020822282,9.62168201113e-06,607.514949849,1.49413718851,,,,x,1,1.48392313174,2018_Nov_15_1534,59.9824167199,chinese_cond2,001,1036,
images\headphones02b.jpg,headphones,z,sounds\greatgatsby_chinese.wav,,,,,,,,,0,1,1,0,0,9,9,101,608.621826529,9.30095916374e-06,609.665501909,1.04368532225,,,,z,1,1.03383721012,2018_Nov_15_1534,59.9824167199,chinese_cond2,001,1036,
images\bandaid01.jpg,door handle,x,sounds\greatgatsby_chinese.wav,,,,,,,,,0,1,1,0,0,10,10,170,610.770981521,9.30095916374e-06,612.832980431,2.06200853251,,,,x,1,2.0507652765,2018_Nov_15_1534,59.9824167199,chinese_cond2,001,1036,
images\bull.jpg,button,x,sounds\greatgatsby_chinese.wav,,,,,,,,,0,1,1,0,0,11,11,141,613.938067158,8.98023631635e-06,614.833486532,0.895428995516,,,,z,0,0.883775855865,2018_Nov_15_1534,59.9824167199,chinese_cond2,001,1036,
images\corkscrew02a.jpg,masquerade mask,x,sounds\greatgatsby_chinese.wav,,,,,,,,,0,1,1,0,0,12,12,201,615.936423133,9.62168178376e-06,617.63419905,1.69778585857,,,,x,1,1.68398131085,2018_Nov_15_1534,59.9824167199,chinese_cond2,001,1036,
images\safe.jpg,safe,z,sounds\greatgatsby_chinese.wav,,,,,,,,,0,1,1,0,0,13,13,78,618.743793534,9.94240463115e-06,619.584704797,0.840921526204,,,,z,1,0.817108184267,2018_Nov_15_1534,59.9824167199,chinese_cond2,001,1036,
images\leek.jpg,donut,x,sounds\greatgatsby_chinese.wav,,,,,,,,,0,1,1,0,0,14,14,169,620.76149358,8.98023631635e-06,622.218708527,1.45722456813,,,,x,1,1.43392534473,2018_Nov_15_1534,59.9824167199,chinese_cond2,001,1036,
images\banana04a.jpg,banana,z,sounds\greatgatsby_chinese.wav,,,,,,,,,0,1,1,0,0,15,15,118,623.323549259,9.30095916374e-06,623.91915478,0.595615784433,,,,z,1,0.583722423458,2018_Nov_15_1534,59.9824167199,chinese_cond2,001,1036,
images\cupcake.jpg,scissors,x,sounds\greatgatsby_chinese.wav,,,,,,,,,0,1,1,0,0,16,16,219,625.039029711,1.05838500986e-05,626.169729676,1.1307108691,,,,x,1,1.11715520222,2018_Nov_15_1534,59.9824167199,chinese_cond2,001,1036,
images\bed.jpg,bed,z,sounds\greatgatsby_chinese.wav,,,,,,,,,0,1,1,0,0,17,17,103,627.288424668,9.62168178376e-06,627.953515089,0.665100363764,,,,z,1,0.650400358183,2018_Nov_15_1534,59.9824167199,chinese_cond2,001,1036,
images\lychee02a.jpg,lychee,z,sounds\greatgatsby_chinese.wav,,,,,,,,,0,1,1,0,0,18,18,62,629.076449394,9.30095916374e-06,629.854004448,0.777565316787,,,,z,1,0.767092757503,2018_Nov_15_1534,59.9824167199,chinese_cond2,001,1036,
images\egg01b (1).jpg,egg,z,sounds\greatgatsby_chinese.wav,,,,,,,,,0,1,1,0,0,19,19,19,630.965968432,9.62168178376e-06,631.654463915,0.688505425666,,,,z,1,0.667070563491,2018_Nov_15_1534,59.9824167199,chinese_cond2,001,1036,
images\cigar.jpg,crocodile,x,sounds\greatgatsby_chinese.wav,,,,,,,,,0,1,1,0,0,20,20,162,632.751977416,9.30095916374e-06,634.00506774,1.25310026626,,,,x,1,1.23388320176,2018_Nov_15_1534,59.9824167199,chinese_cond2,001,1036,
images\feather03b.jpg,feather,z,sounds\greatgatsby_chinese.wav,,,,,,,,,0,1,1,0,0,21,21,114,635.104495955,9.30095916374e-06,635.989157327,0.884671313725,,,,z,1,0.867365115245,2018_Nov_15_1534,59.9824167199,chinese_cond2,001,1036,
images\weight01.jpg,weight,z,sounds\greatgatsby_chinese.wav,,,,,,,,,0,1,1,0,0,22,22,67,637.094456372,8.98023631635e-06,637.806042288,0.711595217126,,,,z,1,0.700415784946,2018_Nov_15_1534,59.9824167199,chinese_cond2,001,1036,
images\eraser.jpg,eraser,z,sounds\greatgatsby_chinese.wav,,,,,,,,,0,1,1,0,0,23,23,110,638.912330763,1.02631272512e-05,639.656514616,0.744195078959,,,,z,1,0.733745932434,2018_Nov_15_1534,59.9824167199,chinese_cond2,001,1036,
images\nailpolish02b.jpg,nail polish,z,sounds\greatgatsby_chinese.wav,,,,,,,,,0,1,1,0,0,24,24,94,640.764371425,9.30095916374e-06,641.456979536,0.692617732503,,,,z,1,0.683741410244,2018_Nov_15_1534,59.9824167199,chinese_cond2,001,1036,
images\candycane01a.jpg,lip,x,sounds\greatgatsby_chinese.wav,,,,,,,,,0,1,1,0,0,25,25,200,642.550274571,9.30095916374e-06,643.340765976,0.790501026634,,,,x,1,0.767069024022,2018_Nov_15_1534,59.9824167199,chinese_cond2,001,1036,
images\knife04.jpg,tooth brush,x,sounds\greatgatsby_chinese.wav,,,,,,,,,0,1,1,0,0,26,26,233,644.436772721,9.62168201113e-06,645.408123843,0.971361705321,,,,x,1,0.950609341114,2018_Nov_15_1534,59.9824167199,chinese_cond2,001,1036,
images\button07.jpg,radish,x,sounds\greatgatsby_chinese.wav,,,,,,,,,0,1,1,0,0,27,27,215,646.519679547,8.65951369633e-06,648.042005056,1.5223354516,,,,x,1,1.50062380571,2018_Nov_15_1534,59.9824167199,chinese_cond2,001,1036,
images\mushroom01.jpg,shower head,x,sounds\greatgatsby_chinese.wav,,,,,,,,,0,1,1,0,0,28,28,222,649.157614695,9.30095916374e-06,650.342574531,1.18496945757,,,,x,1,1.16718474078,2018_Nov_15_1534,59.9824167199,chinese_cond2,001,1036,
images\saltshaker03c.jpg,salt shaker,z,sounds\greatgatsby_chinese.wav,,,,,,,,,0,1,1,0,0,29,29,63,651.451950283,9.62168178376e-06,652.243072549,0.791132208965,,,,z,1,0.767093719671,2018_Nov_15_1534,59.9824167199,chinese_cond2,001,1036,
images\ashtray02b.jpg,ashtray,z,sounds\greatgatsby_chinese.wav,,,,,,,,,0,1,1,0,0,30,30,43,653.42816741,9.62168178376e-06,654.627017426,1.19885995899,,,,x,0,1.18386103982,2018_Nov_15_1534,59.9824167199,chinese_cond2,001,1036,
images\floorlamp.jpg,floor lamp,z,sounds\greatgatsby_chinese.wav,,,,,,,,,0,1,1,0,0,31,31,26,655.719184158,9.30095916374e-06,656.977614516,1.25844029971,,,,z,1,1.25053288081,2018_Nov_15_1534,59.9824167199,chinese_cond2,001,1036,
images\fryingpan01.jpg,frying pan,z,sounds\greatgatsby_chinese.wav,,,,,,,,,0,1,1,0,0,32,32,45,658.07768578,9.62168201113e-06,659.11149637,1.03382053254,,,,z,1,1.01715674169,2018_Nov_15_1534,59.9824167199,chinese_cond2,001,1036,
images\umbrella01.jpg,umbrella,z,sounds\greatgatsby_chinese.wav,,,,,,,,,0,1,1,0,0,33,33,53,660.222444626,9.30095916374e-06,660.861947146,0.639512462964,,,,z,1,0.617034610473,2018_Nov_15_1534,59.9824167199,chinese_cond2,001,1036,
images\pipe.jpg,icecube,x,sounds\greatgatsby_chinese.wav,,,,,,,,,0,1,1,0,0,34,34,188,661.970507941,9.30095916374e-06,663.279229547,1.30873154802,,,,z,0,1.30054991119,2018_Nov_15_1534,59.9824167199,chinese_cond2,001,1036,
images\swallow.jpg,mattress,x,sounds\greatgatsby_chinese.wav,,,,,,,,,0,1,1,0,0,35,35,202,664.457760496,9.94240463115e-06,665.496469484,1.03871893079,,,,x,1,1.01716026964,2018_Nov_15_1534,59.9824167199,chinese_cond2,001,1036,
images\paintbrush03a.jpg,paint brush,z,sounds\greatgatsby_chinese.wav,,,,,,,,,0,1,1,0,0,36,36,0,666.596348957,9.30095916374e-06,667.446971704,0.850632689728,,,,z,1,0.833783841861,2018_Nov_15_1534,59.9824167199,chinese_cond2,001,1036,
images\clothespin02a.jpg,clothes pin,z,sounds\greatgatsby_chinese.wav,,,,,,,,,0,1,1,0,0,37,37,79,668.551609098,8.98023631635e-06,670.43106546,1.87946598383,,,,z,1,1.86737601982,2018_Nov_15_1534,59.9824167199,chinese_cond2,001,1036,
images\rubberglove02a.jpg,lady bug,x,sounds\greatgatsby_chinese.wav,,,,,,,,,0,1,1,0,0,38,38,192,671.566784415,9.62168178376e-06,672.531604338,0.964829866214,,,,x,1,0.950473675399,2018_Nov_15_1534,59.9824167199,chinese_cond2,001,1036,
images\tissuebox03.jpg,tissue box,z,sounds\greatgatsby_chinese.wav,,,,,,,,,0,1,1,0,0,39,39,58,673.656865487,9.62168201113e-06,674.415424775,0.758569230246,,,,z,1,0.750416458464,2018_Nov_15_1534,59.9824167199,chinese_cond2,001,1036,
images\lightbulb03b.jpg,treadmill,x,sounds\greatgatsby_chinese.wav,,,,,,,,,0,1,1,0,0,40,40,234,675.517575926,9.62168178376e-06,676.582640626,1.0650746418,,,,x,1,1.05049939736,2018_Nov_15_1534,59.9824167199,chinese_cond2,001,1036,
images\dolphin01.jpg,dolphin,z,sounds\greatgatsby_chinese.wav,,,,,,,,,0,1,1,0,0,41,41,99,677.753764162,8.98023654372e-06,678.799867734,1.04611351404,,,,z,1,1.03381315592,2018_Nov_15_1534,59.9824167199,chinese_cond2,001,1036,
images\glasses01b.jpg,calculator,x,sounds\greatgatsby_chinese.wav,,,,,,,,,0,1,1,0,0,42,42,142,679.936152443,8.98023654372e-06,680.983925698,1.04778287584,,,,x,1,1.03398025246,2018_Nov_15_1534,59.9824167199,chinese_cond2,001,1036,
images\worldmap.jpg,scooter,x,sounds\greatgatsby_chinese.wav,,,,,,,,,0,1,1,0,0,43,43,220,682.113737902,2.50163730016e-05,683.567763581,1.45405133745,,,,x,1,1.43391796811,2018_Nov_15_1534,59.9824167199,chinese_cond2,001,1036,
images\seagull.jpg,seagull,z,sounds\greatgatsby_chinese.wav,,,,,,,,,0,1,1,0,0,44,44,50,684.674393626,9.30095916374e-06,685.434911567,0.760527242509,,,,z,1,0.750332749832,2018_Nov_15_1534,59.9824167199,chinese_cond2,001,1036,
images\snowman.jpg,globe,x,sounds\greatgatsby_chinese.wav,,,,,,,,,0,1,1,0,0,45,45,180,686.545295671,8.98023631635e-06,687.96889182,1.42360641163,,,,x,1,1.40058493411,2018_Nov_15_1534,59.9824167199,chinese_cond2,001,1036,
images\thumbtack02a.jpg,thumb tack,z,sounds\greatgatsby_chinese.wav,,,,,,,,,0,1,1,0,0,46,46,60,689.158319644,8.98023631635e-06,690.302831533,1.14452118983,,,,x,0,1.13385587619,2018_Nov_15_1534,59.9824167199,chinese_cond2,001,1036,
images\mitten01.jpg,mitten,z,sounds\greatgatsby_chinese.wav,,,,,,,,,0,1,1,0,0,47,47,102,691.422817113,9.30095916374e-06,692.303341161,0.88053334907,,,,x,0,0.867096028875,2018_Nov_15_1534,59.9824167199,chinese_cond2,001,1036,
images\pouch01b.jpg,pouch,z,sounds\greatgatsby_chinese.wav,,,,,,,,,0,1,1,0,0,48,48,25,693.414923806,9.94240440377e-06,694.237169968,0.82225642552,,,,z,1,0.800434771732,2018_Nov_15_1534,59.9824167199,chinese_cond2,001,1036,
images\apple06.jpg,apple,z,sounds\greatgatsby_chinese.wav,,,,,,,,,0,1,1,0,0,49,49,13,695.363952946,8.98023631635e-06,695.954271033,0.59032770807,,,,z,1,0.567039389241,2018_Nov_15_1534,59.9824167199,chinese_cond2,001,1036,
images\flower01.jpg,bus,x,sounds\greatgatsby_chinese.wav,,,,,,,,,0,1,1,0,0,50,50,140,697.068441589,9.30095916374e-06,697.838089865,0.769658218616,,,,x,1,0.750417741355,2018_Nov_15_1534,59.9824167199,chinese_cond2,001,1036,
images\stapler03a.jpg,candy cane,x,sounds\greatgatsby_chinese.wav,,,,,,,,,0,1,1,0,0,51,51,145,698.948661271,9.62168178376e-06,700.072006743,1.12335573475,,,,x,1,1.10052123858,2018_Nov_15_1534,59.9824167199,chinese_cond2,001,1036,
images\crocodile.jpg,triangle ruler,x,sounds\greatgatsby_chinese.wav,,,,,,,,,0,1,1,0,0,52,52,235,701.168938453,9.94240463115e-06,702.239212972,1.07028446182,,,,x,1,1.05049266218,2018_Nov_15_1534,59.9824167199,chinese_cond2,001,1036,
images\ruler02b.jpg,watermelon,x,sounds\greatgatsby_chinese.wav,,,,,,,,,0,1,1,0,0,53,53,238,703.341054626,9.94240463115e-06,704.539815803,1.19877143951,,,,x,1,1.18387451018,2018_Nov_15_1534,59.9824167199,chinese_cond2,001,1036,
images\lighter02b.jpg,stapler,x,sounds\greatgatsby_chinese.wav,,,,,,,,,0,1,1,0,0,54,54,227,705.640638841,9.62168178376e-06,706.390275302,0.749646403191,,,,x,1,0.733743366652,2018_Nov_15_1534,59.9824167199,chinese_cond2,001,1036,
images\bottleofredwine02.jpg,pipe,x,sounds\greatgatsby_chinese.wav,,,,,,,,,0,1,1,0,0,55,55,213,707.488104073,9.30095916374e-06,708.690868511,1.20277405918,,,,x,1,1.18386713355,2018_Nov_15_1534,59.9824167199,chinese_cond2,001,1036,
images\lipstick04.jpg,lipstick,z,sounds\greatgatsby_chinese.wav,,,,,,,,,0,1,1,0,0,56,56,56,709.790630599,9.30095916374e-06,710.541345008,0.750724352284,,,,z,1,0.73374785677,2018_Nov_15_1534,59.9824167199,chinese_cond2,001,1036,
images\comb02a.jpg,diploma,x,sounds\greatgatsby_chinese.wav,,,,,,,,,0,1,1,0,0,57,57,166,711.645637946,9.30095916374e-06,712.658556979,1.01292833322,,,,x,1,1.00048974361,2018_Nov_15_1534,59.9824167199,chinese_cond2,001,1036,
images\grandpiano.jpg,tulip,x,sounds\greatgatsby_chinese.wav,,,,,,,,,0,1,1,0,0,58,58,236,713.77260085,9.62168201113e-06,714.692405735,0.919814506802,,,,x,1,0.900451192736,2018_Nov_15_1534,59.9824167199,chinese_cond2,001,1036,
images\broadsword.jpg,teapot,x,sounds\greatgatsby_chinese.wav,,,,,,,,,0,1,1,0,0,59,59,231,715.785142712,9.62168178376e-06,716.8430043,1.05787185074,,,,x,1,1.03387120673,2018_Nov_15_1534,59.9824167199,chinese_cond2,001,1036,
images\nametag01a.jpg,name tag,z,sounds\greatgatsby_chinese.wav,,,,,,,,,0,1,1,0,0,60,60,108,718.03533723,8.98023654372e-06,719.026862132,0.991534202834,,,,x,0,0.967149974438,2018_Nov_15_1534,59.9824167199,chinese_cond2,001,1036,
images\cherry01.jpg,highlighter,x,sounds\greatgatsby_chinese.wav,,,,,,,,,0,1,1,0,0,61,61,187,720.135901125,9.30095916374e-06,720.894000817,0.758109313852,,,,x,1,0.733749781107,2018_Nov_15_1534,59.9824167199,chinese_cond2,001,1036,
images\tie01.jpg,bench,x,sounds\greatgatsby_chinese.wav,,,,,,,,,0,1,1,0,0,62,62,130,722.058715993,9.62168201113e-06,722.994379976,0.935674245772,,,,x,1,0.916970016915,2018_Nov_15_1534,59.9824167199,chinese_cond2,001,1036,
images\axe01.jpg,axe,z,sounds\greatgatsby_chinese.wav,,,,,,,,,0,1,1,0,0,63,63,104,724.096488471,9.94240463115e-06,724.778341145,0.68186325794,,,,x,0,0.667050357959,2018_Nov_15_1534,59.9824167199,chinese_cond2,001,1036,
images\squirrel.jpg,binder,x,sounds\greatgatsby_chinese.wav,,,,,,,,,0,1,1,0,0,64,64,132,725.942269909,9.30095916374e-06,726.745497213,0.803237567665,,,,x,1,0.783754303297,2018_Nov_15_1534,59.9824167199,chinese_cond2,001,1036,
images\bracelet02a.jpg,chess knight,x,sounds\greatgatsby_chinese.wav,,,,,,,,,0,1,1,0,0,65,65,152,727.854276421,9.30095916374e-06,728.662651004,0.808384846749,,,,x,1,0.800433488841,2018_Nov_15_1534,59.9824167199,chinese_cond2,001,1036,
images\rhinoceros01.jpg,envelope,x,sounds\greatgatsby_chinese.wav,,,,,,,,,0,1,1,0,0,66,66,173,729.77534335,9.62168201113e-06,730.596485905,0.821154101498,,,,x,1,0.800434771732,2018_Nov_15_1534,59.9824167199,chinese_cond2,001,1036,
images\mattress.jpg,cat,x,sounds\greatgatsby_chinese.wav,,,,,,,,,0,1,1,0,0,67,67,147,731.701055948,8.98023631635e-06,732.797037677,1.09599167147,,,,x,1,1.08382409256,2018_Nov_15_1534,59.9824167199,chinese_cond2,001,1036,
images\panda.jpg,panda,z,sounds\greatgatsby_chinese.wav,,,,,,,,,0,1,1,0,0,68,68,83,733.906377187,9.94240463115e-06,734.564165072,0.657797827937,,,,z,1,0.633719248303,2018_Nov_15_1534,59.9824167199,chinese_cond2,001,1036,
images\lip.jpg,boxing glove,x,sounds\greatgatsby_chinese.wav,,,,,,,,,0,1,1,0,0,69,69,136,735.741849634,9.62168178376e-06,736.931441989,1.18960197668,,,,x,1,1.1671934003,2018_Nov_15_1534,59.9824167199,chinese_cond2,001,1036,
images\printer03a.jpg,printer,z,sounds\greatgatsby_chinese.wav,,,,,,,,,0,1,1,0,0,70,70,72,738.040637173,9.62168178376e-06,738.715227723,0.674600812455,,,,z,1,0.650391698669,2018_Nov_15_1534,59.9824167199,chinese_cond2,001,1036,
images\screw03c.jpg,screw,z,sounds\greatgatsby_chinese.wav,,,,,,,,,0,1,1,0,0,71,71,84,739.809625402,1.02631272512e-05,740.532626161,0.723010701234,,,,x,0,0.700671721685,2018_Nov_15_1534,59.9824167199,chinese_cond2,001,1036,
images\puzzle.jpg,puzzle,z,sounds\greatgatsby_chinese.wav,,,,,,,,,0,1,1,0,0,72,72,57,741.652324374,9.62168178376e-06,742.882970521,1.23065544821,,,,z,1,1.21721395862,2018_Nov_15_1534,59.9824167199,chinese_cond2,001,1036,
images\cake.jpg,cake,z,sounds\greatgatsby_chinese.wav,,,,,,,,,0,1,1,0,0,73,73,23,743.997365263,9.30095916374e-06,744.61674596,0.619389998197,,,,z,1,0.600380762024,2018_Nov_15_1534,59.9824167199,chinese_cond2,001,1036,
images\electricguitar02.jpg,electric guitar,z,sounds\greatgatsby_chinese.wav,,,,,,,,,0,1,1,0,0,74,74,100,745.719240926,9.62168201113e-06,746.383862451,0.664631787856,,,,z,1,0.650396830233,2018_Nov_15_1534,59.9824167199,chinese_cond2,001,1036,
images\barrel01.jpg,barrel,z,sounds\greatgatsby_chinese.wav,,,,,,,,,0,1,1,0,0,75,75,9,747.586567876,9.62168178376e-06,748.467726955,0.88116902152,,,,x,0,0.86710949923,2018_Nov_15_1534,59.9824167199,chinese_cond2,001,1036,
images\highheelshoe02a.jpg,high heel shoe,z,sounds\greatgatsby_chinese.wav,,,,,,,,,0,1,1,0,0,76,76,75,749.574588561,9.30095916374e-06,751.835261732,2.26068279303,,,,z,1,2.25080966453,2018_Nov_15_1534,59.9824167199,chinese_cond2,001,1036,
images\tape01a.jpg,tie,x,sounds\greatgatsby_chinese.wav,,,,,,,,,0,1,1,0,0,77,77,232,752.963186162,8.98023631635e-06,753.935795158,0.972618296975,,,,x,1,0.95046790239,2018_Nov_15_1534,59.9824167199,chinese_cond2,001,1036,
images\magnifyingglass01b.jpg,magnifying glass,z,sounds\greatgatsby_chinese.wav,,,,,,,,,0,1,1,0,0,78,78,64,755.120479493,9.30095916374e-06,756.719848696,1.59937882422,,,,z,1,1.58397226646,2018_Nov_15_1534,59.9824167199,chinese_cond2,001,1036,
images\blueberry02.jpg,blueberry,z,sounds\greatgatsby_chinese.wav,,,,,,,,,0,1,1,0,0,79,79,46,757.83234059,9.62168201113e-06,758.55365146,0.721320813173,,,,z,1,0.700408087601,2018_Nov_15_1534,59.9824167199,chinese_cond2,001,1036,
images\lily.jpg,kiwi,x,sounds\greatgatsby_chinese.wav,,,,,,,,,0,1,1,0,0,80,80,190,759.653675899,9.94240463115e-06,761.087633637,1.43396768013,,,,x,1,1.41726219532,2018_Nov_15_1534,59.9824167199,chinese_cond2,001,1036,
images\candy.jpg,candy,z,sounds\greatgatsby_chinese.wav,,,,,,,,,0,1,1,0,0,81,81,31,762.190066704,8.98023631635e-06,762.954774246,0.764717164247,,,,z,1,0.750419665691,2018_Nov_15_1534,59.9824167199,chinese_cond2,001,1036,
images\camera01a.jpg,bull,x,sounds\greatgatsby_chinese.wav,,,,,,,,,0,1,1,0,0,82,82,138,764.065751687,9.62168178376e-06,764.938615273,0.872873528123,,,,x,1,0.850445387654,2018_Nov_15_1534,59.9824167199,chinese_cond2,001,1036,
images\licenseplate.jpg,license plate,z,sounds\greatgatsby_chinese.wav,,,,,,,,,0,1,1,0,0,83,83,40,766.056475745,9.62168201113e-06,766.889117814,0.83265104918,,,,z,1,0.817094072467,2018_Nov_15_1534,59.9824167199,chinese_cond2,001,1036,
images\hammer02a.jpg,flower,x,sounds\greatgatsby_chinese.wav,,,,,,,,,0,1,1,0,0,84,84,176,768.051173236,9.62168201113e-06,769.573130555,1.52196694118,,,,x,1,1.50060231729,2018_Nov_15_1534,59.9824167199,chinese_cond2,001,1036,
images\cocktailshrimp01.jpg,cocktail shrimp,z,sounds\greatgatsby_chinese.wav,,,,,,,,,0,1,1,0,0,85,85,30,770.687697204,9.62168201113e-06,771.406949997,0.719263056141,,,,z,1,0.700419633619,2018_Nov_15_1534,59.9824167199,chinese_cond2,001,1036,
images\radio03a.jpg,radio,z,sounds\greatgatsby_chinese.wav,,,,,,,,,0,1,1,0,0,86,86,37,772.588974258,9.30095916374e-06,773.524159081,0.935195086015,,,,z,1,0.917137434179,2018_Nov_15_1534,59.9824167199,chinese_cond2,001,1036,
images\wallet01.jpg,lamp,x,sounds\greatgatsby_chinese.wav,,,,,,,,,0,1,1,0,0,87,87,193,774.628970307,9.30095916374e-06,775.391297766,0.762337401594,,,,x,1,0.75040651606,2018_Nov_15_1534,59.9824167199,chinese_cond2,001,1036,
images\masquerademask02b.jpg,mirror,x,sounds\greatgatsby_chinese.wav,,,,,,,,,0,1,1,0,0,88,88,204,776.496484879,9.62168178376e-06,777.225133565,0.728659269945,,,,x,1,0.717109723736,2018_Nov_15_1534,59.9824167199,chinese_cond2,001,1036,
images\triangleruler02.jpg,bottle of red wine,x,sounds\greatgatsby_chinese.wav,,,,,,,,,0,1,1,0,0,89,89,134,778.33617932,9.30095916374e-06,779.55902549,1.22285611288,,,,x,1,1.20053060368,2018_Nov_15_1534,59.9824167199,chinese_cond2,001,1036,
images\swan.jpg,swan,z,sounds\greatgatsby_chinese.wav,,,,,,,,,0,1,1,0,0,90,90,54,780.651065216,9.30095893636e-06,781.492854618,0.841799023592,,,,z,1,0.83377550307,2018_Nov_15_1534,59.9824167199,chinese_cond2,001,1036,
images\parkfountain.jpg,park fountain,z,sounds\greatgatsby_chinese.wav,,,,,,,,,0,1,1,0,0,91,91,93,782.678659238,9.30095916374e-06,784.627002031,1.94835241527,,,,z,1,1.93405299238,2018_Nov_15_1534,59.9824167199,chinese_cond2,001,1036,
images\showerhead01.jpg,skateboard,x,sounds\greatgatsby_chinese.wav,,,,,,,,,0,1,1,0,0,92,92,223,785.734872952,9.62168178376e-06,786.460803834,0.725940503368,,,,z,0,0.717082141581,2018_Nov_15_1534,59.9824167199,chinese_cond2,001,1036,
images\battery03b.jpg,battery,z,sounds\greatgatsby_chinese.wav,,,,,,,,,0,1,1,0,0,93,93,34,787.570695949,9.30095916374e-06,788.327938991,0.757252984165,,,,z,1,0.733745932434,2018_Nov_15_1534,59.9824167199,chinese_cond2,001,1036,
images\toothbrush03a.jpg,parrot,x,sounds\greatgatsby_chinese.wav,,,,,,,,,0,1,1,0,0,94,94,210,789.458273973,9.30095916374e-06,790.678558852,1.22029482116,,,,z,0,1.20054439476,2018_Nov_15_1534,59.9824167199,chinese_cond2,001,1036,
images\backpack01b.jpg,swallow,x,sounds\greatgatsby_chinese.wav,,,,,,,,,0,1,1,0,0,95,95,228,791.808794089,9.30095916374e-06,792.662397313,0.853613166053,,,,x,1,0.833781917524,2018_Nov_15_1534,59.9824167199,chinese_cond2,001,1036,
images\pineapple01a.jpg,pineapple,z,sounds\greatgatsby_chinese.wav,,,,,,,,,0,1,1,0,0,96,96,51,793.853254277,9.30095916374e-06,795.079908709,1.22666469529,,,,z,1,1.21744199248,2018_Nov_15_1534,59.9824167199,chinese_cond2,001,1036,
images\teapot.jpg,light switch,x,sounds\greatgatsby_chinese.wav,,,,,,,,,0,1,1,0,0,97,97,197,796.197417669,8.98023654372e-06,798.430543965,2.23313559708,,,,x,1,2.21747406476,2018_Nov_15_1534,59.9824167199,chinese_cond2,001,1036,
images\boxingglove02a.jpg,bracelet,x,sounds\greatgatsby_chinese.wav,,,,,,,,,0,1,1,0,0,98,98,135,799.632472599,9.30095916374e-06,801.231248465,1.59878548717,,,,x,1,1.58396521056,2018_Nov_15_1534,59.9824167199,chinese_cond2,001,1036,
images\butterfly.jpg,butterfly,z,sounds\greatgatsby_chinese.wav,,,,,,,,,0,1,1,0,0,99,99,91,802.338716878,9.62168201113e-06,803.448489043,1.10978178667,,,,z,1,1.1005145034,2018_Nov_15_1534,59.9824167199,chinese_cond2,001,1036,
images\cat.jpg,black olive,x,sounds\greatgatsby_chinese.wav,,,,,,,,,0,1,1,0,0,100,100,133,804.579426022,8.65951369633e-06,805.49908594,0.919669540129,,,,x,1,0.900533297754,2018_Nov_15_1534,59.9824167199,chinese_cond2,001,1036,
images\lollipop03b.jpg,lollipop,z,sounds\greatgatsby_chinese.wav,,,,,,,,,0,1,1,0,0,101,101,42,806.592382579,9.30095916374e-06,807.549540757,0.95716812093,,,,z,1,0.933808280933,2018_Nov_15_1534,59.9824167199,chinese_cond2,001,1036,
images\marker01a.jpg,marker,z,sounds\greatgatsby_chinese.wav,,,,,,,,,0,1,1,0,0,102,102,95,808.648249592,9.30095916374e-06,809.950149425,1.30191041701,,,,z,1,1.28389221407,2018_Nov_15_1534,59.9824167199,chinese_cond2,001,1036,
images\calculator02b.jpg,dice,x,sounds\greatgatsby_chinese.wav,,,,,,,,,0,1,1,0,0,103,103,165,811.051655924,9.30095916374e-06,811.933993659,0.882347356828,,,,x,1,0.867115272239,2018_Nov_15_1534,59.9824167199,chinese_cond2,001,1036,
images\arrow02.jpg,hammer,x,sounds\greatgatsby_chinese.wav,,,,,,,,,0,1,1,0,0,104,104,184,813.030589892,9.62168201113e-06,814.101222018,1.07064206766,,,,x,1,1.05049843519,2018_Nov_15_1534,59.9824167199,chinese_cond2,001,1036,
images\handfan01b.jpg,handfan,z,sounds\greatgatsby_chinese.wav,,,,,,,,,0,1,1,0,0,105,105,69,815.215992646,9.62168201113e-06,817.185340213,1.96935750899,,,,x,0,1.95072383913,2018_Nov_15_1534,59.9824167199,chinese_cond2,001,1036,
images\diaper01a.jpg,camera,x,sounds\greatgatsby_chinese.wav,,,,,,,,,0,1,1,0,0,106,106,143,818.305826762,1.1546018186e-05,819.119172227,0.813355086887,,,,x,1,0.800427715832,2018_Nov_15_1534,59.9824167199,chinese_cond2,001,1036,
images\medal01.jpg,medal,z,sounds\greatgatsby_chinese.wav,,,,,,,,,0,1,1,0,0,107,107,115,820.220142478,9.30095916374e-06,821.219713351,0.99958049467,,,,z,1,0.983775278564,2018_Nov_15_1534,59.9824167199,chinese_cond2,001,1036,
images\treadmill.jpg,lily,x,sounds\greatgatsby_chinese.wav,,,,,,,,,0,1,1,0,0,108,108,199,822.326066612,8.98023654372e-06,823.086854602,0.760797932493,,,,x,1,0.750413892682,2018_Nov_15_1534,59.9824167199,chinese_cond2,001,1036,
images\leaf01a.jpg,leaf,z,sounds\greatgatsby_chinese.wav,,,,,,,,,0,1,1,0,0,109,109,68,824.190046178,8.98023631635e-06,824.953998097,0.763961541496,,,,z,1,0.750426721592,2018_Nov_15_1534,59.9824167199,chinese_cond2,001,1036,
images\antelope.jpg,antelope,z,sounds\greatgatsby_chinese.wav,,,,,,,,,0,1,1,0,0,110,110,12,826.057732978,9.62168201113e-06,827.221246726,1.16352401155,,,,x,0,1.15052768511,2018_Nov_15_1534,59.9824167199,chinese_cond2,001,1036,
images\lion.jpg,lion,z,sounds\greatgatsby_chinese.wav,,,,,,,,,0,1,1,0,0,111,111,44,828.334017007,9.62168201113e-06,829.055050453,0.721043388012,,,,z,1,0.700409370492,2018_Nov_15_1534,59.9824167199,chinese_cond2,001,1036,
images\carrot02.jpg,corkscrew,x,sounds\greatgatsby_chinese.wav,,,,,,,,,0,1,1,0,0,112,112,161,830.157198076,9.62168201113e-06,832.022486191,1.86529805725,,,,z,0,1.85071511547,2018_Nov_15_1534,59.9824167199,chinese_cond2,001,1036,
images\ladybug03.jpg,giraffe,x,sounds\greatgatsby_chinese.wav,,,,,,,,,0,1,1,0,0,113,113,178,833.12567456,8.98023654372e-06,833.956311791,0.830647173567,,,,x,1,0.81711203294,2018_Nov_15_1534,59.9824167199,chinese_cond2,001,1036,
images\eyedrops.jpg,bicycle,x,sounds\greatgatsby_chinese.wav,,,,,,,,,0,1,1,0,0,114,114,131,835.056903589,9.30095916374e-06,836.290228733,1.23333476589,,,,x,1,1.21720305405,2018_Nov_15_1534,59.9824167199,chinese_cond2,001,1036,
images\binder03b.jpg,dj mixer,x,sounds\greatgatsby_chinese.wav,,,,,,,,,0,1,1,0,0,115,115,167,837.403494531,9.30095916374e-06,838.590824187,1.18733927782,,,,x,1,1.16718987235,2018_Nov_15_1534,59.9824167199,chinese_cond2,001,1036,
images\fork01.jpg,cooking pot,x,sounds\greatgatsby_chinese.wav,,,,,,,,,0,1,1,0,0,116,116,160,839.684736934,9.62168201113e-06,840.791384938,1.10665826801,,,,x,1,1.0838359593,2018_Nov_15_1534,59.9824167199,chinese_cond2,001,1036,
images\blackolive.jpg,tank,x,sounds\greatgatsby_chinese.wav,,,,,,,,,0,1,1,0,0,117,117,229,841.906413749,9.94240463115e-06,842.958606883,1.0522030765,,,,x,1,1.03381379736,2018_Nov_15_1534,59.9824167199,chinese_cond2,001,1036,
images\nailclipper03a.jpg,aquarium,x,sounds\greatgatsby_chinese.wav,,,,,,,,,0,1,1,0,0,118,118,123,844.058126184,9.94240463115e-06,844.942457211,0.884341931482,,,,x,1,0.867122007417,2018_Nov_15_1534,59.9824167199,chinese_cond2,001,1036,
images\cola.jpg,comb,x,sounds\greatgatsby_chinese.wav,,,,,,,,,0,1,1,0,0,119,119,157,846.09286238,8.98023654372e-06,847.393076494,1.30022437762,,,,z,0,1.28385116156,2018_Nov_15_1534,59.9824167199,chinese_cond2,001,1036,
images\birthdaycandle.jpg,birthday candle,z,sounds\greatgatsby_chinese.wav,,,,,,,,,0,1,1,0,0,120,120,55,848.489194851,8.98023631635e-06,849.293568098,0.804382547808,,,,z,1,0.78376520787,2018_Nov_15_1534,59.9824167199,chinese_cond2,001,1036,
images\cauliflower01.jpg,glue stick,x,sounds\greatgatsby_chinese.wav,,,,,,,,,0,1,1,0,0,121,121,181,850.483896832,9.62168178376e-06,851.877578851,1.39369164049,,,,x,1,1.38393268928,2018_Nov_15_1534,59.9824167199,chinese_cond2,001,1036,
images\watermelon01.jpg,orange,x,sounds\greatgatsby_chinese.wav,,,,,,,,,0,1,1,0,0,122,122,207,853.006914782,9.30095916374e-06,853.811394509,0.804489989923,,,,x,1,0.783764887147,2018_Nov_15_1534,59.9824167199,chinese_cond2,001,1036,
images\cactus.jpg,cactus,z,sounds\greatgatsby_chinese.wav,,,,,,,,,0,1,1,0,0,123,123,70,854.923511798,9.62168178376e-06,855.861922451,0.93842123595,,,,x,0,0.91713037828,2018_Nov_15_1534,59.9824167199,chinese_cond2,001,1036,
images\ear.jpg,bullet,x,sounds\greatgatsby_chinese.wav,,,,,,,,,0,1,1,0,0,124,124,139,856.966283382,9.30095916374e-06,857.845762836,0.87948875514,,,,x,1,0.867117838021,2018_Nov_15_1534,59.9824167199,chinese_cond2,001,1036,
images\dreamcatcher.jpg,dream catcher,z,sounds\greatgatsby_chinese.wav,,,,,,,,,0,1,1,0,0,125,125,48,858.943981606,9.62168201113e-06,859.946564065,1.00259400544,,,,z,1,0.98407451287,2018_Nov_15_1534,59.9824167199,chinese_cond2,001,1036,
images\kiwi03.jpg,backpack,x,sounds\greatgatsby_chinese.wav,,,,,,,,,0,1,1,0,0,126,126,125,861.075509356,9.30095916374e-06,862.280229561,1.20472982638,,,,x,1,1.18386649211,2018_Nov_15_1534,59.9824167199,chinese_cond2,001,1036,
images\toucan.jpg,toucan,z,sounds\greatgatsby_chinese.wav,,,,,,,,,0,1,1,0,0,127,127,81,863.461924118,9.30095916374e-06,864.530817606,1.0689027883,,,,x,0,1.05050645326,2018_Nov_15_1534,59.9824167199,chinese_cond2,001,1036,
images\desktopcomputer.jpg,desktop computer,z,sounds\greatgatsby_chinese.wav,,,,,,,,,0,1,1,0,0,128,128,16,865.666875243,9.94240463115e-06,866.34793926,0.681074280026,,,,z,1,0.667069922045,2018_Nov_15_1534,59.9824167199,chinese_cond2,001,1036,
images\highlighter03b.jpg,coin,x,sounds\greatgatsby_chinese.wav,,,,,,,,,0,1,1,0,0,129,129,156,867.449860133,9.62168178376e-06,868.331771948,0.881921757766,,,,x,1,0.867110461398,2018_Nov_15_1534,59.9824167199,chinese_cond2,001,1036,
images\ant.jpg,ant,z,sounds\greatgatsby_chinese.wav,,,,,,,,,0,1,1,0,0,130,130,98,869.426301765,9.62168178376e-06,870.215662623,0.789371120458,,,,z,1,0.767160109277,2018_Nov_15_1534,59.9824167199,chinese_cond2,001,1036,
images\charcoalbarbecue.jpg,charcoal barbecue,z,sounds\greatgatsby_chinese.wav,,,,,,,,,0,1,1,0,0,131,131,77,871.33552697,9.94240440377e-06,872.432830077,1.09731304912,,,,z,1,1.08383628003,2018_Nov_15_1534,59.9824167199,chinese_cond2,001,1036,
images\chameleon.jpg,50 dollar bill,x,sounds\greatgatsby_chinese.wav,,,,,,,,,0,1,1,0,0,132,132,120,873.542520137,9.62168201113e-06,874.983483421,1.44097386815,,,,x,1,1.41725962954,2018_Nov_15_1534,59.9824167199,chinese_cond2,001,1036,
images\aloe02.jpg,broad sword,x,sounds\greatgatsby_chinese.wav,,,,,,,,,0,1,1,0,0,133,133,137,876.180953688,9.94240463115e-06,877.517466881,1.33652313469,,,,x,1,1.31723166252,2018_Nov_15_1534,59.9824167199,chinese_cond2,001,1036,
images\tank.jpg,wallet,x,sounds\greatgatsby_chinese.wav,,,,,,,,,0,1,1,0,0,134,134,237,878.622272013,9.30095916374e-06,879.551311788,0.929049076351,,,,x,1,0.917125246716,2018_Nov_15_1534,59.9824167199,chinese_cond2,001,1036,
images\giraffe.jpg,lettuce,x,sounds\greatgatsby_chinese.wav,,,,,,,,,0,1,1,0,0,135,135,195,880.652483452,9.94240463115e-06,881.385127381,0.732654512986,,,,x,1,0.717080537967,2018_Nov_15_1534,59.9824167199,chinese_cond2,001,1036,
images\chessknight02b (1).jpg,cockroach,x,sounds\greatgatsby_chinese.wav,,,,,,,,,0,1,1,0,0,136,136,155,882.49465708,9.30095916374e-06,883.385486912,0.89083977398,,,,x,1,0.866965494725,2018_Nov_15_1534,59.9824167199,chinese_cond2,001,1036,
images\hairpin.jpg,hair pin,z,sounds\greatgatsby_chinese.wav,,,,,,,,,0,1,1,0,0,137,137,28,884.55042082,8.98023631635e-06,885.186096477,0.635684957912,,,,x,0,0.61704840155,2018_Nov_15_1534,59.9824167199,chinese_cond2,001,1036,
images\redfox.jpg,red fox,z,sounds\greatgatsby_chinese.wav,,,,,,,,,0,1,1,0,0,138,138,1,886.298977408,9.94240463115e-06,887.169955785,0.870987678474,,,,z,1,0.850454047168,2018_Nov_15_1534,59.9824167199,chinese_cond2,001,1036,
images\razor04a.jpg,razor,z,sounds\greatgatsby_chinese.wav,,,,,,,,,0,1,1,0,0,139,139,36,888.26990293,9.94240463115e-06,889.153778851,0.883886505206,,,,z,1,0.867115592962,2018_Nov_15_1534,59.9824167199,chinese_cond2,001,1036,
images\plate01b.jpg,plate,z,sounds\greatgatsby_chinese.wav,,,,,,,,,0,1,1,0,0,140,140,3,890.253674681,9.62168201113e-06,891.154291046,0.900626307346,,,,z,1,0.883784836101,2018_Nov_15_1534,59.9824167199,chinese_cond2,001,1036,
images\donut.jpg,rhinoceros,x,sounds\greatgatsby_chinese.wav,,,,,,,,,0,1,1,0,0,141,141,216,892.348075567,9.94240463115e-06,893.871683005,1.52361866324,,,,z,0,1.50063535173,2018_Nov_15_1534,59.9824167199,chinese_cond2,001,1036,
images\honeycomb.jpg,honey comb,z,sounds\greatgatsby_chinese.wav,,,,,,,,,0,1,1,0,0,142,142,59,894.984502678,9.30095916374e-06,895.805595842,0.821103106585,,,,z,1,0.800537403005,2018_Nov_15_1534,59.9824167199,chinese_cond2,001,1036,
images\corn01.jpg,corn,z,sounds\greatgatsby_chinese.wav,,,,,,,,,0,1,1,0,0,143,143,22,896.905426885,8.98023631635e-06,897.806000273,0.900583009778,,,,z,1,0.883786439715,2018_Nov_15_1534,59.9824167199,chinese_cond2,001,1036,
images\skateboard.jpg,key,x,sounds\greatgatsby_chinese.wav,,,,,,,,,0,1,1,0,0,144,144,189,898.897447304,9.94240463115e-06,899.556448483,0.659011442746,,,,x,1,0.650395547342,2018_Nov_15_1534,59.9824167199,chinese_cond2,001,1036,
images\microphone01.jpg,diaper,x,sounds\greatgatsby_chinese.wav,,,,,,,,,0,1,1,0,0,145,145,164,900.655629101,9.30095916374e-06,901.907051987,1.25143282879,,,,z,0,1.23387839092,2018_Nov_15_1534,59.9824167199,chinese_cond2,001,1036,
images\notebook02b.jpg,notebook,z,sounds\greatgatsby_chinese.wav,,,,,,,,,0,1,1,0,0,146,146,7,903.013953684,9.94240463115e-06,904.140952187,1.12700940808,,,,z,1,1.11716546535,2018_Nov_15_1534,59.9824167199,chinese_cond2,001,1036,
images\parrot01.jpg,chameleon,x,sounds\greatgatsby_chinese.wav,,,,,,,,,0,1,1,0,0,147,147,150,905.255020754,9.94240463115e-06,906.208153542,0.953143371399,,,,z,0,0.933802187201,2018_Nov_15_1534,59.9824167199,chinese_cond2,001,1036,
images\dresser02.jpg,dresser,z,sounds\greatgatsby_chinese.wav,,,,,,,,,0,1,1,0,0,148,148,87,907.330273532,9.30095916374e-06,908.158656082,0.828392172056,,,,x,0,0.817103052703,2018_Nov_15_1534,59.9824167199,chinese_cond2,001,1036,
images\remotecontrol01c.jpg,remote control,z,sounds\greatgatsby_chinese.wav,,,,,,,,,0,1,1,0,0,149,149,85,909.26817231,9.30095916374e-06,909.975803074,0.707641026595,,,,z,1,0.683755201321,2018_Nov_15_1534,59.9824167199,chinese_cond2,001,1036,
images\flamingo.jpg,flamingo,z,sounds\greatgatsby_chinese.wav,,,,,,,,,0,1,1,0,0,150,150,52,911.074624803,9.30095916374e-06,912.443088714,1.368473533,,,,z,1,1.35058201554,2018_Nov_15_1534,59.9824167199,chinese_cond2,001,1036,
images\grasshopper.jpg,cauliflower,x,sounds\greatgatsby_chinese.wav,,,,,,,,,0,1,1,0,0,151,151,148,913.536876699,8.98023654372e-06,914.676989555,1.1401224776,,,,x,1,1.11718502943,2018_Nov_15_1534,59.9824167199,chinese_cond2,001,1036,
images\croissant02b.jpg,croissant,z,sounds\greatgatsby_chinese.wav,,,,,,,,,0,1,1,0,0,152,152,39,915.788640193,9.30095916374e-06,916.460774969,0.67214439707,,,,z,1,0.650391057224,2018_Nov_15_1534,59.9824167199,chinese_cond2,001,1036,
images\bicycle.jpg,hand bag,x,sounds\greatgatsby_chinese.wav,,,,,,,,,0,1,1,0,0,153,153,186,917.64871047,9.62168201113e-06,918.39460538,0.745904851829,,,,x,1,0.733742083761,2018_Nov_15_1534,59.9824167199,chinese_cond2,001,1036,
images\scissors04a.jpg,leek,x,sounds\greatgatsby_chinese.wav,,,,,,,,,0,1,1,0,0,154,154,194,919.488585478,8.98023654372e-06,920.545168023,1.05659216705,,,,x,1,1.03368743261,2018_Nov_15_1534,59.9824167199,chinese_cond2,001,1036,
images\computerkeyboard01a.jpg,computer keyboard,z,sounds\greatgatsby_chinese.wav,,,,,,,,,0,1,1,0,0,155,155,61,921.662183711,9.30095916374e-06,923.112489969,1.45031620054,,,,z,1,1.43393496641,2018_Nov_15_1534,59.9824167199,chinese_cond2,001,1036,
images\scooter.jpg,pen,x,sounds\greatgatsby_chinese.wav,,,,,,,,,0,1,1,0,0,156,156,212,924.205543821,8.98023631635e-06,925.029645364,0.824111806509,,,,x,1,0.800436696069,2018_Nov_15_1534,59.9824167199,chinese_cond2,001,1036,
images\dryingmachine01.jpg,drying machine,z,sounds\greatgatsby_chinese.wav,,,,,,,,,0,1,1,0,0,157,157,18,926.237041358,9.30095916374e-06,927.063600279,0.826568542617,,,,z,1,0.817207929036,2018_Nov_15_1534,59.9824167199,chinese_cond2,001,1036,
images\hand01a.jpg,cupcake,x,sounds\greatgatsby_chinese.wav,,,,,,,,,0,1,1,0,0,158,158,163,928.175565226,9.62168201113e-06,929.097360195,0.921804912061,,,,x,1,0.900467228872,2018_Nov_15_1534,59.9824167199,chinese_cond2,001,1036,
images\hanger02a.jpg,hanger,z,sounds\greatgatsby_chinese.wav,,,,,,,,,0,1,1,0,0,159,159,88,930.191086281,9.94240463115e-06,930.997839291,0.806762631184,,,,z,1,0.783766170038,2018_Nov_15_1534,59.9824167199,chinese_cond2,001,1036,
images\hairdryer03a.jpg,hairdryer,z,sounds\greatgatsby_chinese.wav,,,,,,,,,0,1,1,0,0,160,160,119,932.097348649,8.98023631635e-06,932.848334711,0.750996004436,,,,z,1,0.733764855075,2018_Nov_15_1534,59.9824167199,chinese_cond2,001,1036,
images\cloud.jpg,ceiling fan,x,sounds\greatgatsby_chinese.wav,,,,,,,,,0,1,1,0,0,161,161,149,933.954592076,9.30095916374e-06,934.748795847,0.794214033672,,,,x,1,0.783758793415,2018_Nov_15_1534,59.9824167199,chinese_cond2,001,1036,
images\baseball01a.jpg,baseball,z,sounds\greatgatsby_chinese.wav,,,,,,,,,0,1,1,0,0,162,162,74,935.881746002,9.30095916374e-06,936.64937148,0.76764696638,,,,z,1,0.750415496296,2018_Nov_15_1534,59.9824167199,chinese_cond2,001,1036,
images\cookingpot.jpg,grasshopper,x,sounds\greatgatsby_chinese.wav,,,,,,,,,0,1,1,0,0,163,163,183,937.763405729,9.30095916374e-06,938.749821839,0.986426051923,,,,x,1,0.967122071561,2018_Nov_15_1534,59.9824167199,chinese_cond2,001,1036,
images\ostrich.jpg,ostrich,z,sounds\greatgatsby_chinese.wav,,,,,,,,,0,1,1,0,0,164,164,76,939.850371301,8.98023654372e-06,941.600559405,1.75019772556,,,,z,1,1.73401277374,2018_Nov_15_1534,59.9824167199,chinese_cond2,001,1036,
images\candle08a.jpg,screw driver,x,sounds\greatgatsby_chinese.wav,,,,,,,,,0,1,1,0,0,165,165,221,942.714203334,9.30095916374e-06,943.734452485,1.02025909265,,,,x,1,1.00050321396,2018_Nov_15_1534,59.9824167199,chinese_cond2,001,1036,
images\apricot.jpg,apricot,z,sounds\greatgatsby_chinese.wav,,,,,,,,,0,1,1,0,0,166,166,32,944.852111222,9.30095916374e-06,945.985015513,1.13291391353,,,,x,0,1.1171831051,2018_Nov_15_1534,59.9824167199,chinese_cond2,001,1036,
images\diploma01.jpg,glasses,x,sounds\greatgatsby_chinese.wav,,,,,,,,,0,1,1,0,0,167,167,179,947.18660354,9.30095916374e-06,948.635692014,1.44909777489,,,,x,1,1.43391764738,2018_Nov_15_1534,59.9824167199,chinese_cond2,001,1036,
images\basketball01.jpg,basket ball,z,sounds\greatgatsby_chinese.wav,,,,,,,,,0,1,1,0,0,168,168,33,949.775321541,8.98023631635e-06,950.33614372,0.56083148009,,,,z,1,0.550388427298,2018_Nov_15_1534,59.9824167199,chinese_cond2,001,1036,
images\radish01.jpg,raisin,x,sounds\greatgatsby_chinese.wav,,,,,,,,,0,1,1,0,0,169,169,214,951.525768147,9.62168201113e-06,952.286624772,0.760866567157,,,,x,1,0.750418703523,2018_Nov_15_1534,59.9824167199,chinese_cond2,001,1036,
images\globe.jpg,cloud,x,sounds\greatgatsby_chinese.wav,,,,,,,,,0,1,1,0,0,170,170,154,953.41485036,9.94240463115e-06,954.25379431,0.838953892259,,,,x,1,0.817099524753,2018_Nov_15_1534,59.9824167199,chinese_cond2,001,1036,
images\8ball.jpg,nail clipper,x,sounds\greatgatsby_chinese.wav,,,,,,,,,0,1,1,0,0,171,171,206,955.444023621,9.62168201113e-06,956.537725973,1.09371261576,,,,x,1,1.08384814677,2018_Nov_15_1534,59.9824167199,chinese_cond2,001,1036,
images\lettuce.jpg,mushroom,x,sounds\greatgatsby_chinese.wav,,,,,,,,,0,1,1,0,0,172,172,205,957.661808466,8.98023654372e-06,958.538248431,0.876449586556,,,,x,1,0.867121045248,2018_Nov_15_1534,59.9824167199,chinese_cond2,001,1036,
images\50dollarbill.jpg,cherry,x,sounds\greatgatsby_chinese.wav,,,,,,,,,0,1,1,0,0,173,173,151,959.732788254,9.94240463115e-06,960.738794429,1.00601611696,,,,x,1,0.983814086014,2018_Nov_15_1534,59.9824167199,chinese_cond2,001,1036,
images\cheetah.jpg,cheetah,z,sounds\greatgatsby_chinese.wav,,,,,,,,,0,1,1,0,0,174,174,82,961.841639624,9.30095893636e-06,962.63932035,0.797690668059,,,,x,0,0.78380048737,2018_Nov_15_1534,59.9824167199,chinese_cond2,001,1036,
images\daisy.jpg,daisy,z,sounds\greatgatsby_chinese.wav,,,,,,,,,0,1,1,0,0,175,175,6,963.741531156,9.62168178376e-06,964.489826996,0.748334647227,,,,z,1,0.73375362978,2018_Nov_15_1534,59.9824167199,chinese_cond2,001,1036,
images\gps.jpg,gps,z,sounds\greatgatsby_chinese.wav,,,,,,,,,0,1,1,0,0,176,176,21,965.608454957,9.62168201113e-06,966.540279888,0.931834232533,,,,z,1,0.917131981893,2018_Nov_15_1534,59.9824167199,chinese_cond2,001,1036,
images\handbag02a.jpg,candle,x,sounds\greatgatsby_chinese.wav,,,,,,,,,0,1,1,0,0,177,177,144,967.724600524,8.65951369633e-06,968.524126047,0.799534823753,,,,x,1,0.783755906911,2018_Nov_15_1534,59.9824167199,chinese_cond2,001,1036,
images\volleyball.jpg,volley ball,z,sounds\greatgatsby_chinese.wav,,,,,,,,,0,1,1,0,0,178,178,2,969.657068504,8.98023654372e-06,970.858059666,1.20100078321,,,,z,1,1.18386841644,2018_Nov_15_1534,59.9824167199,chinese_cond2,001,1036,
images\bench02.jpg,electric toothbrush,x,sounds\greatgatsby_chinese.wav,,,,,,,,,0,1,1,0,0,179,179,172,971.968216057,9.62168178376e-06,972.708532957,0.740326521396,,,,x,1,0.717085348808,2018_Nov_15_1534,59.9824167199,chinese_cond2,001,1036,
images\lamp04b.jpg,parking meter,x,sounds\greatgatsby_chinese.wav,,,,,,,,,0,1,1,0,0,180,180,209,973.829052861,1.02631274785e-05,974.759082387,0.930039788862,,,,x,1,0.917159884771,2018_Nov_15_1534,59.9824167199,chinese_cond2,001,1036,
images\raisin.jpg,ruler,x,sounds\greatgatsby_chinese.wav,,,,,,,,,0,1,1,0,0,181,181,218,975.935679057,9.94240463115e-06,976.759832236,0.824163763592,,,,x,1,0.800639713556,2018_Nov_15_1534,59.9824167199,chinese_cond2,001,1036,
images\bowlingball.jpg,bowling ball,z,sounds\greatgatsby_chinese.wav,,,,,,,,,0,1,1,0,0,182,182,20,977.892118175,9.62168178376e-06,979.54361797,1.6515097381,,,,z,1,1.63398544817,2018_Nov_15_1534,59.9824167199,chinese_cond2,001,1036,
images\djmixer01.jpg,light bulb,x,sounds\greatgatsby_chinese.wav,,,,,,,,,0,1,1,0,0,183,183,196,980.745412542,8.65951369633e-06,982.511043766,1.76564052498,,,,z,0,1.75067816821,2018_Nov_15_1534,59.9824167199,chinese_cond2,001,1036,
images\bus.jpg,microphone,x,sounds\greatgatsby_chinese.wav,,,,,,,,,0,1,1,0,0,184,184,203,983.630004317,9.62168201113e-06,984.378185338,0.748191284167,,,,x,1,0.733754271225,2018_Nov_15_1534,59.9824167199,chinese_cond2,001,1036,
images\peach01.jpg,peach,z,sounds\greatgatsby_chinese.wav,,,,,,,,,0,1,1,0,0,185,185,106,985.509421872,9.30095916374e-06,986.178643522,0.669231593242,,,,z,1,0.650394585174,2018_Nov_15_1534,59.9824167199,chinese_cond2,001,1036,
images\lantern03.jpg,lantern,z,sounds\greatgatsby_chinese.wav,,,,,,,,,0,1,1,0,0,186,186,5,987.28562572,8.98023631635e-06,988.162486794,0.876871978391,,,,z,1,0.867116875853,2018_Nov_15_1534,59.9824167199,chinese_cond2,001,1036,
images\coin01b.jpg,arrow,x,sounds\greatgatsby_chinese.wav,,,,,,,,,0,1,1,0,0,187,187,124,989.265918592,9.30095916374e-06,990.046308834,0.780400505716,,,,x,1,0.767084418713,2018_Nov_15_1534,59.9824167199,chinese_cond2,001,1036,
images\orange.jpg,bat,x,sounds\greatgatsby_chinese.wav,,,,,,,,,0,1,1,0,0,188,188,128,991.171642145,9.62168201113e-06,991.880114485,0.708482603037,,,,x,1,0.700408729046,2018_Nov_15_1534,59.9824167199,chinese_cond2,001,1036,
images\atm.jpg,atm,z,sounds\greatgatsby_chinese.wav,,,,,,,,,0,1,1,0,0,189,189,96,993.089257456,9.62168178376e-06,994.097343518,1.00809600386,,,,z,1,0.983812803123,2018_Nov_15_1534,59.9824167199,chinese_cond2,001,1036,
images\doorhandle.jpg,doll,x,sounds\greatgatsby_chinese.wav,,,,,,,,,0,1,1,0,0,190,190,168,995.200259272,9.94240463115e-06,996.331251415,1.13100272678,,,,z,0,1.11718470871,2018_Nov_15_1534,59.9824167199,chinese_cond2,001,1036,
images\bullet (2).jpg,rubber glove,x,sounds\greatgatsby_chinese.wav,,,,,,,,,0,1,1,0,0,191,191,217,997.436749308,9.30095916374e-06,998.748537665,1.31179797804,,,,x,1,1.30055440131,2018_Nov_15_1534,59.9824167199,chinese_cond2,001,1036,
images\aquarium.jpg,computer mouse,x,sounds\greatgatsby_chinese.wav,,,,,,,,,0,1,1,0,0,192,192,159,999.883579574,9.30095916374e-06,1000.64902317,0.765453543633,,,,x,1,0.750408119673,2018_Nov_15_1534,59.9824167199,chinese_cond2,001,1036,
images\bowl02b (1).jpg,bowl,z,sounds\greatgatsby_chinese.wav,,,,,,,,,0,1,1,0,0,193,193,24,1001.76765819,9.62168201113e-06,1002.53284137,0.765192154609,,,,z,1,0.750426080146,2018_Nov_15_1534,59.9824167199,chinese_cond2,001,1036,
images\parkingmeter.jpg,ear,x,sounds\greatgatsby_chinese.wav,,,,,,,,,0,1,1,0,0,194,194,171,1003.63487161,9.62168178376e-06,1004.34996815,0.715106489568,,,,x,1,0.70041033266,2018_Nov_15_1534,59.9824167199,chinese_cond2,001,1036,
images\coffeepot03b.jpg,coffee pot,z,sounds\greatgatsby_chinese.wav,,,,,,,,,0,1,1,0,0,195,195,107,1005.47204388,8.98023654372e-06,1006.61722384,1.14518925528,,,,z,1,1.13385876269,2018_Nov_15_1534,59.9824167199,chinese_cond2,001,1036,
images\key03b.jpg,cigar,x,sounds\greatgatsby_chinese.wav,,,,,,,,,0,1,1,0,0,196,196,153,1007.71949943,9.94240463115e-06,1008.51781326,0.79832409545,,,,x,1,0.783869442757,2018_Nov_15_1534,59.9824167199,chinese_cond2,001,1036,
images\bowtie.jpg,bowtie,z,sounds\greatgatsby_chinese.wav,,,,,,,,,0,1,1,0,0,197,197,89,1009.62898185,9.94240463115e-06,1010.55156035,0.922588758412,,,,x,0,0.90046466309,2018_Nov_15_1534,59.9824167199,chinese_cond2,001,1036,
images\drink.jpg,drink,z,sounds\greatgatsby_chinese.wav,,,,,,,,,0,1,1,0,0,198,198,117,1011.72898609,9.62168178376e-06,1012.46870837,0.739732222179,,,,z,1,0.717068991949,2018_Nov_15_1534,59.9824167199,chinese_cond2,001,1036,
images\tent.jpg,tent,z,sounds\greatgatsby_chinese.wav,,,,,,,,,0,1,1,0,0,199,199,11,1013.59626621,8.98023654372e-06,1014.30253294,0.706276992827,,,,z,1,0.68375039048,2018_Nov_15_1534,59.9824167199,chinese_cond2,001,1036,
images\electrictoothbrush01a.jpg,banjo,x,sounds\greatgatsby_chinese.wav,,,,,,,,,0,1,1,0,0,200,200,127,1015.3978636,9.62168178376e-06,1016.35304677,0.955193110362,,,,x,1,0.933804752982,2018_Nov_15_1534,59.9824167199,chinese_cond2,001,1036,
images\plant01.jpg,plant,z,sounds\greatgatsby_chinese.wav,,,,,,,,,0,1,1,0,0,201,201,47,1017.46556817,9.62168201113e-06,1018.103503,0.637944770263,,,,z,1,0.617063154796,2018_Nov_15_1534,59.9824167199,chinese_cond2,001,1036,
images\elbow.jpg,elbow,z,sounds\greatgatsby_chinese.wav,,,,,,,,,0,1,1,0,0,202,202,105,1019.21521393,9.62168201113e-06,1019.98730836,0.772104050151,,,,z,1,0.750250644813,2018_Nov_15_1534,59.9824167199,chinese_cond2,001,1036,
images\beermug01b.jpg,beer mug,z,sounds\greatgatsby_chinese.wav,,,,,,,,,0,1,1,0,0,203,203,111,1021.10470571,9.30095916374e-06,1022.05450971,0.949814269467,,,,z,1,0.933800262864,2018_Nov_15_1534,59.9824167199,chinese_cond2,001,1036,
images\shotglass.jpg,shot glass,z,sounds\greatgatsby_chinese.wav,,,,,,,,,0,1,1,0,0,204,204,86,1023.16385596,9.62168178376e-06,1024.13837486,0.974529162997,,,,z,1,0.950473033954,2018_Nov_15_1534,59.9824167199,chinese_cond2,001,1036,
images\lemon02.jpg,lemon,z,sounds\greatgatsby_chinese.wav,,,,,,,,,0,1,1,0,0,205,205,14,1025.2509851,9.30095916374e-06,1026.15555245,0.904577611373,,,,z,1,0.883778421647,2018_Nov_15_1534,59.9824167199,chinese_cond2,001,1036,
images\gorilla.jpg,gorilla,z,sounds\greatgatsby_chinese.wav,,,,,,,,,0,1,1,0,0,206,206,80,1027.2677063,9.62168201113e-06,1028.03937321,0.771676526753,,,,z,1,0.75042062786,2018_Nov_15_1534,59.9824167199,chinese_cond2,001,1036,
images\cockroach02.jpg,belt,x,sounds\greatgatsby_chinese.wav,,,,,,,,,0,1,1,0,0,207,207,129,1029.13880238,9.30095916374e-06,1030.57335955,1.43456743163,,,,x,1,1.41726027099,2018_Nov_15_1534,59.9824167199,chinese_cond2,001,1036,
images\dragonfly02.jpg,dragon fly,z,sounds\greatgatsby_chinese.wav,,,,,,,,,0,1,1,0,0,208,208,29,1031.67105586,9.62168178376e-06,1032.45701802,0.785972100971,,,,z,1,0.766933037584,2018_Nov_15_1534,59.9824167199,chinese_cond2,001,1036,
images\pepper05a.jpg,lighter,x,sounds\greatgatsby_chinese.wav,,,,,,,,,0,1,1,0,0,209,209,198,1033.57872781,9.62168178376e-06,1035.00783012,1.42911225873,,,,x,1,1.41726123315,2018_Nov_15_1534,59.9824167199,chinese_cond2,001,1036,
images\pictureframe04.jpg,picture frame,z,sounds\greatgatsby_chinese.wav,,,,,,,,,0,1,1,0,0,210,210,41,1036.13069836,8.98023631635e-06,1036.97499678,0.844307716781,,,,z,1,0.83377678596,2018_Nov_15_1534,59.9824167199,chinese_cond2,001,1036,
images\spoon02b.jpg,spoon,z,sounds\greatgatsby_chinese.wav,,,,,,,,,0,1,1,0,0,211,211,38,1038.06698102,9.62168178376e-06,1038.74211968,0.675148606877,,,,z,1,0.667075053609,2018_Nov_15_1534,59.9824167199,chinese_cond2,001,1036,
images\lightswitch02a.jpg,fork,x,sounds\greatgatsby_chinese.wav,,,,,,,,,0,1,1,0,0,212,212,177,1039.85456764,9.62168201113e-06,1041.15940208,1.30484470926,,,,x,1,1.28386078324,2018_Nov_15_1534,59.9824167199,chinese_cond2,001,1036,
images\dice05a.jpg,band aid,x,sounds\greatgatsby_chinese.wav,,,,,,,,,0,1,1,0,0,213,213,126,1042.27242092,8.98023654372e-06,1043.19325533,0.920844026764,,,,x,1,0.900458569359,2018_Nov_15_1534,59.9824167199,chinese_cond2,001,1036,
images\ladder.jpg,ladder,z,sounds\greatgatsby_chinese.wav,,,,,,,,,0,1,1,0,0,214,214,113,1044.28649039,8.98023654372e-06,1045.11043606,0.823955293817,,,,z,1,0.800455939432,2018_Nov_15_1534,59.9824167199,chinese_cond2,001,1036,
images\fireextinguisher02.jpg,fire extinguisher,z,sounds\greatgatsby_chinese.wav,,,,,,,,,0,1,1,0,0,215,215,175,1046.47513501,9.62168201113e-06,1047.49436747,1.01924272232,,,,z,1,1.00033611742,2018_Nov_15_1534,59.9824167199,chinese_cond2,001,1036,
images\banjo.jpg,knife,x,sounds\greatgatsby_chinese.wav,,,,,,,,,0,1,1,0,0,216,216,191,1048.59170489,9.30095916374e-06,1049.4115235,0.819828875181,,,,x,1,0.80043926185,2018_Nov_15_1534,59.9824167199,chinese_cond2,001,1036,
images\sunglasses03a.jpg,sun glasses,z,sounds\greatgatsby_chinese.wav,,,,,,,,,0,1,1,0,0,217,217,17,1050.52059457,9.94240440377e-06,1051.61208458,1.09150091181,,,,z,1,1.06717088556,2018_Nov_15_1534,59.9824167199,chinese_cond2,001,1036,
images\lock02a.jpg,lock,z,sounds\greatgatsby_chinese.wav,,,,,,,,,0,1,1,0,0,218,218,65,1052.79417747,1.02631274785e-05,1053.76263567,0.968468465579,,,,z,1,0.950473996122,2018_Nov_15_1534,59.9824167199,chinese_cond2,001,1036,
images\puma.jpg,puma,z,sounds\greatgatsby_chinese.wav,,,,,,,,,0,1,1,0,0,219,219,4,1054.86170308,9.30095916374e-06,1055.47973289,0.618039434784,,,,z,1,0.600375951183,2018_Nov_15_1534,59.9824167199,chinese_cond2,001,1036,
,,,sounds\greatgatsby_chinese.wav,,,,,,,,,0,1,1,0,,,,,,,,,,,,,,,2018_Nov_15_1534,59.9824167199,chinese_cond2,001,1036,
