images,name,corrAns,sounds,trials_3.thisRepN,trials_3.thisTrialN,trials_3.thisN,trials_3.thisIndex,trials_4.thisRepN,trials_4.thisTrialN,trials_4.thisN,trials_4.thisIndex,trials_2.thisRepN,trials_2.thisTrialN,trials_2.thisN,trials_2.thisIndex,trials.thisRepN,trials.thisTrialN,trials.thisN,trials.thisIndex,begin_global,begin_routine,end_global,end_routine,key_resp_2.keys,key_resp_2.corr,key_resp_2.rt,begin_book,key_resp_1.keys,key_resp_1.corr,key_resp_1.rt,date,frameRate,expName,session,participant,
images/volleyball.jpg,volley ball,z,,0,0,0,0,,,,,,,,,,,,,,,,,,,,,,,,2018_Nov_15_1538,59.9846862411,chinese_cond1,001,1039,
images/puma.jpg,puma,z,,,,,,0,0,0,0,,,,,,,,,48.2082093209,9.62165108831e-06,50.1302915873,1.92209285022,z,1,1.9007218804,,,,,2018_Nov_15_1538,59.9846862411,chinese_cond1,001,1039,
images/camera01a.jpg,bull,x,sounds/animalfarm_chinese.wav,,,,,,,,,0,0,0,1,0,0,0,138,92.3764788478,9.62165108831e-06,93.8747078225,1.49823955858,,,,82.1268091911,x,1,1.48395814197,2018_Nov_15_1538,59.9846862411,chinese_cond1,001,1039,
images/ceilingfan02.jpg,paper clip,x,sounds/animalfarm_chinese.wav,,,,,,,,,0,0,0,1,0,1,1,208,95.0486076188,8.98020766726e-06,95.9252275841,0.876630228405,,,,,x,1,0.86713846967,2018_Nov_15_1538,59.9846862411,chinese_cond1,001,1039,
images/tent.jpg,tent,z,sounds/animalfarm_chinese.wav,,,,,,,,,0,0,0,1,0,2,2,11,97.1375867231,9.30092937779e-06,97.9926057612,0.855028659691,,,,,z,1,0.833986108902,2018_Nov_15_1538,59.9846862411,chinese_cond1,001,1039,
images/crocodile.jpg,triangle ruler,x,sounds/animalfarm_chinese.wav,,,,,,,,,0,0,0,1,0,3,3,235,99.1597142755,8.98020766726e-06,100.142952718,0.983248705567,,,,,x,1,0.967153287012,2018_Nov_15_1538,59.9846862411,chinese_cond1,001,1039,
images/birthdaycandle.jpg,birthday candle,z,sounds/animalfarm_chinese.wav,,,,,,,,,0,0,0,1,0,4,4,55,101.323588632,8.98020766726e-06,102.426860058,1.10328136787,,,,,z,1,1.08384691568,2018_Nov_15_1538,59.9846862411,chinese_cond1,001,1039,
images/feather03b.jpg,feather,z,sounds/animalfarm_chinese.wav,,,,,,,,,0,0,0,1,0,5,5,114,103.55148802,9.30092937779e-06,104.644085507,1.09260807038,,,,,z,1,1.08384338774,2018_Nov_15_1538,59.9846862411,chinese_cond1,001,1039,
images/umbrella01.jpg,umbrella,z,sounds/animalfarm_chinese.wav,,,,,,,,,0,0,0,1,0,6,6,53,105.779146226,8.98020766726e-06,106.561443222,0.782306938365,,,,,z,1,0.767300369984,2018_Nov_15_1538,59.9846862411,chinese_cond1,001,1039,
images/straw.jpg,straw,z,sounds/animalfarm_chinese.wav,,,,,,,,,0,0,0,1,0,7,7,109,107.710110559,9.30092915041e-06,108.545067493,0.834966875863,,,,,z,1,0.817105884345,2018_Nov_15_1538,59.9846862411,chinese_cond1,001,1039,
images/snowman.jpg,globe,x,sounds/animalfarm_chinese.wav,,,,,,,,,0,0,0,1,0,8,8,180,109.726808614,8.98020766726e-06,110.962355611,1.23555661893,,,,,x,1,1.21721839352,2018_Nov_15_1538,59.9846862411,chinese_cond1,001,1039,
images/squirrel.jpg,binder,x,sounds/animalfarm_chinese.wav,,,,,,,,,0,0,0,1,0,9,9,132,112.116030055,9.62165108831e-06,113.029548411,0.913528618639,,,,,x,1,0.900473641808,2018_Nov_15_1538,59.9846862411,chinese_cond1,001,1039,
images/envelope02a.jpg,grand piano,x,sounds/animalfarm_chinese.wav,,,,,,,,,0,0,0,1,0,10,10,182,114.208748133,1.02630945094e-05,115.196741275,0.988003725503,,,,,x,1,0.967125704946,2018_Nov_15_1538,59.9846862411,chinese_cond1,001,1039,
images/baseball01a.jpg,baseball,z,sounds/animalfarm_chinese.wav,,,,,,,,,0,0,0,1,0,11,11,74,116.408648838,9.30092937779e-06,117.930783767,1.52214487128,,,,,z,1,1.50061514422,2018_Nov_15_1538,59.9846862411,chinese_cond1,001,1039,
images/spoon02b.jpg,spoon,z,sounds/animalfarm_chinese.wav,,,,,,,,,0,0,0,1,0,12,12,38,119.062920787,9.62165108831e-06,119.731226876,0.668316031467,,,,,z,1,0.650394744269,2018_Nov_15_1538,59.9846862411,chinese_cond1,001,1039,
images/bottleofredwine02.jpg,pipe,x,sounds/animalfarm_chinese.wav,,,,,,,,,0,0,0,1,0,13,13,213,120.890821522,8.98020766726e-06,121.881779415,0.990967835462,,,,,x,1,0.967144948248,2018_Nov_15_1538,59.9846862411,chinese_cond1,001,1039,
images/nailclipper03a.jpg,aquarium,x,sounds/animalfarm_chinese.wav,,,,,,,,,0,0,0,1,0,14,14,123,123.057975579,9.30092937779e-06,124.149023338,1.0910580224,,,,,x,1,1.06717740528,2018_Nov_15_1538,59.9846862411,chinese_cond1,001,1039,
images/aquarium.jpg,computer mouse,x,sounds/animalfarm_chinese.wav,,,,,,,,,0,0,0,1,0,15,15,159,125.359851031,9.30092937779e-06,126.366250071,1.00640930247,,,,,x,1,0.983812855039,2018_Nov_15_1538,59.9846862411,chinese_cond1,001,1039,
images/binder03b.jpg,dj mixer,x,sounds/animalfarm_chinese.wav,,,,,,,,,0,0,0,1,0,16,16,167,127.534665526,1.02630945094e-05,128.516626534,0.981971912476,,,,,x,1,0.966970796365,2018_Nov_15_1538,59.9846862411,chinese_cond1,001,1039,
images/mirror02.jpg,8 ball,x,sounds/animalfarm_chinese.wav,,,,,,,,,0,0,0,1,0,17,17,121,129.69078836,9.62165108831e-06,130.500648499,0.809870402775,,,,,x,1,0.800424507243,2018_Nov_15_1538,59.9846862411,chinese_cond1,001,1039,
images/glasses01b.jpg,calculator,x,sounds/animalfarm_chinese.wav,,,,,,,,,0,0,0,1,0,18,18,142,131.657652035,9.30092937779e-06,132.417786841,0.76014506884,,,,,x,1,0.750404750786,2018_Nov_15_1538,59.9846862411,chinese_cond1,001,1039,
images/hat05.jpg,hat,z,sounds/animalfarm_chinese.wav,,,,,,,,,0,0,0,1,0,19,19,15,133.592509288,9.30092937779e-06,134.468298263,0.8757995592,,,,,z,1,0.867120188533,2018_Nov_15_1538,59.9846862411,chinese_cond1,001,1039,
images/cupcake.jpg,scissors,x,sounds/animalfarm_chinese.wav,,,,,,,,,0,0,0,1,0,20,20,219,135.661379463,9.30092937779e-06,137.018942786,1.35757326567,,,,,x,1,1.33390560775,2018_Nov_15_1538,59.9846862411,chinese_cond1,001,1039,
images/electrictoothbrush01a.jpg,banjo,x,sounds/animalfarm_chinese.wav,,,,,,,,,0,0,0,1,0,21,21,127,138.131857992,9.94237279883e-06,140.469827144,2.3379794148,,,,,x,1,2.31749780626,2018_Nov_15_1538,59.9846862411,chinese_cond1,001,1039,
images/lamp04b.jpg,parking meter,x,sounds/animalfarm_chinese.wav,,,,,,,,,0,0,0,1,0,22,22,209,141.656910526,9.30092915041e-06,142.353625502,0.696725559724,,,,,x,1,0.683736972285,2018_Nov_15_1538,59.9846862411,chinese_cond1,001,1039,
images/swallow.jpg,mattress,x,sounds/animalfarm_chinese.wav,,,,,,,,,0,0,0,1,0,23,23,202,143.523125959,9.30092937779e-06,144.204096707,0.680980689988,,,,,x,1,0.667075159206,2018_Nov_15_1538,59.9846862411,chinese_cond1,001,1039,
images/bicycle.jpg,hand bag,x,sounds/animalfarm_chinese.wav,,,,,,,,,0,0,0,1,0,24,24,186,145.383500087,8.65948595674e-06,146.004537891,0.621047105038,,,,,x,1,0.600371780595,2018_Nov_15_1538,59.9846862411,chinese_cond1,001,1039,
images/broom02.jpg,broom,z,sounds/animalfarm_chinese.wav,,,,,,,,,0,0,0,1,0,25,25,116,147.161106849,9.30092937779e-06,147.804997037,0.643899488385,,,,,z,1,0.633724913149,2018_Nov_15_1538,59.9846862411,chinese_cond1,001,1039,
images/mushroom01.jpg,shower head,x,sounds/animalfarm_chinese.wav,,,,,,,,,0,0,0,1,0,26,26,222,148.963317776,9.30092937779e-06,149.588779615,0.625472102344,,,,,x,1,0.617049629759,2018_Nov_15_1538,59.9846862411,chinese_cond1,001,1039,
images/gluestick.jpg,squirrel,x,sounds/animalfarm_chinese.wav,,,,,,,,,0,0,0,1,0,27,27,226,150.768293004,9.30092937779e-06,151.655973378,0.887689995536,,,,,x,1,0.867111849769,2018_Nov_15_1538,59.9846862411,chinese_cond1,001,1039,
images/bowtie.jpg,bowtie,z,sounds/animalfarm_chinese.wav,,,,,,,,,0,0,0,1,0,28,28,89,152.831423863,9.62165108831e-06,153.606488906,0.775075626177,,,,,z,1,0.750444199556,2018_Nov_15_1538,59.9846862411,chinese_cond1,001,1039,
images/highlighter03b.jpg,coin,x,sounds/animalfarm_chinese.wav,,,,,,,,,0,0,0,1,0,29,29,156,154.773310695,9.30092937779e-06,155.456927717,0.683626323298,,,,,x,1,0.667060085286,2018_Nov_15_1538,59.9846862411,chinese_cond1,001,1039,
images/dreamcatcher.jpg,dream catcher,z,sounds/animalfarm_chinese.wav,,,,,,,,,0,0,0,1,0,30,30,48,156.633163009,9.62165108831e-06,157.507465439,0.874312693395,,,,,z,1,0.850456130403,2018_Nov_15_1538,59.9846862411,chinese_cond1,001,1039,
images/carrot02.jpg,corkscrew,x,sounds/animalfarm_chinese.wav,,,,,,,,,0,0,0,1,0,31,31,161,158.684605166,8.98020766726e-06,159.908060634,1.22346509008,,,,,x,1,1.20049756765,2018_Nov_15_1538,59.9846862411,chinese_cond1,001,1039,
images/pepper05a.jpg,lighter,x,sounds/animalfarm_chinese.wav,,,,,,,,,0,0,0,1,0,32,32,198,161.047559821,9.30092937779e-06,162.458721193,1.41117131414,,,,,x,1,1.40054516275,2018_Nov_15_1538,59.9846862411,chinese_cond1,001,1039,
images/butterfly.jpg,butterfly,z,sounds/animalfarm_chinese.wav,,,,,,,,,0,0,0,1,0,33,33,91,163.655163555,8.98020743989e-06,164.675949529,1.02079623652,,,,,z,1,1.00049326998,2018_Nov_15_1538,59.9846862411,chinese_cond1,001,1039,
images/eraser.jpg,eraser,z,sounds/animalfarm_chinese.wav,,,,,,,,,0,0,0,1,0,34,34,110,165.826277563,9.62165108831e-06,166.559752056,0.733484115296,,,,,z,1,0.717080483186,2018_Nov_15_1538,59.9846862411,chinese_cond1,001,1039,
images/tank.jpg,wallet,x,sounds/animalfarm_chinese.wav,,,,,,,,,0,0,0,1,0,35,35,237,167.736741044,8.98020766726e-06,169.077187771,1.34045666922,,,,,x,1,1.31736695181,2018_Nov_15_1538,59.9846862411,chinese_cond1,001,1039,
images/scissors04a.jpg,leek,x,sounds/animalfarm_chinese.wav,,,,,,,,,0,0,0,1,0,36,36,194,170.199161762,9.94237279883e-06,171.160906719,0.961755540788,,,,,x,1,0.950465495476,2018_Nov_15_1538,59.9846862411,chinese_cond1,001,1039,
images/corkscrew02a.jpg,masquerade mask,x,sounds/animalfarm_chinese.wav,,,,,,,,,0,0,0,1,0,37,37,201,172.371581427,9.62165108831e-06,173.66156516,1.28999399609,,,,,x,1,1.26723045265,2018_Nov_15_1538,59.9846862411,chinese_cond1,001,1039,
images/sunglasses03a.jpg,sun glasses,z,sounds/animalfarm_chinese.wav,,,,,,,,,0,0,0,1,0,38,38,17,174.800358118,9.62165108831e-06,176.012143806,1.211795631,,,,,z,1,1.20054503446,2018_Nov_15_1538,59.9846862411,chinese_cond1,001,1039,
images/diploma01.jpg,glasses,x,sounds/animalfarm_chinese.wav,,,,,,,,,0,0,0,1,0,39,39,179,177.160410562,9.62165108831e-06,178.929552196,1.76915157564,,,,,x,1,1.75067928856,2018_Nov_15_1538,59.9846862411,chinese_cond1,001,1039,
images/dragonfly02.jpg,dragon fly,z,sounds/animalfarm_chinese.wav,,,,,,,,,0,0,0,1,0,40,40,29,180.102231966,9.30092937779e-06,180.880031482,0.777809457955,,,,,z,1,0.767087410775,2018_Nov_15_1538,59.9846862411,chinese_cond1,001,1039,
images/shotglass.jpg,shot glass,z,sounds/animalfarm_chinese.wav,,,,,,,,,0,0,0,1,0,41,41,86,182.05638063,9.30092937779e-06,182.9472323,0.890861612435,,,,,z,1,0.86712147142,2018_Nov_15_1538,59.9846862411,chinese_cond1,001,1039,
images/flamingo.jpg,flamingo,z,sounds/animalfarm_chinese.wav,,,,,,,,,0,0,0,1,0,42,42,52,184.112021034,9.30092915041e-06,185.014418365,0.90240695222,,,,,z,1,0.883793547592,2018_Nov_15_1538,59.9846862411,chinese_cond1,001,1039,
images/cheetah.jpg,cheetah,z,sounds/animalfarm_chinese.wav,,,,,,,,,0,0,0,1,0,43,43,82,186.167621028,9.62165086094e-06,187.148307487,0.980696722994,,,,,z,1,0.967154890621,2018_Nov_15_1538,59.9846862411,chinese_cond1,001,1039,
images/desktopcomputer.jpg,desktop computer,z,sounds/animalfarm_chinese.wav,,,,,,,,,0,0,0,1,0,44,44,16,188.372090413,9.30092937779e-06,190.132381731,1.76030093959,,,,,z,1,1.75067672279,2018_Nov_15_1538,59.9846862411,chinese_cond1,001,1039,
images/bus.jpg,microphone,x,sounds/animalfarm_chinese.wav,,,,,,,,,0,0,0,1,0,45,45,203,191.324459071,9.62165086094e-06,192.049550541,0.725101412202,,,,,x,1,0.717096519272,2018_Nov_15_1538,59.9846862411,chinese_cond1,001,1039,
images/microphone01.jpg,diaper,x,sounds/animalfarm_chinese.wav,,,,,,,,,0,0,0,1,0,46,46,164,193.213879039,9.30092937779e-06,194.283425616,1.06955683958,,,,,x,1,1.05049442457,2018_Nov_15_1538,59.9846862411,chinese_cond1,001,1039,
images/nailpolish02b.jpg,nail polish,z,sounds/animalfarm_chinese.wav,,,,,,,,,0,0,0,1,0,47,47,94,195.417038918,1.02630945094e-05,196.167251877,0.750223222304,,,,,z,1,0.733760577402,2018_Nov_15_1538,59.9846862411,chinese_cond1,001,1039,
images/weight01.jpg,weight,z,sounds/animalfarm_chinese.wav,,,,,,,,,0,0,0,1,0,48,48,67,197.360525188,8.98020766726e-06,198.167741298,0.807226052352,,,,,z,1,0.783756279731,2018_Nov_15_1538,59.9846862411,chinese_cond1,001,1039,
images/tissuebox03.jpg,tissue box,z,sounds/animalfarm_chinese.wav,,,,,,,,,0,0,0,1,0,49,49,58,199.376118357,9.30092937779e-06,200.018217634,0.642109540573,,,,,z,1,0.633733893356,2018_Nov_15_1538,59.9846862411,chinese_cond1,001,1039,
images/lettuce.jpg,mushroom,x,sounds/animalfarm_chinese.wav,,,,,,,,,0,0,0,1,0,50,50,205,201.198544693,9.62165086094e-06,201.835336347,0.636801596424,,,,,x,1,0.617050591924,2018_Nov_15_1538,59.9846862411,chinese_cond1,001,1039,
images/acousticguitar02.jpg,acoustic guitar,z,sounds/animalfarm_chinese.wav,,,,,,,,,0,0,0,1,0,51,51,97,203.008883991,8.98020766726e-06,203.802506312,0.793632263064,,,,,z,1,0.783764618495,2018_Nov_15_1538,59.9846862411,chinese_cond1,001,1039,
images/ladder.jpg,ladder,z,sounds/animalfarm_chinese.wav,,,,,,,,,0,0,0,1,0,52,52,113,204.963454724,9.30092937779e-06,205.702985406,0.739540623893,,,,,z,1,0.717072785866,2018_Nov_15_1538,59.9846862411,chinese_cond1,001,1039,
images/doorhandle.jpg,doll,x,sounds/animalfarm_chinese.wav,,,,,,,,,0,0,0,1,0,53,53,168,206.873965673,9.62165108831e-06,207.786840019,0.912884930185,,,,,x,1,0.900452153454,2018_Nov_15_1538,59.9846862411,chinese_cond1,001,1039,
images/redfox.jpg,red fox,z,sounds/animalfarm_chinese.wav,,,,,,,,,0,0,0,1,0,54,54,1,208.941562582,9.62165086094e-06,210.254142441,1.31258980208,,,,,z,1,1.30056113469,2018_Nov_15_1538,59.9846862411,chinese_cond1,001,1039,
images/antelope.jpg,antelope,z,sounds/animalfarm_chinese.wav,,,,,,,,,0,0,0,1,0,55,55,12,211.368851765,9.94237279883e-06,212.171287197,0.80244537468,,,,,z,1,0.783754996844,2018_Nov_15_1538,59.9846862411,chinese_cond1,001,1039,
images/sportshorts02.jpg,tape,x,sounds/animalfarm_chinese.wav,,,,,,,,,0,0,0,1,0,56,56,230,213.361537707,9.62165108831e-06,214.138450427,0.776922983174,,,,,x,1,0.767090938714,2018_Nov_15_1538,59.9846862411,chinese_cond1,001,1039,
images/worldmap.jpg,scooter,x,sounds/animalfarm_chinese.wav,,,,,,,,,0,0,0,1,0,57,57,220,215.336614744,8.98020766726e-06,216.138952035,0.80234723384,,,,,x,1,0.783741205811,2018_Nov_15_1538,59.9846862411,chinese_cond1,001,1039,
images/blueberry02.jpg,blueberry,z,sounds/animalfarm_chinese.wav,,,,,,,,,0,0,0,1,0,58,58,46,217.330680751,8.98020766726e-06,217.989434786,0.658763977052,,,,,z,1,0.650399555095,2018_Nov_15_1538,59.9846862411,chinese_cond1,001,1039,
images/tie01.jpg,bench,x,sounds/animalfarm_chinese.wav,,,,,,,,,0,0,0,1,0,59,59,130,219.151345363,9.62165086094e-06,220.256688972,1.1053538715,,,,,x,1,1.08385621661,2018_Nov_15_1538,59.9846862411,chinese_cond1,001,1039,
images/mailbox01.jpg,mail box,z,sounds/animalfarm_chinese.wav,,,,,,,,,0,0,0,1,0,60,60,73,221.412002625,9.62165086094e-06,222.390555323,0.978562961518,,,,,z,1,0.967149438352,2018_Nov_15_1538,59.9846862411,chinese_cond1,001,1039,
images/ear.jpg,bullet,x,sounds/animalfarm_chinese.wav,,,,,,,,,0,0,0,1,0,61,61,139,223.572265976,8.98020766726e-06,224.5244329,0.952176866472,,,,,x,1,0.933811700441,2018_Nov_15_1538,59.9846862411,chinese_cond1,001,1039,
images/pouch01b.jpg,pouch,z,sounds/animalfarm_chinese.wav,,,,,,,,,0,0,0,1,0,62,62,25,225.726031826,9.30092937779e-06,226.674969724,0.948947519667,,,,,z,1,0.933813945493,2018_Nov_15_1538,59.9846862411,chinese_cond1,001,1039,
images/dresser02.jpg,dresser,z,sounds/animalfarm_chinese.wav,,,,,,,,,0,0,0,1,0,63,63,87,227.880402557,9.30092937779e-06,228.725484995,0.845092059957,,,,,z,1,0.83377828124,2018_Nov_15_1538,59.9846862411,chinese_cond1,001,1039,
images/giraffe.jpg,lettuce,x,sounds/animalfarm_chinese.wav,,,,,,,,,0,0,0,1,0,64,64,195,229.88958963,9.94237279883e-06,231.092759772,1.20318040467,,,,,x,1,1.18387488262,2018_Nov_15_1538,59.9846862411,chinese_cond1,001,1039,
images/ruler02b.jpg,watermelon,x,sounds/animalfarm_chinese.wav,,,,,,,,,0,0,0,1,0,65,65,238,232.219169344,9.30092937779e-06,233.093439381,0.874280621225,,,,,x,1,0.850634451669,2018_Nov_15_1538,59.9846862411,chinese_cond1,001,1039,
images/skateboard.jpg,key,x,sounds/animalfarm_chinese.wav,,,,,,,,,0,0,0,1,0,66,66,189,234.251272624,9.62165086094e-06,235.060427496,0.809164815033,,,,,x,1,0.800441826215,2018_Nov_15_1538,59.9846862411,chinese_cond1,001,1039,
images/electricguitar02.jpg,electric guitar,z,sounds/animalfarm_chinese.wav,,,,,,,,,0,0,0,1,0,67,67,100,236.245330933,8.98020766726e-06,237.194309563,0.948988892766,,,,,z,1,0.93381522838,2018_Nov_15_1538,59.9846862411,chinese_cond1,001,1039,
images/lily.jpg,kiwi,x,sounds/animalfarm_chinese.wav,,,,,,,,,0,0,0,1,0,68,68,190,238.32826283,9.30092915041e-06,239.044771146,0.716517937323,,,,,x,1,0.700420273717,2018_Nov_15_1538,59.9846862411,chinese_cond1,001,1039,
images/parkfountain.jpg,park fountain,z,sounds/animalfarm_chinese.wav,,,,,,,,,0,0,0,1,0,69,69,93,240.231783649,9.30092937779e-06,241.161961893,0.930188186665,,,,,z,1,0.917116532306,2018_Nov_15_1538,59.9846862411,chinese_cond1,001,1039,
images/graduationcap.jpg,graduation cap,z,sounds/animalfarm_chinese.wav,,,,,,,,,0,0,0,1,0,70,70,35,242.348233529,9.62165108831e-06,243.379182532,1.03095894506,,,,,z,1,1.01715059295,2018_Nov_15_1538,59.9846862411,chinese_cond1,001,1039,
images/backpack01b.jpg,swallow,x,sounds/animalfarm_chinese.wav,,,,,,,,,0,0,0,1,0,71,71,228,244.560010879,9.30092937779e-06,246.046549227,1.48654861115,,,,,x,1,1.46728542435,2018_Nov_15_1538,59.9846862411,chinese_cond1,001,1039,
images/pictureframe04.jpg,picture frame,z,sounds/animalfarm_chinese.wav,,,,,,,,,0,0,0,1,0,72,72,41,247.238339521,8.65948595674e-06,248.313774227,1.07544464857,,,,,z,1,1.0671761224,2018_Nov_15_1538,59.9846862411,chinese_cond1,001,1039,
images/floorlamp.jpg,floor lamp,z,sounds/animalfarm_chinese.wav,,,,,,,,,0,0,0,1,0,73,73,26,249.426886357,8.98020766726e-06,252.21476359,2.78788749596,,,,,z,1,2.76760248983,2018_Nov_15_1538,59.9846862411,chinese_cond1,001,1039,
images/lipstick04.jpg,lipstick,z,sounds/animalfarm_chinese.wav,,,,,,,,,0,0,0,1,0,74,74,56,253.384674249,9.62165108831e-06,254.065229983,0.680565996829,,,,,z,1,0.667062330338,2018_Nov_15_1538,59.9846862411,chinese_cond1,001,1039,
images/puzzle.jpg,puzzle,z,sounds/animalfarm_chinese.wav,,,,,,,,,0,0,0,1,0,75,75,57,255.246807857,9.30092937779e-06,255.915698942,0.668901348571,,,,,z,1,0.650401479425,2018_Nov_15_1538,59.9846862411,chinese_cond1,001,1039,
images/apple06.jpg,apple,z,sounds/animalfarm_chinese.wav,,,,,,,,,0,0,0,1,0,76,76,13,257.111460092,9.30092937779e-06,259.06649523,1.95504540136,,,,,z,1,1.93404229934,2018_Nov_15_1538,59.9846862411,chinese_cond1,001,1039,
images/pipe.jpg,icecube,x,sounds/animalfarm_chinese.wav,,,,,,,,,0,0,0,1,0,77,77,188,260.242643286,9.30092937779e-06,261.283711058,1.04107803544,,,,,x,1,1.0171483479,2018_Nov_15_1538,59.9846862411,chinese_cond1,001,1039,
images/beermug01b.jpg,beer mug,z,sounds/animalfarm_chinese.wav,,,,,,,,,0,0,0,1,0,78,78,111,262.479786194,9.30092937779e-06,263.851048183,1.37127257239,,,,,z,1,1.35058185331,2018_Nov_15_1538,59.9846862411,chinese_cond1,001,1039,
images/gps.jpg,gps,z,sounds/animalfarm_chinese.wav,,,,,,,,,0,0,0,1,0,79,79,21,265.053546733,9.30092937779e-06,266.118282163,1.06474505191,,,,,z,1,1.05050212189,2018_Nov_15_1538,59.9846862411,chinese_cond1,001,1039,
images/handfan01b.jpg,handfan,z,sounds/animalfarm_chinese.wav,,,,,,,,,0,0,0,1,0,80,80,69,267.294417711,9.30092937779e-06,268.452214712,1.1578069435,,,,,z,1,1.13386570998,2018_Nov_15_1538,59.9846862411,chinese_cond1,001,1039,
images/knife04.jpg,tooth brush,x,sounds/animalfarm_chinese.wav,,,,,,,,,0,0,0,1,0,81,81,233,269.626789627,9.30092915041e-06,272.136475102,2.50969573774,,,,,x,1,2.50087685313,2018_Nov_15_1538,59.9846862411,chinese_cond1,001,1039,
images/egg01b (1).jpg,egg,z,sounds/animalfarm_chinese.wav,,,,,,,,,0,0,0,1,0,82,82,19,273.333582962,1.09045379304e-05,274.036936235,0.70336449893,,,,,z,1,0.683703296506,2018_Nov_15_1538,59.9846862411,chinese_cond1,001,1039,
images/cake.jpg,cake,z,sounds/animalfarm_chinese.wav,,,,,,,,,0,0,0,1,0,83,83,23,275.202105346,9.62165108831e-06,276.570925038,1.36883027664,,,,,z,1,1.35058121187,2018_Nov_15_1538,59.9846862411,chinese_cond1,001,1039,
images/axe01.jpg,axe,z,sounds/animalfarm_chinese.wav,,,,,,,,,0,0,0,1,0,84,84,104,277.755396784,9.30092915041e-06,278.588111873,0.832725031174,,,,,z,1,0.817121278987,2018_Nov_15_1538,59.9846862411,chinese_cond1,001,1039,
images/charcoalbarbecue.jpg,charcoal barbecue,z,sounds/animalfarm_chinese.wav,,,,,,,,,0,0,0,1,0,85,85,77,279.772760336,8.98020743989e-06,280.771998301,0.999247907612,,,,,z,1,0.98382632535,2018_Nov_15_1538,59.9846862411,chinese_cond1,001,1039,
images/sock03.jpg,sock,z,sounds/animalfarm_chinese.wav,,,,,,,,,0,0,0,1,0,86,86,90,281.955283056,9.30092937779e-06,282.605793581,0.650520787898,,,,,z,1,0.633735496965,2018_Nov_15_1538,59.9846862411,chinese_cond1,001,1039,
images/pen03c.jpg,pepper,x,sounds/animalfarm_chinese.wav,,,,,,,,,0,0,0,1,0,87,87,211,283.762990512,9.30092937779e-06,284.78968033,1.02670040231,,,,,x,1,1.01716630831,2018_Nov_15_1538,59.9846862411,chinese_cond1,001,1039,
images/volleyball.jpg,volley ball,z,sounds/animalfarm_chinese.wav,,,,,,,,,0,0,0,1,0,88,88,2,285.919769863,9.30092937779e-06,286.623476572,0.703716972079,,,,,z,1,0.683750121874,2018_Nov_15_1538,59.9846862411,chinese_cond1,001,1039,
images/orange.jpg,bat,x,sounds/animalfarm_chinese.wav,,,,,,,,,0,0,0,1,0,89,89,128,287.818118723,9.62165108831e-06,288.657309504,0.839201043757,,,,,x,1,0.817102356406,2018_Nov_15_1538,59.9846862411,chinese_cond1,001,1039,
images/cloud.jpg,ceiling fan,x,sounds/animalfarm_chinese.wav,,,,,,,,,0,0,0,1,0,90,90,149,289.831348173,8.98020766726e-06,290.741188813,0.909850902896,,,,,x,1,0.900446380463,2018_Nov_15_1538,59.9846862411,chinese_cond1,001,1039,
images/hairdryer03a.jpg,hairdryer,z,sounds/animalfarm_chinese.wav,,,,,,,,,0,0,0,1,0,91,91,119,291.916213059,9.30092937779e-06,292.591653603,0.675450485701,,,,,z,1,0.667076121371,2018_Nov_15_1538,59.9846862411,chinese_cond1,001,1039,
images/screwdriver02b.jpg,cola,x,sounds/animalfarm_chinese.wav,,,,,,,,,0,0,0,1,0,92,92,158,293.749567346,9.30092937779e-06,295.459041273,1.7094841897,,,,,x,1,1.70067011592,2018_Nov_15_1538,59.9846862411,chinese_cond1,001,1039,
images/lightbulb03b.jpg,treadmill,x,sounds/animalfarm_chinese.wav,,,,,,,,,0,0,0,1,0,93,93,234,296.58983062,9.30092937779e-06,297.559592337,0.969772300421,,,,,x,1,0.950497567647,2018_Nov_15_1538,59.9846862411,chinese_cond1,001,1039,
images/aloe02.jpg,broad sword,x,sounds/animalfarm_chinese.wav,,,,,,,,,0,0,0,1,0,94,94,137,298.771581043,8.98020766726e-06,299.476725868,0.705154767464,,,,,x,1,0.683744990327,2018_Nov_15_1538,59.9846862411,chinese_cond1,001,1039,
images/dryingmachine01.jpg,drying machine,z,sounds/animalfarm_chinese.wav,,,,,,,,,0,0,0,1,0,95,95,18,300.672657962,9.30092937779e-06,301.527247233,0.854599213334,,,,,z,1,0.833788865056,2018_Nov_15_1538,59.9846862411,chinese_cond1,001,1039,
images/medal01.jpg,medal,z,sounds/animalfarm_chinese.wav,,,,,,,,,0,0,0,1,0,96,96,115,302.692708841,9.30092937779e-06,303.594427845,0.901729267266,,,,,z,1,0.88378937821,2018_Nov_15_1538,59.9846862411,chinese_cond1,001,1039,
images/stapler03a.jpg,candy cane,x,sounds/animalfarm_chinese.wav,,,,,,,,,0,0,0,1,0,97,97,145,304.7802633,9.30092937779e-06,305.578253208,0.797999530464,,,,,x,1,0.783757241896,2018_Nov_15_1538,59.9846862411,chinese_cond1,001,1039,
images/teapot.jpg,light switch,x,sounds/animalfarm_chinese.wav,,,,,,,,,0,0,0,1,0,98,98,197,306.724564203,8.98020766726e-06,308.128921144,1.40436656181,,,,,x,1,1.38393017504,2018_Nov_15_1538,59.9846862411,chinese_cond1,001,1039,
images/raisin.jpg,ruler,x,sounds/animalfarm_chinese.wav,,,,,,,,,0,0,0,1,0,99,99,218,309.304739818,9.30092937779e-06,310.212770304,0.908040108173,,,,,x,1,0.883780718725,2018_Nov_15_1538,59.9846862411,chinese_cond1,001,1039,
images/coin01b.jpg,arrow,x,sounds/animalfarm_chinese.wav,,,,,,,,,0,0,0,1,0,100,100,124,311.391329225,8.98020766726e-06,312.429985811,1.03866717041,,,,,x,1,1.01713904697,2018_Nov_15_1538,59.9846862411,chinese_cond1,001,1039,
images/hanger02a.jpg,hanger,z,sounds/animalfarm_chinese.wav,,,,,,,,,0,0,0,1,0,101,101,88,313.587477165,8.98020766726e-06,314.330487035,0.743019812904,,,,,z,1,0.73376410534,2018_Nov_15_1538,59.9846862411,chinese_cond1,001,1039,
images/nametag01a.jpg,name tag,z,sounds/animalfarm_chinese.wav,,,,,,,,,0,0,0,1,0,102,102,108,315.522081368,9.30092937779e-06,316.164268203,0.642196456153,,,,,z,1,0.633705669846,2018_Nov_15_1538,59.9846862411,chinese_cond1,001,1039,
images/lychee02a.jpg,lychee,z,sounds/animalfarm_chinese.wav,,,,,,,,,0,0,0,1,0,103,103,62,317.365342107,9.30092937779e-06,318.464854675,1.09952250953,,,,,z,1,1.08381291918,2018_Nov_15_1538,59.9846862411,chinese_cond1,001,1039,
images/grasshopper.jpg,cauliflower,x,sounds/animalfarm_chinese.wav,,,,,,,,,0,0,0,1,0,104,104,148,319.577220164,9.30092915041e-06,320.432023677,0.85481345543,,,,,x,1,0.833774111858,2018_Nov_15_1538,59.9846862411,chinese_cond1,001,1039,
images/rubberglove02a.jpg,lady bug,x,sounds/animalfarm_chinese.wav,,,,,,,,,0,0,0,1,0,105,105,192,321.576859673,9.62165086094e-06,322.415868925,0.839019515274,,,,,x,1,0.817114223109,2018_Nov_15_1538,59.9846862411,chinese_cond1,001,1039,
images/toothbrush03a.jpg,parrot,x,sounds/animalfarm_chinese.wav,,,,,,,,,0,0,0,1,0,106,106,210,323.58455539,8.98020743989e-06,324.349688002,0.765142554382,,,,,x,1,0.750433936461,2018_Nov_15_1538,59.9846862411,chinese_cond1,001,1039,
images/magnifyingglass01b.jpg,magnifying glass,z,sounds/animalfarm_chinese.wav,,,,,,,,,0,0,0,1,0,107,107,64,325.521459168,9.30092937779e-06,326.366868743,0.845419837535,,,,,z,1,0.83378405423,2018_Nov_15_1538,59.9846862411,chinese_cond1,001,1039,
images/flower01.jpg,bus,x,sounds/animalfarm_chinese.wav,,,,,,,,,0,0,0,1,0,108,108,140,327.520260631,9.62165108831e-06,328.684127932,1.16387756385,,,,,x,1,1.15053971048,2018_Nov_15_1538,59.9846862411,chinese_cond1,001,1039,
images/chessknight02b (1).jpg,cockroach,x,sounds/animalfarm_chinese.wav,,,,,,,,,0,0,0,1,0,109,109,155,329.822692215,9.62165108831e-06,330.751317525,0.928636214355,,,,,x,1,0.917154377466,2018_Nov_15_1538,59.9846862411,chinese_cond1,001,1039,
images/printer03a.jpg,printer,z,sounds/animalfarm_chinese.wav,,,,,,,,,0,0,0,1,0,110,110,72,331.92893224,1.0263094282e-05,332.851843572,0.922921915812,,,,,z,1,0.900375180246,2018_Nov_15_1538,59.9846862411,chinese_cond1,001,1039,
images/tulip02.jpg,sport shorts,x,sounds/animalfarm_chinese.wav,,,,,,,,,0,0,0,1,0,111,111,225,334.012230401,9.30092915041e-06,335.502509968,1.49028982979,,,,,x,1,1.46728157569,2018_Nov_15_1538,59.9846862411,chinese_cond1,001,1039,
images/flashlight05.jpg,flash light,z,sounds/animalfarm_chinese.wav,,,,,,,,,0,0,0,1,0,112,112,8,336.686414036,9.30092937779e-06,337.41965761,0.733254157836,,,,,z,1,0.717085935456,2018_Nov_15_1538,59.9846862411,chinese_cond1,001,1039,
images/djmixer01.jpg,light bulb,x,sounds/animalfarm_chinese.wav,,,,,,,,,0,0,0,1,0,113,113,196,338.603105292,9.30092937779e-06,339.520200015,0.917104986325,,,,,x,1,0.900469472426,2018_Nov_15_1538,59.9846862411,chinese_cond1,001,1039,
images/mattress.jpg,cat,x,sounds/animalfarm_chinese.wav,,,,,,,,,0,0,0,1,0,114,114,147,340.687523733,9.30092937779e-06,341.854117489,1.16660401903,,,,,x,1,1.15052880594,2018_Nov_15_1538,59.9846862411,chinese_cond1,001,1039,
images/croissant02b.jpg,croissant,z,sounds/animalfarm_chinese.wav,,,,,,,,,0,0,0,1,0,115,115,39,342.990622739,9.62165108831e-06,344.0213312,1.03071904522,,,,,z,1,1.01716278037,2018_Nov_15_1538,59.9846862411,chinese_cond1,001,1039,
images/arrow02.jpg,hammer,x,sounds/animalfarm_chinese.wav,,,,,,,,,0,0,0,1,0,116,116,184,345.137458434,9.30092937779e-06,346.505296719,1.36784886824,,,,,x,1,1.35058666414,2018_Nov_15_1538,59.9846862411,chinese_cond1,001,1039,
images/comb02a.jpg,diploma,x,sounds/animalfarm_chinese.wav,,,,,,,,,0,0,0,1,0,117,117,166,347.697595357,9.30092937779e-06,348.655839957,0.958254863424,,,,,x,1,0.93380785178,2018_Nov_15_1538,59.9846862411,chinese_cond1,001,1039,
images/highheelshoe02a.jpg,high heel shoe,z,sounds/animalfarm_chinese.wav,,,,,,,,,0,0,0,1,0,118,118,75,349.842644953,8.98020766726e-06,350.506307634,0.663672622682,,,,,z,1,0.650401479425,2018_Nov_15_1538,59.9846862411,chinese_cond1,001,1039,
images/fireextinguisher02.jpg,fire extinguisher,z,sounds/animalfarm_chinese.wav,,,,,,,,,0,0,0,1,0,119,119,175,351.697661746,8.98020766726e-06,352.440138898,0.742487414881,,,,,x,0,0.733715997085,2018_Nov_15_1538,59.9846862411,chinese_cond1,001,1039,
images/radio03a.jpg,radio,z,sounds/animalfarm_chinese.wav,,,,,,,,,0,0,0,1,0,120,120,37,353.617334431,9.62165108831e-06,354.523984531,0.906660684138,,,,,z,1,0.883790981819,2018_Nov_15_1538,59.9846862411,chinese_cond1,001,1039,
images/grandpiano.jpg,tulip,x,sounds/animalfarm_chinese.wav,,,,,,,,,0,0,0,1,0,121,121,236,355.70740014,9.30092937779e-06,356.391133584,0.683743386719,,,,,x,1,0.667078045702,2018_Nov_15_1538,59.9846862411,chinese_cond1,001,1039,
images/cauliflower01.jpg,glue stick,x,sounds/animalfarm_chinese.wav,,,,,,,,,0,0,0,1,0,122,122,181,357.583491877,9.62165108831e-06,358.258286166,0.674804231474,,,,,x,1,0.650417836232,2018_Nov_15_1538,59.9846862411,chinese_cond1,001,1039,
images/peach01.jpg,peach,z,sounds/animalfarm_chinese.wav,,,,,,,,,0,0,0,1,0,123,123,106,359.452354867,8.98020743989e-06,360.375450614,0.923105368625,,,,,z,1,0.900421364171,2018_Nov_15_1538,59.9846862411,chinese_cond1,001,1039,
images/doll.jpg,carrot,x,sounds/animalfarm_chinese.wav,,,,,,,,,0,0,0,1,0,124,124,146,361.550686216,9.30092937779e-06,362.476004565,0.925328290733,,,,,x,1,0.91714379365,2018_Nov_15_1538,59.9846862411,chinese_cond1,001,1039,
images/fork01.jpg,cooking pot,x,sounds/animalfarm_chinese.wav,,,,,,,,,0,0,0,1,0,125,125,160,363.636936941,9.62165086094e-06,364.509846798,0.872920440492,,,,,x,1,0.85044618803,2018_Nov_15_1538,59.9846862411,chinese_cond1,001,1039,
images/candle08a.jpg,screw driver,x,sounds/animalfarm_chinese.wav,,,,,,,,,0,0,0,1,0,126,126,221,365.689715546,9.30092937779e-06,366.693737716,1.00403275467,,,,,x,1,0.983820231638,2018_Nov_15_1538,59.9846862411,chinese_cond1,001,1039,
images/lantern03.jpg,lantern,z,sounds/animalfarm_chinese.wav,,,,,,,,,0,0,0,1,0,127,127,5,367.856140602,9.30092915041e-06,368.977645377,1.12151439656,,,,,z,1,1.10051129454,2018_Nov_15_1538,59.9846862411,chinese_cond1,001,1039,
images/atm.jpg,atm,z,sounds/animalfarm_chinese.wav,,,,,,,,,0,0,0,1,0,128,128,96,370.181934837,9.30092937779e-06,370.911462209,0.729536672602,,,,,z,1,0.717085935455,2018_Nov_15_1538,59.9846862411,chinese_cond1,001,1039,
images/parkingmeter.jpg,ear,x,sounds/animalfarm_chinese.wav,,,,,,,,,0,0,0,1,0,129,129,171,372.094388397,9.30092915041e-06,373.778855973,1.68447783941,,,,,x,1,1.66731954914,2018_Nov_15_1538,59.9846862411,chinese_cond1,001,1039,
images/ladybug03.jpg,giraffe,x,sounds/animalfarm_chinese.wav,,,,,,,,,0,0,0,1,0,130,130,178,374.956350418,9.30092937779e-06,375.879387473,0.923047317997,,,,,x,1,0.900463057992,2018_Nov_15_1538,59.9846862411,chinese_cond1,001,1039,
images/bowl02b (1).jpg,bowl,z,sounds/animalfarm_chinese.wav,,,,,,,,,0,0,0,1,0,131,131,24,377.060541673,8.98020766726e-06,378.046607278,0.986075225916,,,,,z,1,0.967151683404,2018_Nov_15_1538,59.9846862411,chinese_cond1,001,1039,
images/thumbtack02a.jpg,thumb tack,z,sounds/animalfarm_chinese.wav,,,,,,,,,0,0,0,1,0,132,132,60,379.19641927,9.62165108831e-06,380.09711838,0.900709692979,,,,,z,1,0.883788736767,2018_Nov_15_1538,59.9846862411,chinese_cond1,001,1039,
images/broadsword.jpg,teapot,x,sounds/animalfarm_chinese.wav,,,,,,,,,0,0,0,1,0,133,133,231,381.256365043,9.94237257146e-06,382.047608571,0.791253470209,,,,,z,0,0.767086127888,2018_Nov_15_1538,59.9846862411,chinese_cond1,001,1039,
images/calculator02b.jpg,dice,x,sounds/animalfarm_chinese.wav,,,,,,,,,0,0,0,1,0,134,134,165,383.222323321,9.62165108831e-06,384.631593397,1.40928065971,,,,,x,1,1.40058172502,2018_Nov_15_1538,59.9846862411,chinese_cond1,001,1039,
images/plate01b.jpg,plate,z,sounds/animalfarm_chinese.wav,,,,,,,,,0,0,0,1,0,135,135,3,385.755478247,9.30092937779e-06,386.765474181,1.01000587562,,,,,z,1,1.00046151853,2018_Nov_15_1538,59.9846862411,chinese_cond1,001,1039,
images/cocktailshrimp01.jpg,cocktail shrimp,z,sounds/animalfarm_chinese.wav,,,,,,,,,0,0,0,1,0,136,136,30,387.953702219,1.02630945094e-05,388.765986373,0.812294738111,,,,,z,1,0.800428035182,2018_Nov_15_1538,59.9846862411,chinese_cond1,001,1039,
images/bandaid01.jpg,door handle,x,sounds/animalfarm_chinese.wav,,,,,,,,,0,0,0,1,0,137,137,170,389.944002953,9.30092937779e-06,390.749818472,0.805825460685,,,,,x,1,0.783768146434,2018_Nov_15_1538,59.9846862411,chinese_cond1,001,1039,
images/apricot.jpg,apricot,z,sounds/animalfarm_chinese.wav,,,,,,,,,0,0,0,1,0,138,138,32,391.922555972,1.0263094282e-05,393.233778538,1.31123282856,,,,,z,1,1.30050212189,2018_Nov_15_1538,59.9846862411,chinese_cond1,001,1039,
images/licenseplate.jpg,license plate,z,sounds/animalfarm_chinese.wav,,,,,,,,,0,0,0,1,0,139,139,40,394.384477326,9.62165086094e-06,395.28440093,0.899933867185,,,,,z,1,0.883890084825,2018_Nov_15_1538,59.9846862411,chinese_cond1,001,1039,
images/safe.jpg,safe,z,sounds/animalfarm_chinese.wav,,,,,,,,,0,0,0,1,0,140,140,78,396.480044054,9.62165108831e-06,397.184777073,0.704742319357,,,,,z,1,0.683738896615,2018_Nov_15_1538,59.9846862411,chinese_cond1,001,1039,
images/wallet01.jpg,lamp,x,sounds/animalfarm_chinese.wav,,,,,,,,,0,0,0,1,0,141,141,193,398.359506255,9.30092937779e-06,399.035248277,0.6757519641,,,,,x,1,0.667076762815,2018_Nov_15_1538,59.9846862411,chinese_cond1,001,1039,
images/coffeepot03b.jpg,coffee pot,z,sounds/animalfarm_chinese.wav,,,,,,,,,0,0,0,1,0,142,142,107,400.225796737,9.30092937779e-06,401.102423758,0.876637284283,,,,,z,1,0.867094851519,2018_Nov_15_1538,59.9846862411,chinese_cond1,001,1039,
images/cherry01.jpg,highlighter,x,sounds/animalfarm_chinese.wav,,,,,,,,,0,0,0,1,0,143,143,187,402.284212346,8.98020766726e-06,402.952890472,0.66868806864,,,,,x,1,0.650385764062,2018_Nov_15_1538,59.9846862411,chinese_cond1,001,1039,
images/donut.jpg,rhinoceros,x,sounds/animalfarm_chinese.wav,,,,,,,,,0,0,0,1,0,144,144,216,404.142095429,9.30092937779e-06,405.153453788,1.01136862213,,,,,x,1,1.00046568791,2018_Nov_15_1538,59.9846862411,chinese_cond1,001,1039,
images/watermelon01.jpg,orange,x,sounds/animalfarm_chinese.wav,,,,,,,,,0,0,0,1,0,145,145,207,406.346121256,9.94237257146e-06,407.220636966,0.874525973326,,,,,x,1,0.850436245657,2018_Nov_15_1538,59.9846862411,chinese_cond1,001,1039,
images/parrot01.jpg,chameleon,x,sounds/animalfarm_chinese.wav,,,,,,,,,0,0,0,1,0,146,146,150,408.398822887,1.02630945094e-05,409.054434491,0.655621866549,,,,,x,1,0.633712725724,2018_Nov_15_1538,59.9846862411,chinese_cond1,001,1039,
images/leek.jpg,donut,x,sounds/animalfarm_chinese.wav,,,,,,,,,0,0,0,1,0,147,147,169,410.186828729,8.65948572937e-06,410.97158951,0.784770081027,,,,,x,1,0.767082279228,2018_Nov_15_1538,59.9846862411,chinese_cond1,001,1039,
images/hammer02a.jpg,flower,x,sounds/animalfarm_chinese.wav,,,,,,,,,0,0,0,1,0,148,148,176,412.137942404,9.30092915041e-06,412.855404225,0.717471763661,,,,,x,1,0.700406161962,2018_Nov_15_1538,59.9846862411,chinese_cond1,001,1039,
images/swan.jpg,swan,z,sounds/animalfarm_chinese.wav,,,,,,,,,0,0,0,1,0,149,149,54,414.019792057,9.30092937779e-06,415.439383599,1.41960116332,,,,,z,1,1.40056985832,2018_Nov_15_1538,59.9846862411,chinese_cond1,001,1039,
images/eyedrops.jpg,bicycle,x,sounds/animalfarm_chinese.wav,,,,,,,,,0,0,0,1,0,150,150,131,416.564186996,9.30092937779e-06,417.323217557,0.759040503302,,,,,x,1,0.750417258933,2018_Nov_15_1538,59.9846862411,chinese_cond1,001,1039,
images/bull.jpg,button,x,sounds/animalfarm_chinese.wav,,,,,,,,,0,0,0,1,0,151,151,141,418.503297661,8.98020743989e-06,419.223703707,0.720416309596,,,,,x,1,0.700418028665,2018_Nov_15_1538,59.9846862411,chinese_cond1,001,1039,
images/lip.jpg,boxing glove,x,sounds/animalfarm_chinese.wav,,,,,,,,,0,0,0,1,0,152,152,136,420.400439325,9.94237257146e-06,421.024136553,0.623707491546,,,,,x,1,0.600371780596,2018_Nov_15_1538,59.9846862411,chinese_cond1,001,1039,
images/marker01a.jpg,marker,z,sounds/animalfarm_chinese.wav,,,,,,,,,0,0,0,1,0,153,153,95,422.189538828,9.30092937779e-06,423.424757085,1.23522852063,,,,,z,1,1.21721326197,2018_Nov_15_1538,59.9846862411,chinese_cond1,001,1039,
images/banjo.jpg,knife,x,sounds/animalfarm_chinese.wav,,,,,,,,,0,0,0,1,0,154,154,191,424.557297573,9.62165108831e-06,425.225196025,0.667909035628,,,,,x,1,0.650386084784,2018_Nov_15_1538,59.9846862411,chinese_cond1,001,1039,
images/gorilla.jpg,gorilla,z,sounds/animalfarm_chinese.wav,,,,,,,,,0,0,0,1,0,155,155,80,426.408197583,9.30092937779e-06,427.092349889,0.684162890703,,,,,z,1,0.667074517763,2018_Nov_15_1538,59.9846862411,chinese_cond1,001,1039,
images/gamecontroller01.jpg,game controller,z,sounds/animalfarm_chinese.wav,,,,,,,,,0,0,0,1,0,156,156,112,428.28639165,8.65948595674e-06,429.576317012,1.2899349833,,,,,z,1,1.26722596255,2018_Nov_15_1538,59.9846862411,chinese_cond1,001,1039,
images/parkbench03.jpg,park bench,z,sounds/animalfarm_chinese.wav,,,,,,,,,0,0,0,1,0,157,157,71,430.756675181,9.94237279883e-06,431.643513981,0.886849383958,,,,,z,1,0.867134300288,2018_Nov_15_1538,59.9846862411,chinese_cond1,001,1039,
images/hairband.jpg,hairband,z,sounds/animalfarm_chinese.wav,,,,,,,,,0,0,0,1,0,158,158,66,432.824223661,9.30092937779e-06,433.727375008,0.903161610382,,,,,z,1,0.883806697182,2018_Nov_15_1538,59.9846862411,chinese_cond1,001,1039,
images/toucan.jpg,toucan,z,sounds/animalfarm_chinese.wav,,,,,,,,,0,0,0,1,0,159,159,81,434.829261558,9.30092937779e-06,435.87788842,1.04863680448,,,,,z,1,1.03381272675,2018_Nov_15_1538,59.9846862411,chinese_cond1,001,1039,
images/paintbrush03a.jpg,paint brush,z,sounds/animalfarm_chinese.wav,,,,,,,,,0,0,0,1,0,160,160,0,437.022210299,8.65948595674e-06,438.195155306,1.1729543087,,,,,z,1,1.15052656089,2018_Nov_15_1538,59.9846862411,chinese_cond1,001,1039,
images/cat.jpg,black olive,x,sounds/animalfarm_chinese.wav,,,,,,,,,0,0,0,1,0,161,161,133,439.401337345,8.98020766726e-06,440.479067777,1.07774069522,,,,,x,1,1.06714437095,2018_Nov_15_1538,59.9846862411,chinese_cond1,001,1039,
images/globe.jpg,cloud,x,sounds/animalfarm_chinese.wav,,,,,,,,,0,0,0,1,0,162,162,154,441.674763179,9.30092937779e-06,442.729642511,1.05488895332,,,,,x,1,1.03383229077,2018_Nov_15_1538,59.9846862411,chinese_cond1,001,1039,
images/8ball.jpg,nail clipper,x,sounds/animalfarm_chinese.wav,,,,,,,,,0,0,0,1,0,163,163,206,443.899720587,1.05838162199e-05,444.630103644,0.730393640987,,,,,x,1,0.717032374931,2018_Nov_15_1538,59.9846862411,chinese_cond1,001,1039,
images/basketball01.jpg,basket ball,z,sounds/animalfarm_chinese.wav,,,,,,,,,0,0,0,1,0,164,164,33,445.840413693,9.30092915041e-06,446.663954216,0.823549504036,,,,,z,1,0.800423545078,2018_Nov_15_1538,59.9846862411,chinese_cond1,001,1039,
images/belt02a.jpg,snowman,x,sounds/animalfarm_chinese.wav,,,,,,,,,0,0,0,1,0,165,165,224,447.842045845,9.62165108831e-06,448.781185054,0.939149471707,,,,,x,1,0.917150849528,2018_Nov_15_1538,59.9846862411,chinese_cond1,001,1039,
images/razor04a.jpg,razor,z,sounds/animalfarm_chinese.wav,,,,,,,,,0,0,0,1,0,166,166,36,449.954842705,8.98020766726e-06,450.848341612,0.893508849353,,,,,z,1,0.88377975656,2018_Nov_15_1538,59.9846862411,chinese_cond1,001,1039,
images/lemon02.jpg,lemon,z,sounds/animalfarm_chinese.wav,,,,,,,,,0,0,0,1,0,167,167,14,452.030900253,2.50162927387e-05,452.715504777,0.684630182221,,,,,z,1,0.667072914154,2018_Nov_15_1538,59.9846862411,chinese_cond1,001,1039,
images/pineapple01a.jpg,pineapple,z,sounds/animalfarm_chinese.wav,,,,,,,,,0,0,0,1,0,168,168,51,453.906484608,9.94237257146e-06,454.482609186,0.576134841666,,,,,z,1,0.567042381448,2018_Nov_15_1538,59.9846862411,chinese_cond1,001,1039,
images/mitten01.jpg,mitten,z,sounds/animalfarm_chinese.wav,,,,,,,,,0,0,0,1,0,169,169,102,455.631295446,9.62165108831e-06,456.549960744,0.918692558743,,,,,z,1,0.900558633059,2018_Nov_15_1538,59.9846862411,chinese_cond1,001,1039,
images/masquerademask02b.jpg,mirror,x,sounds/animalfarm_chinese.wav,,,,,,,,,0,0,0,1,0,170,170,204,457.726520285,9.30092915041e-06,458.516948538,0.790437554202,,,,,x,1,0.767077789124,2018_Nov_15_1538,59.9846862411,chinese_cond1,001,1039,
images/paperclip04.jpg,eye drops,x,sounds/animalfarm_chinese.wav,,,,,,,,,0,0,0,1,0,171,171,174,459.682426183,9.30092915041e-06,460.567484015,0.885067454188,,,,,x,1,0.867082022651,2018_Nov_15_1538,59.9846862411,chinese_cond1,001,1039,
images/bat.jpg,hand,x,sounds/animalfarm_chinese.wav,,,,,,,,,0,0,0,1,0,172,172,185,461.734169498,9.30092937779e-06,463.484892404,1.75073316981,,,,,x,1,1.73401138177,2018_Nov_15_1538,59.9846862411,chinese_cond1,001,1039,
images/computermouse02a.jpg,world map,x,sounds/animalfarm_chinese.wav,,,,,,,,,0,0,0,1,0,173,173,239,464.657803736,9.30092915041e-06,465.385374064,0.727580911671,,,,,x,1,0.717088501229,2018_Nov_15_1538,59.9846862411,chinese_cond1,001,1039,
images/beachumbrella01.jpg,beach umbrella,z,sounds/animalfarm_chinese.wav,,,,,,,,,0,0,0,1,0,174,174,92,466.566431086,9.62165108831e-06,467.385898123,0.819478262766,,,,,z,1,0.800452730753,2018_Nov_15_1538,59.9846862411,chinese_cond1,001,1039,
images/bench02.jpg,electric toothbrush,x,sounds/animalfarm_chinese.wav,,,,,,,,,0,0,0,1,0,175,175,172,468.572026076,9.94237279883e-06,469.336381259,0.764367049309,,,,,x,1,0.750432974296,2018_Nov_15_1538,59.9846862411,chinese_cond1,001,1039,
images/flipflop01b.jpg,flip flop,z,sounds/animalfarm_chinese.wav,,,,,,,,,0,0,0,1,0,176,176,27,470.518435404,9.30092937779e-06,471.08680429,0.568378828776,,,,,z,1,0.550362607955,2018_Nov_15_1538,59.9846862411,chinese_cond1,001,1039,
images/bowlingball.jpg,bowling ball,z,sounds/animalfarm_chinese.wav,,,,,,,,,0,0,0,1,0,177,177,20,472.284050061,9.62165108831e-06,473.087316483,0.803276685328,,,,,z,1,0.783757883339,2018_Nov_15_1538,59.9846862411,chinese_cond1,001,1039,
images/icecube02 (2).jpg,aloe,x,sounds/animalfarm_chinese.wav,,,,,,,,,0,0,0,1,0,178,178,122,474.273346295,9.30092915041e-06,475.237875437,0.964539405151,,,,,x,1,0.950487304552,2018_Nov_15_1538,59.9846862411,chinese_cond1,001,1039,
images/saltshaker03c.jpg,salt shaker,z,sounds/animalfarm_chinese.wav,,,,,,,,,0,0,0,1,0,179,179,63,476.414458712,9.62165108831e-06,477.221687009,0.807238239777,,,,,z,1,0.783753393235,2018_Nov_15_1538,59.9846862411,chinese_cond1,001,1039,
images/chameleon.jpg,50 dollar bill,x,sounds/animalfarm_chinese.wav,,,,,,,,,0,0,0,1,0,180,180,120,478.40060161,9.62165108831e-06,479.338905018,0.938313670955,,,,,x,1,0.917136417051,2018_Nov_15_1538,59.9846862411,chinese_cond1,001,1039,
images/daisy.jpg,daisy,z,sounds/animalfarm_chinese.wav,,,,,,,,,0,0,0,1,0,181,181,6,480.526570189,9.30092915041e-06,481.255881715,0.729321789063,,,,,z,1,0.716898633982,2018_Nov_15_1538,59.9846862411,chinese_cond1,001,1039,
images/headphones02b.jpg,headphones,z,sounds/animalfarm_chinese.wav,,,,,,,,,0,0,0,1,0,182,182,101,482.433848263,9.62165108831e-06,483.089841204,0.65600288393,,,,,z,1,0.633708877064,2018_Nov_15_1538,59.9846862411,chinese_cond1,001,1039,
images/honeycomb.jpg,honey comb,z,sounds/animalfarm_chinese.wav,,,,,,,,,0,0,0,1,0,183,183,59,484.236579721,9.94237257146e-06,484.82363642,0.587066640838,,,,,z,1,0.567056813925,2018_Nov_15_1538,59.9846862411,chinese_cond1,001,1039,
images/bullet (2).jpg,rubber glove,x,sounds/animalfarm_chinese.wav,,,,,,,,,0,0,0,1,0,184,184,217,485.994878074,9.30092937779e-06,486.624069266,0.629201454281,,,,,x,1,0.617041932438,2018_Nov_15_1538,59.9846862411,chinese_cond1,001,1039,
images/puma.jpg,puma,z,sounds/animalfarm_chinese.wav,,,,,,,,,0,0,0,1,0,185,185,4,487.722539487,9.30092937779e-06,488.374520521,0.651990655453,,,,,z,1,0.633731006861,2018_Nov_15_1538,59.9846862411,chinese_cond1,001,1039,
images/cola.jpg,comb,x,sounds/animalfarm_chinese.wav,,,,,,,,,0,0,0,1,0,186,186,157,489.562828098,8.98020766726e-06,490.625090764,1.06227260831,,,,,x,1,1.05049859396,2018_Nov_15_1538,59.9846862411,chinese_cond1,001,1039,
images/elbow.jpg,elbow,z,sounds/animalfarm_chinese.wav,,,,,,,,,0,0,0,1,0,187,187,105,491.769814507,9.62165108831e-06,492.708963017,0.939158451915,,,,,z,1,0.917145397259,2018_Nov_15_1538,59.9846862411,chinese_cond1,001,1039,
images/candycane01a.jpg,lip,x,sounds/animalfarm_chinese.wav,,,,,,,,,0,0,0,1,0,188,188,200,493.898080096,3.17514482049e-05,494.60943281,0.711374523407,,,,,x,1,0.70040584124,2018_Nov_15_1538,59.9846862411,chinese_cond1,001,1039,
images/ashtray02b.jpg,ashtray,z,sounds/animalfarm_chinese.wav,,,,,,,,,0,0,0,1,0,189,189,43,495.815937174,9.62165108831e-06,496.926675001,1.11074776906,,,,,z,1,1.10050680443,2018_Nov_15_1538,59.9846862411,chinese_cond1,001,1039,
images/blackolive.jpg,tank,x,sounds/animalfarm_chinese.wav,,,,,,,,,0,0,0,1,0,190,190,229,498.106016162,8.98020766726e-06,498.760468677,0.654462136879,,,,,x,1,0.633709518507,2018_Nov_15_1538,59.9846862411,chinese_cond1,001,1039,
images/drink.jpg,drink,z,sounds/animalfarm_chinese.wav,,,,,,,,,0,0,0,1,0,191,191,117,499.9220704,9.62165108831e-06,500.660954186,0.738894048945,,,,,z,1,0.717070540814,2018_Nov_15_1538,59.9846862411,chinese_cond1,001,1039,
images/screw03c.jpg,screw,z,sounds/animalfarm_chinese.wav,,,,,,,,,0,0,0,1,0,192,192,84,501.819940743,9.62165108831e-06,502.728157249,0.908227409646,,,,,z,1,0.883795792644,2018_Nov_15_1538,59.9846862411,chinese_cond1,001,1039,
images/button07.jpg,radish,x,sounds/animalfarm_chinese.wav,,,,,,,,,0,0,0,1,0,193,193,215,503.909587911,9.94237257146e-06,504.595284814,0.685707165693,,,,,x,1,0.667053350131,2018_Nov_15_1538,59.9846862411,chinese_cond1,001,1039,
images/bracelet02a.jpg,chess knight,x,sounds/animalfarm_chinese.wav,,,,,,,,,0,0,0,1,0,194,194,152,505.773840527,9.30092915041e-06,507.295980908,1.52215032354,,,,,x,1,1.50062412443,2018_Nov_15_1538,59.9846862411,chinese_cond1,001,1039,
images/lion.jpg,lion,z,sounds/animalfarm_chinese.wav,,,,,,,,,0,0,0,1,0,195,195,44,508.480598582,9.62165108831e-06,509.24629823,0.765709590348,,,,,z,1,0.750202054671,2018_Nov_15_1538,59.9846862411,chinese_cond1,001,1039,
images/candy.jpg,candy,z,sounds/animalfarm_chinese.wav,,,,,,,,,0,0,0,1,0,196,196,31,510.417957785,8.98020766726e-06,511.030255602,0.612307117969,,,,,z,1,0.600385571629,2018_Nov_15_1538,59.9846862411,chinese_cond1,001,1039,
images/treadmill.jpg,lily,x,sounds/animalfarm_chinese.wav,,,,,,,,,0,0,0,1,0,197,197,199,512.210573681,9.94237279883e-06,513.030771323,0.820208225357,,,,,x,1,0.800442146937,2018_Nov_15_1538,59.9846862411,chinese_cond1,001,1039,
images/leaf01a.jpg,leaf,z,sounds/animalfarm_chinese.wav,,,,,,,,,0,0,0,1,0,198,198,68,514.208206434,8.98020766726e-06,514.981252213,0.773055400184,,,,,z,1,0.750423352645,2018_Nov_15_1538,59.9846862411,chinese_cond1,001,1039,
images/hand01a.jpg,cupcake,x,sounds/animalfarm_chinese.wav,,,,,,,,,0,0,0,1,0,199,199,163,516.174784347,8.98020743989e-06,517.065106505,0.890331780185,,,,,x,1,0.867112811934,2018_Nov_15_1538,59.9846862411,chinese_cond1,001,1039,
images/banana04a.jpg,banana,z,sounds/animalfarm_chinese.wav,,,,,,,,,0,0,0,1,0,200,200,118,518.205258681,9.30092915041e-06,518.848904479,0.64365541917,,,,,z,1,0.633731327583,2018_Nov_15_1538,59.9846862411,chinese_cond1,001,1039,
images/lighter02b.jpg,stapler,x,sounds/animalfarm_chinese.wav,,,,,,,,,0,0,0,1,0,201,201,227,520.01938442,9.30092937779e-06,521.066311136,1.04693762091,,,,,x,1,1.03401221565,2018_Nov_15_1538,59.9846862411,chinese_cond1,001,1039,
images/scooter.jpg,pen,x,sounds/animalfarm_chinese.wav,,,,,,,,,0,0,0,1,0,202,202,212,522.208055695,9.30092915041e-06,523.750148494,1.54210209983,,,,,x,1,1.5339509578,2018_Nov_15_1538,59.9846862411,chinese_cond1,001,1039,
images/ant.jpg,ant,z,sounds/animalfarm_chinese.wav,,,,,,,,,0,0,0,1,0,203,203,98,524.915569371,1.02630945094e-05,525.934013114,1.01845400594,,,,,z,1,1.00036722635,2018_Nov_15_1538,59.9846862411,chinese_cond1,001,1039,
images/hairpin.jpg,hair pin,z,sounds/animalfarm_chinese.wav,,,,,,,,,0,0,0,1,0,204,204,28,527.067350595,9.30092915041e-06,527.78448977,0.717149438352,,,,,z,1,0.700408727736,2018_Nov_15_1538,59.9846862411,chinese_cond1,001,1039,
images/notebook02b.jpg,notebook,z,sounds/animalfarm_chinese.wav,,,,,,,,,0,0,0,1,0,205,205,7,528.961979725,9.30092937779e-06,529.501581799,0.539612337266,,,,,z,1,0.517015248393,2018_Nov_15_1538,59.9846862411,chinese_cond1,001,1039,
images/radish01.jpg,raisin,x,sounds/animalfarm_chinese.wav,,,,,,,,,0,0,0,1,0,206,206,214,530.673926737,9.62165108831e-06,531.885524162,1.21160768808,,,,,x,1,1.20052931909,2018_Nov_15_1538,59.9846862411,chinese_cond1,001,1039,
images/seagull.jpg,seagull,z,sounds/animalfarm_chinese.wav,,,,,,,,,0,0,0,1,0,207,207,50,533.026855632,9.30092915041e-06,533.869354336,0.842508646657,,,,,z,1,0.833735625253,2018_Nov_15_1538,59.9846862411,chinese_cond1,001,1039,
images/diaper01a.jpg,camera,x,sounds/animalfarm_chinese.wav,,,,,,,,,0,0,0,1,0,208,208,143,535.054673108,9.62165108831e-06,536.486680748,1.43201758325,,,,,x,1,1.41724289666,2018_Nov_15_1538,59.9846862411,chinese_cond1,001,1039,
images/table02.jpg,table,z,sounds/animalfarm_chinese.wav,,,,,,,,,0,0,0,1,0,209,209,49,537.675273768,8.98020766726e-06,538.720609384,1.04534555839,,,,,z,1,1.03383742232,2018_Nov_15_1538,59.9846862411,chinese_cond1,001,1039,
images/computerkeyboard01a.jpg,computer keyboard,z,sounds/animalfarm_chinese.wav,,,,,,,,,0,0,0,1,0,210,210,61,539.919472875,8.98020766726e-06,541.287924379,1.36846112596,,,,,z,1,1.35058698486,2018_Nov_15_1538,59.9846862411,chinese_cond1,001,1039,
images/boxingglove02a.jpg,bracelet,x,sounds/animalfarm_chinese.wav,,,,,,,,,0,0,0,1,0,211,211,135,542.501485262,8.98020766726e-06,543.605179078,1.10370343762,,,,,z,0,1.08385621661,2018_Nov_15_1538,59.9846862411,chinese_cond1,001,1039,
images/remotecontrol01c.jpg,remote control,z,sounds/animalfarm_chinese.wav,,,,,,,,,0,0,0,1,0,212,212,85,544.787133159,9.30092937779e-06,545.689021183,0.901897966881,,,,,z,1,0.883781360168,2018_Nov_15_1538,59.9846862411,chinese_cond1,001,1039,
images/lightswitch02a.jpg,fork,x,sounds/animalfarm_chinese.wav,,,,,,,,,0,0,0,1,0,213,213,177,546.875216166,9.62165108831e-06,547.522818066,0.647612162793,,,,,x,1,0.633722347375,2018_Nov_15_1538,59.9846862411,chinese_cond1,001,1039,
images/cactus.jpg,cactus,z,sounds/animalfarm_chinese.wav,,,,,,,,,0,0,0,1,0,214,214,70,548.712895065,9.62165108831e-06,549.50666171,0.793777229273,,,,,z,1,0.78376558066,2018_Nov_15_1538,59.9846862411,chinese_cond1,001,1039,
images/battery03b.jpg,battery,z,sounds/animalfarm_chinese.wav,,,,,,,,,0,0,0,1,0,215,215,34,550.700808668,8.98020766726e-06,551.37380884,0.673009793558,,,,,z,1,0.650409176746,2018_Nov_15_1538,59.9846862411,chinese_cond1,001,1039,
images/fryingpan01.jpg,frying pan,z,sounds/animalfarm_chinese.wav,,,,,,,,,0,0,0,1,0,216,216,45,552.545393987,8.65948595674e-06,553.424506281,0.879145969426,,,,,z,1,0.867290812478,2018_Nov_15_1538,59.9846862411,chinese_cond1,001,1039,
images/corn01.jpg,corn,z,sounds/animalfarm_chinese.wav,,,,,,,,,0,0,0,1,0,217,217,22,554.591500618,9.62165086094e-06,555.391463607,0.799972931088,,,,,x,0,0.783748903132,2018_Nov_15_1538,59.9846862411,chinese_cond1,001,1039,
images/pingpongpaddle01c (1).jpg,ping pong paddle,z,sounds/animalfarm_chinese.wav,,,,,,,,,0,0,0,1,0,218,218,10,556.570008095,9.30092937779e-06,557.275289548,0.705291074187,,,,,z,1,0.683742745275,2018_Nov_15_1538,59.9846862411,chinese_cond1,001,1039,
images/barrel01.jpg,barrel,z,sounds/animalfarm_chinese.wav,,,,,,,,,0,0,0,1,0,219,219,9,558.478193811,9.62165086094e-06,559.659246663,1.18106279474,,,,,z,1,1.16721595603,2018_Nov_15_1538,59.9846862411,chinese_cond1,001,1039,
images/dolphin01.jpg,dolphin,z,sounds/animalfarm_chinese.wav,,,,,,,,,0,0,0,1,0,220,220,99,560.82911178,9.62165108831e-06,561.476345812,0.647244295003,,,,,z,1,0.633718819436,2018_Nov_15_1538,59.9846862411,chinese_cond1,001,1039,
,,,sounds/animalfarm_chinese.wav,,,,,,,,,0,0,0,1,,,,,,,,,,,,,,,,2018_Nov_15_1538,59.9846862411,chinese_cond1,001,1039,
images/cauliflower01.jpg,glue stick,x,sounds/greatgatsby_english.wav,,,,,,,,,0,1,1,0,0,0,0,181,582.617843095,9.30092915041e-06,584.13208795,1.51425543816,,,,572.47931345,x,1,1.50062027577,2018_Nov_15_1538,59.9846862411,chinese_cond1,001,1039,
images/watermelon01.jpg,orange,x,sounds/greatgatsby_english.wav,,,,,,,,,0,1,1,0,0,1,1,207,585.260015177,9.30092937779e-06,586.14925971,0.889254796714,,,,,x,1,0.867116981316,2018_Nov_15_1538,59.9846862411,chinese_cond1,001,1039,
images/flashlight05.jpg,flash light,z,sounds/greatgatsby_english.wav,,,,,,,,,0,1,1,0,0,2,2,8,587.250836121,8.98020766726e-06,587.849689926,0.59886406788,,,,,z,1,0.583709326074,2018_Nov_15_1538,59.9846862411,chinese_cond1,001,1039,
images/gps.jpg,gps,z,sounds/greatgatsby_english.wav,,,,,,,,,0,1,1,0,0,3,3,21,588.967066692,9.30092937779e-06,589.783524719,0.816467327439,,,,,z,1,0.800443750545,2018_Nov_15_1538,59.9846862411,chinese_cond1,001,1039,
images/aquarium.jpg,computer mouse,x,sounds/greatgatsby_english.wav,,,,,,,,,0,1,1,0,0,4,4,159,590.917849381,9.30092937779e-06,591.90073054,0.982891100871,,,,,x,1,0.967162908664,2018_Nov_15_1538,59.9846862411,chinese_cond1,001,1039,
images/bench02.jpg,electric toothbrush,x,sounds/greatgatsby_english.wav,,,,,,,,,0,1,1,0,0,5,5,172,593.008772059,9.30092915041e-06,593.801035803,0.792274327382,,,,,x,1,0.783604578367,2018_Nov_15_1538,59.9846862411,chinese_cond1,001,1039,
images/plant01.jpg,plant,z,sounds/greatgatsby_english.wav,,,,,,,,,0,1,1,0,0,6,6,47,594.937050027,8.98020766726e-06,595.584995741,0.647955655735,,,,,z,1,0.633739666347,2018_Nov_15_1538,59.9846862411,chinese_cond1,001,1039,
images/shotglass.jpg,shot glass,z,sounds/greatgatsby_english.wav,,,,,,,,,0,1,1,0,0,7,7,86,596.69255297,9.30092915041e-06,597.2520709,0.559527871999,,,,,z,1,0.550375436823,2018_Nov_15_1538,59.9846862411,chinese_cond1,001,1039,
images/bowtie.jpg,bowtie,z,sounds/greatgatsby_english.wav,,,,,,,,,0,1,1,0,0,8,8,89,598.361135522,1.18667028346e-05,599.085859765,0.724734185854,,,,,z,1,0.700394936702,2018_Nov_15_1538,59.9846862411,chinese_cond1,001,1039,
images/crocodile.jpg,triangle ruler,x,sounds/greatgatsby_english.wav,,,,,,,,,0,1,1,0,0,9,9,235,600.182680194,9.30092937779e-06,600.902993552,0.720322979582,,,,,x,1,0.700412576396,2018_Nov_15_1538,59.9846862411,chinese_cond1,001,1039,
images/stapler03a.jpg,candy cane,x,sounds/greatgatsby_english.wav,,,,,,,,,0,1,1,0,0,10,10,145,602.012950742,9.94237257146e-06,602.870157102,0.857216943856,,,,,x,1,0.833779243405,2018_Nov_15_1538,59.9846862411,chinese_cond1,001,1039,
images/donut.jpg,rhinoceros,x,sounds/greatgatsby_english.wav,,,,,,,,,0,1,1,0,0,11,11,216,603.994991931,9.30092937779e-06,606.737800709,2.74281936184,,,,,x,1,2.73425545099,2018_Nov_15_1538,59.9846862411,chinese_cond1,001,1039,
images/bed.jpg,bed,z,sounds/greatgatsby_english.wav,,,,,,,,,0,1,1,0,0,12,12,103,607.922407157,9.62165086094e-06,608.571621004,0.649224430783,,,,,x,0,0.633742232121,2018_Nov_15_1538,59.9846862411,chinese_cond1,001,1039,
images/pepper05a.jpg,lighter,x,sounds/greatgatsby_english.wav,,,,,,,,,0,1,1,0,0,13,13,198,609.692005178,9.62165086094e-06,610.588785388,0.896790794517,,,,,x,1,0.883796434088,2018_Nov_15_1538,59.9846862411,chinese_cond1,001,1039,
images/candycane01a.jpg,lip,x,sounds/greatgatsby_english.wav,,,,,,,,,0,1,1,0,0,14,14,200,611.68041622,8.98020743989e-06,612.622638205,0.94223128653,,,,,x,1,0.933813945493,2018_Nov_15_1538,59.9846862411,chinese_cond1,001,1039,
images/cat.jpg,black olive,x,sounds/greatgatsby_english.wav,,,,,,,,,0,1,1,0,0,15,15,133,613.752186039,9.30092937779e-06,614.373084971,0.620908553263,,,,,x,1,0.600400324827,2018_Nov_15_1538,59.9846862411,chinese_cond1,001,1039,
images/gamecontroller01.jpg,game controller,z,sounds/greatgatsby_english.wav,,,,,,,,,0,1,1,0,0,16,16,112,615.492621797,9.30092937779e-06,616.090164812,0.597552636845,,,,,z,1,0.583709967517,2018_Nov_15_1538,59.9846862411,chinese_cond1,001,1039,
images/pouch01b.jpg,pouch,z,sounds/greatgatsby_english.wav,,,,,,,,,0,1,1,0,0,17,17,25,617.201719197,9.30092937779e-06,617.923960733,0.722251158447,,,,,z,1,0.700403275467,2018_Nov_15_1538,59.9846862411,chinese_cond1,001,1039,
images/battery03b.jpg,battery,z,sounds/greatgatsby_english.wav,,,,,,,,,0,1,1,0,0,18,18,34,619.032351198,9.30092937779e-06,619.607726571,0.57538499433,,,,,z,1,0.567033721963,2018_Nov_15_1538,59.9846862411,chinese_cond1,001,1039,
images/triangleruler02.jpg,bottle of red wine,x,sounds/greatgatsby_english.wav,,,,,,,,,0,1,1,0,0,19,19,134,620.785934622,9.62165108831e-06,621.408180264,0.622255905128,,,,,x,1,0.60038011936,2018_Nov_15_1538,59.9846862411,chinese_cond1,001,1039,
images/djmixer01.jpg,light bulb,x,sounds/greatgatsby_english.wav,,,,,,,,,0,1,1,0,0,20,20,196,622.528680538,9.62165108831e-06,623.308681167,0.780011212431,,,,,x,1,0.767110502738,2018_Nov_15_1538,59.9846862411,chinese_cond1,001,1039,
images/apricot.jpg,apricot,z,sounds/greatgatsby_english.wav,,,,,,,,,0,1,1,0,0,21,21,32,624.424896279,8.98020743989e-06,625.5759206,1.15103458406,,,,,z,1,1.13386538925,2018_Nov_15_1538,59.9846862411,chinese_cond1,001,1039,
images/feather03b.jpg,feather,z,sounds/greatgatsby_english.wav,,,,,,,,,0,1,1,0,0,22,22,114,626.675718609,9.62165108831e-06,627.359893687,0.684201377307,,,,,z,1,0.667189336132,2018_Nov_15_1538,59.9846862411,chinese_cond1,001,1039,
images/dresser02.jpg,dresser,z,sounds/greatgatsby_english.wav,,,,,,,,,0,1,1,0,0,23,23,87,628.481257986,9.30092937779e-06,629.060113189,0.578865145505,,,,,z,1,0.567039174231,2018_Nov_15_1538,59.9846862411,chinese_cond1,001,1039,
images/toucan.jpg,toucan,z,sounds/greatgatsby_english.wav,,,,,,,,,0,1,1,0,0,24,24,81,630.160125761,3.72037172838e-05,630.877249542,0.717150721239,,,,,z,1,0.700413217839,2018_Nov_15_1538,59.9846862411,chinese_cond1,001,1039,
images/banjo.jpg,knife,x,sounds/greatgatsby_english.wav,,,,,,,,,0,1,1,0,0,25,25,191,631.972883622,9.62165086094e-06,632.744370693,0.771497334161,,,,,x,1,0.750408920168,2018_Nov_15_1538,59.9846862411,chinese_cond1,001,1039,
images/pen03c.jpg,pepper,x,sounds/greatgatsby_english.wav,,,,,,,,,0,1,1,0,0,26,26,211,633.83766607,9.62165108831e-06,635.211673115,1.37401698799,,,,,x,1,1.35057447671,2018_Nov_15_1538,59.9846862411,chinese_cond1,001,1039,
images/straw.jpg,straw,z,sounds/greatgatsby_english.wav,,,,,,,,,0,1,1,0,0,27,27,109,636.3025278,9.30092937779e-06,637.162163948,0.859645769296,,,,,z,1,0.850442980813,2018_Nov_15_1538,59.9846862411,chinese_cond1,001,1039,
images/pictureframe04.jpg,picture frame,z,sounds/greatgatsby_english.wav,,,,,,,,,0,1,1,0,0,28,28,41,638.283545245,9.62165086094e-06,638.912604619,0.629068996218,,,,,z,1,0.617048346872,2018_Nov_15_1538,59.9846862411,chinese_cond1,001,1039,
images/medal01.jpg,medal,z,sounds/greatgatsby_english.wav,,,,,,,,,0,1,1,0,0,29,29,115,640.012986022,9.62165108831e-06,640.563020531,0.550044772749,,,,,z,1,0.533686041678,2018_Nov_15_1538,59.9846862411,chinese_cond1,001,1039,
images/swan.jpg,swan,z,sounds/greatgatsby_english.wav,,,,,,,,,0,1,1,0,0,30,30,54,641.654098759,9.62165086094e-06,642.513557548,0.859469051639,,,,,z,1,0.850481467417,2018_Nov_15_1538,59.9846862411,chinese_cond1,001,1039,
images/safe.jpg,safe,z,sounds/greatgatsby_english.wav,,,,,,,,,0,1,1,0,0,31,31,78,643.62365778,9.30092937779e-06,644.397325758,0.773678241727,,,,,z,1,0.750415013881,2018_Nov_15_1538,59.9846862411,chinese_cond1,001,1039,
images/axe01.jpg,axe,z,sounds/greatgatsby_english.wav,,,,,,,,,0,1,1,0,0,32,32,104,645.499754969,9.30092937779e-06,646.547871883,1.04812749842,,,,,z,1,1.03382427273,2018_Nov_15_1538,59.9846862411,chinese_cond1,001,1039,
images/mirror02.jpg,8 ball,x,sounds/greatgatsby_english.wav,,,,,,,,,0,1,1,0,0,33,33,121,647.648728916,9.30092937779e-06,648.481694167,0.832975194101,,,,,x,1,0.817100432076,2018_Nov_15_1538,59.9846862411,chinese_cond1,001,1039,
images/hairpin.jpg,hair pin,z,sounds/greatgatsby_english.wav,,,,,,,,,0,1,1,0,0,34,34,28,649.572146667,9.62165108831e-06,650.132115852,0.559978485988,,,,,z,1,0.550371908884,2018_Nov_15_1538,59.9846862411,chinese_cond1,001,1039,
images/boxingglove02a.jpg,bracelet,x,sounds/greatgatsby_english.wav,,,,,,,,,0,1,1,0,0,35,35,135,651.24139215,9.30092937779e-06,651.96591915,0.724536300565,,,,,x,1,0.700416425056,2018_Nov_15_1538,59.9846862411,chinese_cond1,001,1039,
images/teapot.jpg,light switch,x,sounds/greatgatsby_english.wav,,,,,,,,,0,1,1,0,0,36,36,197,653.080555028,9.94237279883e-06,653.799709939,0.71916485352,,,,,x,1,0.700416425056,2018_Nov_15_1538,59.9846862411,chinese_cond1,001,1039,
images/eyedrops.jpg,bicycle,x,sounds/greatgatsby_english.wav,,,,,,,,,0,1,1,0,0,37,37,131,654.897598372,9.62165108831e-06,655.583495725,0.685906975312,,,,,x,1,0.667064254668,2018_Nov_15_1538,59.9846862411,chinese_cond1,001,1039,
images/redfox.jpg,red fox,z,sounds/greatgatsby_english.wav,,,,,,,,,0,1,1,0,0,38,38,1,656.693527644,9.30092915041e-06,657.417291646,0.72377362436,,,,,z,1,0.700405199797,2018_Nov_15_1538,59.9846862411,chinese_cond1,001,1039,
images/bicycle.jpg,hand bag,x,sounds/greatgatsby_english.wav,,,,,,,,,0,1,1,0,0,39,39,186,658.526476859,9.30092937779e-06,659.584514658,1.05804806207,,,,,x,1,1.03382876284,2018_Nov_15_1538,59.9846862411,chinese_cond1,001,1039,
images/rhinoceros01.jpg,envelope,x,sounds/greatgatsby_english.wav,,,,,,,,,0,1,1,0,0,40,40,173,660.771777324,9.62165086094e-06,661.501681223,0.729914482766,,,,,x,1,0.717101650819,2018_Nov_15_1538,59.9846862411,chinese_cond1,001,1039,
images/antelope.jpg,antelope,z,sounds/greatgatsby_english.wav,,,,,,,,,0,1,1,0,0,41,41,12,662.604348088,8.98020766726e-06,663.285290933,0.680953107922,,,,,z,1,0.666908704644,2018_Nov_15_1538,59.9846862411,chinese_cond1,001,1039,
images/handfan01b.jpg,handfan,z,sounds/greatgatsby_english.wav,,,,,,,,,0,1,1,0,0,42,42,69,664.397513701,9.94237257146e-06,665.836087798,1.43858371863,,,,,z,1,1.41724963181,2018_Nov_15_1538,59.9846862411,chinese_cond1,001,1039,
images/bowlingball.jpg,bowling ball,z,sounds/greatgatsby_english.wav,,,,,,,,,0,1,1,0,0,43,43,20,666.96568791,9.30092937779e-06,667.553182393,0.587503784516,,,,,z,1,0.567031476911,2018_Nov_15_1538,59.9846862411,chinese_cond1,001,1039,
images/dreamcatcher.jpg,dream catcher,z,sounds/greatgatsby_english.wav,,,,,,,,,0,1,1,0,0,44,44,48,668.650193972,9.30092937779e-06,669.353643142,0.70345879111,,,,,z,1,0.683733444346,2018_Nov_15_1538,59.9846862411,chinese_cond1,001,1039,
images/parkbench03.jpg,park bench,z,sounds/greatgatsby_english.wav,,,,,,,,,0,1,1,0,0,45,45,71,670.457173069,8.98020766726e-06,671.00405713,0.546893361317,,,,,z,1,0.533692456112,2018_Nov_15_1538,59.9846862411,chinese_cond1,001,1039,
images/clothespin02a.jpg,clothes pin,z,sounds/greatgatsby_english.wav,,,,,,,,,0,1,1,0,0,46,46,79,672.160128969,9.62165086094e-06,672.87120041,0.711082025216,,,,,z,1,0.700398143919,2018_Nov_15_1538,59.9846862411,chinese_cond1,001,1039,
images/backpack01b.jpg,swallow,x,sounds/greatgatsby_english.wav,,,,,,,,,0,1,1,0,0,47,47,228,674.000753055,9.62165108831e-06,674.705006594,0.704263481857,,,,,x,1,0.683740820945,2018_Nov_15_1538,59.9846862411,chinese_cond1,001,1039,
images/eraser.jpg,eraser,z,sounds/greatgatsby_english.wav,,,,,,,,,0,1,1,0,0,48,48,110,675.809923963,9.62165086094e-06,676.455442134,0.645528433903,,,,,z,1,0.633723950983,2018_Nov_15_1538,59.9846862411,chinese_cond1,001,1039,
images/barrel01.jpg,barrel,z,sounds/greatgatsby_english.wav,,,,,,,,,0,1,1,0,0,49,49,9,677.584049612,9.30092937779e-06,678.572670406,0.988630736428,,,,,z,1,0.967160663612,2018_Nov_15_1538,59.9846862411,chinese_cond1,001,1039,
images/cactus.jpg,cactus,z,sounds/greatgatsby_english.wav,,,,,,,,,0,1,1,0,0,50,50,70,679.682572111,9.62165108831e-06,680.47313635,0.790574502368,,,,,z,1,0.767099918922,2018_Nov_15_1538,59.9846862411,chinese_cond1,001,1039,
images/belt02a.jpg,snowman,x,sounds/greatgatsby_english.wav,,,,,,,,,0,1,1,0,0,51,51,224,681.574457146,9.94237279883e-06,682.423618203,0.849170998548,,,,,x,1,0.833770583919,2018_Nov_15_1538,59.9846862411,chinese_cond1,001,1039,
images/lamp04b.jpg,parking meter,x,sounds/greatgatsby_english.wav,,,,,,,,,0,1,1,0,0,52,52,209,683.543347141,9.62165108831e-06,684.574160158,1.03082327978,,,,,x,1,1.0171143514,2018_Nov_15_1538,59.9846862411,chinese_cond1,001,1039,
images/hammer02a.jpg,flower,x,sounds/greatgatsby_english.wav,,,,,,,,,0,1,1,0,0,53,53,176,685.667469326,9.30092937779e-06,686.674712184,1.00725280054,,,,,x,1,0.983827287516,2018_Nov_15_1538,59.9846862411,chinese_cond1,001,1039,
images/calculator02b.jpg,dice,x,sounds/greatgatsby_english.wav,,,,,,,,,0,1,1,0,0,54,54,165,687.774066636,8.98020766726e-06,688.891935709,1.11787869536,,,,,x,1,1.10052219907,2018_Nov_15_1538,59.9846862411,chinese_cond1,001,1039,
images/cupcake.jpg,scissors,x,sounds/greatgatsby_english.wav,,,,,,,,,0,1,1,0,0,55,55,219,690.009427935,8.98020766726e-06,690.692394213,0.68297622041,,,,,x,1,0.667079970032,2018_Nov_15_1538,59.9846862411,chinese_cond1,001,1039,
images/broom02.jpg,broom,z,sounds/greatgatsby_english.wav,,,,,,,,,0,1,1,0,0,56,56,116,691.783940695,9.30092937779e-06,692.559516967,0.775586856568,,,,,x,0,0.76708259995,2018_Nov_15_1538,59.9846862411,chinese_cond1,001,1039,
images/candy.jpg,candy,z,sounds/greatgatsby_english.wav,,,,,,,,,0,1,1,0,0,57,57,31,693.659861807,9.62165108831e-06,694.576708613,0.91685706845,,,,,z,1,0.900469793147,2018_Nov_15_1538,59.9846862411,chinese_cond1,001,1039,
images/sunglasses03a.jpg,sun glasses,z,sounds/greatgatsby_english.wav,,,,,,,,,0,1,1,0,0,58,58,17,695.683050949,9.62165108831e-06,696.360507228,0.677466542312,,,,,z,1,0.667088950239,2018_Nov_15_1538,59.9846862411,chinese_cond1,001,1039,
images/table02.jpg,table,z,sounds/greatgatsby_english.wav,,,,,,,,,0,1,1,0,0,59,59,49,697.472934616,9.62165108831e-06,698.07759188,0.604667527056,,,,,z,1,0.583713174734,2018_Nov_15_1538,59.9846862411,chinese_cond1,001,1039,
images/pineapple01a.jpg,pineapple,z,sounds/greatgatsby_english.wav,,,,,,,,,0,1,1,0,0,60,60,51,699.189287061,9.30092937779e-06,699.728012603,0.538736125579,,,,,z,1,0.517039943963,2018_Nov_15_1538,59.9846862411,chinese_cond1,001,1039,
images/drink.jpg,drink,z,sounds/greatgatsby_english.wav,,,,,,,,,0,1,1,0,0,61,61,117,700.826417397,9.62165086094e-06,701.511777863,0.685370087185,,,,,z,1,0.667058802399,2018_Nov_15_1538,59.9846862411,chinese_cond1,001,1039,
images/ruler02b.jpg,watermelon,x,sounds/greatgatsby_english.wav,,,,,,,,,0,1,1,0,0,62,62,238,702.612124948,9.30092937779e-06,703.345719712,0.733605027377,,,,,x,1,0.717219997126,2018_Nov_15_1538,59.9846862411,chinese_cond1,001,1039,
images/parkfountain.jpg,park fountain,z,sounds/greatgatsby_english.wav,,,,,,,,,0,1,1,0,0,63,63,93,704.463464667,9.94237279883e-06,705.846229339,1.38277493547,,,,,z,1,1.36725649526,2018_Nov_15_1538,59.9846862411,chinese_cond1,001,1039,
images/spoon02b.jpg,spoon,z,sounds/greatgatsby_english.wav,,,,,,,,,0,1,1,0,0,64,64,38,706.935903127,9.30092937779e-06,707.646693295,0.710801073007,,,,,z,1,0.700428933203,2018_Nov_15_1538,59.9846862411,chinese_cond1,001,1039,
images/arrow02.jpg,hammer,x,sounds/greatgatsby_english.wav,,,,,,,,,0,1,1,0,0,65,65,184,708.743161893,8.98020766726e-06,711.047541219,2.30438958963,,,,,x,1,2.28414916381,2018_Nov_15_1538,59.9846862411,chinese_cond1,001,1039,
images/coin01b.jpg,arrow,x,sounds/greatgatsby_english.wav,,,,,,,,,0,1,1,0,0,66,66,124,712.148636869,9.30092937779e-06,712.998047126,0.849420520031,,,,,x,1,0.833795920933,2018_Nov_15_1538,59.9846862411,chinese_cond1,001,1039,
images/lantern03.jpg,lantern,z,sounds/greatgatsby_english.wav,,,,,,,,,0,1,1,0,0,67,67,5,714.102659488,8.98020766726e-06,714.69847221,0.595822663991,,,,,x,0,0.583714457621,2018_Nov_15_1538,59.9846862411,chinese_cond1,001,1039,
images/diploma01.jpg,glasses,x,sounds/greatgatsby_english.wav,,,,,,,,,0,1,1,0,0,68,68,179,715.827753845,9.30092915041e-06,717.065746666,1.23800308406,,,,,x,1,1.21723507105,2018_Nov_15_1538,59.9846862411,chinese_cond1,001,1039,
images/ceilingfan02.jpg,paper clip,x,sounds/greatgatsby_english.wav,,,,,,,,,0,1,1,0,0,69,69,208,718.162195379,9.30092937779e-06,719.432985521,1.27080008518,,,,,x,1,1.25054554761,2018_Nov_15_1538,59.9846862411,chinese_cond1,001,1039,
images/desktopcomputer.jpg,desktop computer,z,sounds/greatgatsby_english.wav,,,,,,,,,0,1,1,0,0,70,70,16,720.566413767,9.30092937779e-06,721.416828524,0.850425020398,,,,,z,1,0.833787261447,2018_Nov_15_1538,59.9846862411,chinese_cond1,001,1039,
images/razor04a.jpg,razor,z,sounds/greatgatsby_english.wav,,,,,,,,,0,1,1,0,0,71,71,36,722.514828568,9.94237279883e-06,723.317318523,0.802500538812,,,,,z,1,0.783780333858,2018_Nov_15_1538,59.9846862411,chinese_cond1,001,1039,
images/screwdriver02b.jpg,cola,x,sounds/greatgatsby_english.wav,,,,,,,,,0,1,1,0,0,72,72,158,724.409613569,9.62165108831e-06,725.251131185,0.841528200418,,,,,x,1,0.817108450119,2018_Nov_15_1538,59.9846862411,chinese_cond1,001,1039,
images/bullet (2).jpg,rubber glove,x,sounds/greatgatsby_english.wav,,,,,,,,,0,1,1,0,0,73,73,217,726.354158862,9.62165108831e-06,727.084924861,0.730775620532,,,,,x,1,0.717082407517,2018_Nov_15_1538,59.9846862411,chinese_cond1,001,1039,
images/skateboard.jpg,key,x,sounds/greatgatsby_english.wav,,,,,,,,,0,1,1,0,0,74,74,189,728.174586782,9.30092937779e-06,728.78518734,0.610611462337,,,,,x,1,0.600211099023,2018_Nov_15_1538,59.9846862411,chinese_cond1,001,1039,
images/hairdryer03a.jpg,hairdryer,z,sounds/greatgatsby_english.wav,,,,,,,,,0,1,1,0,0,75,75,119,729.88274158,8.98020766726e-06,730.585814864,0.703082584555,,,,,z,1,0.68373985878,2018_Nov_15_1538,59.9846862411,chinese_cond1,001,1039,
images/cloud.jpg,ceiling fan,x,sounds/greatgatsby_english.wav,,,,,,,,,0,1,1,0,0,76,76,149,731.689120607,8.98020766726e-06,732.536297358,0.847186372663,,,,,x,1,0.833774111857,2018_Nov_15_1538,59.9846862411,chinese_cond1,001,1039,
images/cola.jpg,comb,x,sounds/greatgatsby_english.wav,,,,,,,,,0,1,1,0,0,77,77,157,733.655063169,9.62165108831e-06,735.153866236,1.49881300899,,,,,x,1,1.48417206334,2018_Nov_15_1538,59.9846862411,chinese_cond1,001,1039,
images/scissors04a.jpg,leek,x,sounds/greatgatsby_english.wav,,,,,,,,,0,1,1,0,0,78,78,194,736.245914326,9.30092937779e-06,736.904054179,0.658149794995,,,,,x,1,0.63370823562,2018_Nov_15_1538,59.9846862411,chinese_cond1,001,1039,
images/cocktailshrimp01.jpg,cocktail shrimp,z,sounds/greatgatsby_english.wav,,,,,,,,,0,1,1,0,0,79,79,30,738.016907165,8.98020766726e-06,738.621185015,0.604287471841,,,,,z,1,0.583720872055,2018_Nov_15_1538,59.9846862411,chinese_cond1,001,1039,
images/apple06.jpg,apple,z,sounds/greatgatsby_english.wav,,,,,,,,,0,1,1,0,0,80,80,13,739.746025937,8.65948595674e-06,740.438298276,0.692281960559,,,,,z,1,0.683730557851,2018_Nov_15_1538,59.9846862411,chinese_cond1,001,1039,
images/paperclip04.jpg,eye drops,x,sounds/greatgatsby_english.wav,,,,,,,,,0,1,1,0,0,81,81,174,741.542631611,9.94237279883e-06,742.688885197,1.14626384876,,,,,x,1,1.13386635142,2018_Nov_15_1538,59.9846862411,chinese_cond1,001,1039,
images/ostrich.jpg,ostrich,z,sounds/greatgatsby_english.wav,,,,,,,,,0,1,1,0,0,82,82,76,743.834681113,8.98020766726e-06,744.439312078,0.604640265711,,,,,z,1,0.583707722465,2018_Nov_15_1538,59.9846862411,chinese_cond1,001,1039,
images/volleyball.jpg,volley ball,z,sounds/greatgatsby_english.wav,,,,,,,,,0,1,1,0,0,83,83,2,745.569450039,9.30092915041e-06,746.089722217,0.520281798915,,,,,z,1,0.500346379437,2018_Nov_15_1538,59.9846862411,chinese_cond1,001,1039,
images/cigar.jpg,crocodile,x,sounds/greatgatsby_english.wav,,,,,,,,,0,1,1,0,0,84,84,162,747.256379796,9.62165086094e-06,747.890191304,0.633821771102,,,,,x,1,0.617049309037,2018_Nov_15_1538,59.9846862411,chinese_cond1,001,1039,
images/licenseplate.jpg,license plate,z,sounds/greatgatsby_english.wav,,,,,,,,,0,1,1,0,0,85,85,40,749.005548806,8.65948595674e-06,749.790662059,0.785122874898,,,,,z,1,0.767092221601,2018_Nov_15_1538,59.9846862411,chinese_cond1,001,1039,
images/camera01a.jpg,bull,x,sounds/greatgatsby_english.wav,,,,,,,,,0,1,1,0,0,86,86,138,750.900106095,9.30092937779e-06,751.7411654,0.841069247664,,,,,x,1,0.817109733006,2018_Nov_15_1538,59.9846862411,chinese_cond1,001,1039,
images/bottleofredwine02.jpg,pipe,x,sounds/greatgatsby_english.wav,,,,,,,,,0,1,1,0,0,87,87,213,752.837597435,8.98020766726e-06,753.641651229,0.804063736382,,,,,x,1,0.783766542825,2018_Nov_15_1538,59.9846862411,chinese_cond1,001,1039,
images/tulip02.jpg,sport shorts,x,sounds/greatgatsby_english.wav,,,,,,,,,0,1,1,0,0,88,88,225,754.734437621,9.30092937779e-06,755.825512962,1.09108560447,,,,,x,1,1.06715655837,2018_Nov_15_1538,59.9846862411,chinese_cond1,001,1039,
images/bandaid01.jpg,door handle,x,sounds/greatgatsby_english.wav,,,,,,,,,0,1,1,0,0,89,89,170,756.930636556,8.98020766726e-06,758.309483933,1.37885699917,,,,,x,1,1.36721608432,2018_Nov_15_1538,59.9846862411,chinese_cond1,001,1039,
images/puzzle.jpg,puzzle,z,sounds/greatgatsby_english.wav,,,,,,,,,0,1,1,0,0,90,90,57,759.427726968,9.30092937779e-06,760.30998907,0.882272043844,,,,,z,1,0.867112811934,2018_Nov_15_1538,59.9846862411,chinese_cond1,001,1039,
images/chameleon.jpg,50 dollar bill,x,sounds/greatgatsby_english.wav,,,,,,,,,0,1,1,0,0,91,91,120,761.41811975,9.62165108831e-06,762.327173659,0.909063851842,,,,,x,1,0.900461454383,2018_Nov_15_1538,59.9846862411,chinese_cond1,001,1039,
images/treadmill.jpg,lily,x,sounds/greatgatsby_english.wav,,,,,,,,,0,1,1,0,0,92,92,199,763.430821612,9.62165086094e-06,764.260990491,0.830179783756,,,,,x,1,0.817097224859,2018_Nov_15_1538,59.9846862411,chinese_cond1,001,1039,
images/rubberglove02a.jpg,lady bug,x,sounds/greatgatsby_english.wav,,,,,,,,,0,1,1,0,0,93,93,192,765.36379687,9.62165108831e-06,766.394860691,1.03107408415,,,,,x,1,1.01714321635,2018_Nov_15_1538,59.9846862411,chinese_cond1,001,1039,
images/knife04.jpg,tooth brush,x,sounds/greatgatsby_english.wav,,,,,,,,,0,1,1,0,0,94,94,233,767.489608617,1.0263094282e-05,768.161981457,0.672383424076,,,,,x,1,0.650386405505,2018_Nov_15_1538,59.9846862411,chinese_cond1,001,1039,
images/flamingo.jpg,flamingo,z,sounds/greatgatsby_english.wav,,,,,,,,,0,1,1,0,0,95,95,52,769.2579725,8.98020766726e-06,770.195839085,0.937876527277,,,,,z,1,0.917135454886,2018_Nov_15_1538,59.9846862411,chinese_cond1,001,1039,
images/electricguitar02.jpg,electric guitar,z,sounds/greatgatsby_english.wav,,,,,,,,,0,1,1,0,0,96,96,100,771.296301951,9.30092937779e-06,772.012959722,0.716668035079,,,,,z,1,0.700409689901,2018_Nov_15_1538,59.9846862411,chinese_cond1,001,1039,
images/magnifyingglass01b.jpg,magnifying glass,z,sounds/greatgatsby_english.wav,,,,,,,,,0,1,1,0,0,97,97,64,773.117396651,9.62165108831e-06,773.813410529,0.696024462085,,,,,z,1,0.683736651563,2018_Nov_15_1538,59.9846862411,chinese_cond1,001,1039,
images/flower01.jpg,bus,x,sounds/greatgatsby_english.wav,,,,,,,,,0,1,1,0,0,98,98,140,774.925925475,9.30092937779e-06,775.630377541,0.704462650034,,,,,x,1,0.683565706896,2018_Nov_15_1538,59.9846862411,chinese_cond1,001,1039,
images/fork01.jpg,cooking pot,x,sounds/greatgatsby_english.wav,,,,,,,,,0,1,1,0,0,99,99,160,776.723091449,9.30092937779e-06,777.664379493,0.941298307102,,,,,x,1,0.917129040452,2018_Nov_15_1538,59.9846862411,chinese_cond1,001,1039,
images/lipstick04.jpg,lipstick,z,sounds/greatgatsby_english.wav,,,,,,,,,0,1,1,0,0,100,100,56,778.762430532,9.30092937779e-06,779.431555423,0.669134513247,,,,,z,1,0.650408856024,2018_Nov_15_1538,59.9846862411,chinese_cond1,001,1039,
images/baseball01a.jpg,baseball,z,sounds/greatgatsby_english.wav,,,,,,,,,0,1,1,0,0,101,101,74,780.563731571,9.30092937779e-06,781.131947473,0.568225844524,,,,,z,1,0.550364853007,2018_Nov_15_1538,59.9846862411,chinese_cond1,001,1039,
images/snowman.jpg,globe,x,sounds/greatgatsby_english.wav,,,,,,,,,0,1,1,0,0,102,102,180,782.240680148,9.62165108831e-06,782.915714978,0.675045093471,,,,,x,1,0.65040244159,2018_Nov_15_1538,59.9846862411,chinese_cond1,001,1039,
images/lettuce.jpg,mushroom,x,sounds/greatgatsby_english.wav,,,,,,,,,0,1,1,0,0,103,103,205,784.037222319,9.30092937779e-06,784.632814384,0.595602007461,,,,,x,1,0.5837067603,2018_Nov_15_1538,59.9846862411,chinese_cond1,001,1039,
images/lily.jpg,kiwi,x,sounds/greatgatsby_english.wav,,,,,,,,,0,1,1,0,0,104,104,190,785.730917059,8.98020743989e-06,786.34992277,0.619015653785,,,,,x,1,0.600389420289,2018_Nov_15_1538,59.9846862411,chinese_cond1,001,1039,
images/elbow.jpg,elbow,z,sounds/greatgatsby_english.wav,,,,,,,,,0,1,1,0,0,105,105,105,787.45970645,9.62165086094e-06,788.083690403,0.623993896025,,,,,z,1,0.600373063482,2018_Nov_15_1538,59.9846862411,chinese_cond1,001,1039,
images/lip.jpg,boxing glove,x,sounds/greatgatsby_english.wav,,,,,,,,,0,1,1,0,0,106,106,136,789.185173485,9.94237279883e-06,790.050853954,0.865690731913,,,,,x,1,0.850406097818,2018_Nov_15_1538,59.9846862411,chinese_cond1,001,1039,
images/handbag02a.jpg,candle,x,sounds/greatgatsby_english.wav,,,,,,,,,0,1,1,0,0,107,107,144,791.237872871,9.30092937779e-06,792.168046946,0.930184017283,,,,,x,1,0.917105307046,2018_Nov_15_1538,59.9846862411,chinese_cond1,001,1039,
images/birthdaycandle.jpg,birthday candle,z,sounds/greatgatsby_english.wav,,,,,,,,,0,1,1,0,0,108,108,55,793.262596666,9.30092937779e-06,794.018523282,0.755936879403,,,,,z,1,0.733742296265,2018_Nov_15_1538,59.9846862411,chinese_cond1,001,1039,
images/hand01a.jpg,cupcake,x,sounds/greatgatsby_english.wav,,,,,,,,,0,1,1,0,0,109,109,163,795.128073797,9.30092937779e-06,795.969023736,0.840960202286,,,,,x,1,0.817105563623,2018_Nov_15_1538,59.9846862411,chinese_cond1,001,1039,
images/screw03c.jpg,screw,z,sounds/greatgatsby_english.wav,,,,,,,,,0,1,1,0,0,110,110,84,797.061253034,8.98020766726e-06,798.486328275,1.42508486296,,,,,z,1,1.41726534717,2018_Nov_15_1538,59.9846862411,chinese_cond1,001,1039,
images/hat05.jpg,hat,z,sounds/greatgatsby_english.wav,,,,,,,,,0,1,1,0,0,111,111,15,799.588353697,9.30092937779e-06,800.203423832,0.615080077794,,,,,z,1,0.600377553586,2018_Nov_15_1538,59.9846862411,chinese_cond1,001,1039,
images/aloe02.jpg,broad sword,x,sounds/greatgatsby_english.wav,,,,,,,,,0,1,1,0,0,112,112,137,801.324064583,9.30092937779e-06,802.053890867,0.729836868114,,,,,x,1,0.7170792003,2018_Nov_15_1538,59.9846862411,chinese_cond1,001,1039,
images/microphone01.jpg,diaper,x,sounds/greatgatsby_english.wav,,,,,,,,,0,1,1,0,0,113,113,164,803.150818738,9.94237279883e-06,803.904366562,0.753557765827,,,,,x,1,0.733750635029,2018_Nov_15_1538,59.9846862411,chinese_cond1,001,1039,
images/lock02a.jpg,lock,z,sounds/greatgatsby_english.wav,,,,,,,,,0,1,1,0,0,114,114,65,805.08710192,9.62165108831e-06,805.738152861,0.65106056252,,,,,z,1,0.633716253663,2018_Nov_15_1538,59.9846862411,chinese_cond1,001,1039,
images/ladybug03.jpg,giraffe,x,sounds/greatgatsby_english.wav,,,,,,,,,0,1,1,0,0,115,115,178,806.839526576,9.62165108831e-06,807.671977711,0.832461718658,,,,,x,1,0.81710492218,2018_Nov_15_1538,59.9846862411,chinese_cond1,001,1039,
images/floorlamp.jpg,floor lamp,z,sounds/greatgatsby_english.wav,,,,,,,,,0,1,1,0,0,116,116,26,808.763008472,9.62165108831e-06,809.372403758,0.60940522802,,,,,z,1,0.600375308534,2018_Nov_15_1538,59.9846862411,chinese_cond1,001,1039,
images/pipe.jpg,icecube,x,sounds/greatgatsby_english.wav,,,,,,,,,0,1,1,0,0,117,117,188,810.479067457,9.30092937779e-06,811.356262797,0.877205603136,,,,,x,1,0.867111208325,2018_Nov_15_1538,59.9846862411,chinese_cond1,001,1039,
images/nametag01a.jpg,name tag,z,sounds/greatgatsby_english.wav,,,,,,,,,0,1,1,0,0,118,118,108,812.475827847,9.94237279883e-06,813.140030302,0.664212397305,,,,,z,1,0.650378387463,2018_Nov_15_1538,59.9846862411,chinese_cond1,001,1039,
images/cherry01.jpg,highlighter,x,sounds/greatgatsby_english.wav,,,,,,,,,0,1,1,0,0,119,119,187,814.246821969,9.62165108831e-06,814.973821733,0.727010027043,,,,,x,1,0.717069578649,2018_Nov_15_1538,59.9846862411,chinese_cond1,001,1039,
images/saltshaker03c.jpg,salt shaker,z,sounds/greatgatsby_english.wav,,,,,,,,,0,1,1,0,0,120,120,63,816.083449221,9.62165108831e-06,817.357788149,1.27434951225,,,,,z,1,1.25056960174,2018_Nov_15_1538,59.9846862411,chinese_cond1,001,1039,
images/paintbrush03a.jpg,paint brush,z,sounds/greatgatsby_english.wav,,,,,,,,,0,1,1,0,0,121,121,0,818.456397885,9.30092915041e-06,819.041519669,0.585131726817,,,,,z,1,0.567033721963,2018_Nov_15_1538,59.9846862411,chinese_cond1,001,1039,
images/flipflop01b.jpg,flip flop,z,sounds/greatgatsby_english.wav,,,,,,,,,0,1,1,0,0,122,122,27,820.156497116,9.30092937779e-06,820.658592391,0.502105217244,,,,,z,1,0.483676548316,2018_Nov_15_1538,59.9846862411,chinese_cond1,001,1039,
images/carrot02.jpg,corkscrew,x,sounds/greatgatsby_english.wav,,,,,,,,,0,1,1,0,0,123,123,161,821.759335567,9.30092915041e-06,822.30902498,0.549699355478,,,,,x,1,0.533707209311,2018_Nov_15_1538,59.9846862411,chinese_cond1,001,1039,
images/mailbox01.jpg,mail box,z,sounds/greatgatsby_english.wav,,,,,,,,,0,1,1,0,0,124,124,73,823.427158649,8.98020766726e-06,824.342880042,0.915731014558,,,,,z,1,0.900471076034,2018_Nov_15_1538,59.9846862411,chinese_cond1,001,1039,
images/icecube02 (2).jpg,aloe,x,sounds/greatgatsby_english.wav,,,,,,,,,0,1,1,0,0,125,125,122,825.451380835,9.30092937779e-06,826.276688856,0.825317963494,,,,,x,1,0.817099469911,2018_Nov_15_1538,59.9846862411,chinese_cond1,001,1039,
images/acousticguitar02.jpg,acoustic guitar,z,sounds/greatgatsby_english.wav,,,,,,,,,0,1,1,0,0,126,126,97,827.389309319,9.30092937779e-06,828.860699019,1.47139964233,,,,,z,1,1.45061783828,2018_Nov_15_1538,59.9846862411,chinese_cond1,001,1039,
images/basketball01.jpg,basket ball,z,sounds/greatgatsby_english.wav,,,,,,,,,0,1,1,0,0,127,127,33,829.997919158,9.30092915041e-06,831.561358231,1.56344869479,,,,,z,1,1.55062078892,2018_Nov_15_1538,59.9846862411,chinese_cond1,001,1039,
images/broadsword.jpg,teapot,x,sounds/greatgatsby_english.wav,,,,,,,,,0,1,1,0,0,128,128,231,832.652610611,9.94237279883e-06,835.295641905,2.64304155784,,,,,x,1,2.63423646426,2018_Nov_15_1538,59.9846862411,chinese_cond1,001,1039,
images/computerkeyboard01a.jpg,computer keyboard,z,sounds/greatgatsby_english.wav,,,,,,,,,0,1,1,0,0,129,129,61,836.411308583,9.30092937779e-06,837.879700818,1.46840185659,,,,,z,1,1.45066626726,2018_Nov_15_1538,59.9846862411,chinese_cond1,001,1039,
images/headphones02b.jpg,headphones,z,sounds/greatgatsby_english.wav,,,,,,,,,0,1,1,0,0,130,130,101,838.985244236,9.30092915041e-06,839.630077345,0.644843051628,,,,,z,1,0.633733893356,2018_Nov_15_1538,59.9846862411,chinese_cond1,001,1039,
images/sock03.jpg,sock,z,sounds/greatgatsby_english.wav,,,,,,,,,0,1,1,0,0,131,131,90,840.733933126,9.62165108831e-06,841.330492167,0.596569304111,,,,,z,1,0.58369906298,2018_Nov_15_1538,59.9846862411,chinese_cond1,001,1039,
images/ashtray02b.jpg,ashtray,z,sounds/greatgatsby_english.wav,,,,,,,,,0,1,1,0,0,132,132,43,842.443094669,9.30092937779e-06,843.297670791,0.854586063744,,,,,z,1,0.833779243405,2018_Nov_15_1538,59.9846862411,chinese_cond1,001,1039,
images/gorilla.jpg,gorilla,z,sounds/greatgatsby_english.wav,,,,,,,,,0,1,1,0,0,133,133,80,844.406357281,8.65948595674e-06,844.948083816,0.541735835647,,,,,z,1,0.533704322815,2018_Nov_15_1538,59.9846862411,chinese_cond1,001,1039,
images/tissuebox03.jpg,tissue box,z,sounds/greatgatsby_english.wav,,,,,,,,,0,1,1,0,0,134,134,58,846.071789383,8.65948595674e-06,846.665187071,0.593407629584,,,,,z,1,0.58371606123,2018_Nov_15_1538,59.9846862411,chinese_cond1,001,1039,
images/atm.jpg,atm,z,sounds/greatgatsby_english.wav,,,,,,,,,0,1,1,0,0,135,135,96,847.802385079,9.62165108831e-06,848.465637556,0.663262419627,,,,,z,1,0.650396347878,2018_Nov_15_1538,59.9846862411,chinese_cond1,001,1039,
images/button07.jpg,radish,x,sounds/greatgatsby_english.wav,,,,,,,,,0,1,1,0,0,136,136,215,849.576207325,9.94237257146e-06,850.416122295,0.839925554079,,,,,x,1,0.81709177259,2018_Nov_15_1538,59.9846862411,chinese_cond1,001,1039,
images/doll.jpg,carrot,x,sounds/greatgatsby_english.wav,,,,,,,,,0,1,1,0,0,137,137,146,851.525506676,9.62165086094e-06,852.34995805,0.824463240161,,,,,x,1,0.800440222607,2018_Nov_15_1538,59.9846862411,chinese_cond1,001,1039,
images/graduationcap.jpg,graduation cap,z,sounds/greatgatsby_english.wav,,,,,,,,,0,1,1,0,0,138,138,35,853.450247725,9.30092915041e-06,854.11707176,0.666834297209,,,,,z,1,0.650397951486,2018_Nov_15_1538,59.9846862411,chinese_cond1,001,1039,
images/parkingmeter.jpg,ear,x,sounds/greatgatsby_english.wav,,,,,,,,,0,1,1,0,0,139,139,171,855.216733142,9.62165086094e-06,856.651049337,1.43432613805,,,,,x,1,1.41726246068,2018_Nov_15_1538,59.9846862411,chinese_cond1,001,1039,
images/50dollarbill.jpg,cherry,x,sounds/greatgatsby_english.wav,,,,,,,,,0,1,1,0,0,140,140,151,857.852187707,9.62165108831e-06,859.08499542,1.23281829704,,,,,x,1,1.21720396104,2018_Nov_15_1538,59.9846862411,chinese_cond1,001,1039,
images/banana04a.jpg,banana,z,sounds/greatgatsby_english.wav,,,,,,,,,0,1,1,0,0,141,141,118,860.190666485,9.30092937779e-06,860.835429998,0.644773775741,,,,,z,1,0.633718498714,2018_Nov_15_1538,59.9846862411,chinese_cond1,001,1039,
images/squirrel.jpg,binder,x,sounds/greatgatsby_english.wav,,,,,,,,,0,1,1,0,0,142,142,132,861.936622185,8.98020766726e-06,863.352753781,1.41614121761,,,,,x,1,1.40060417554,2018_Nov_15_1538,59.9846862411,chinese_cond1,001,1039,
images/leek.jpg,donut,x,sounds/greatgatsby_english.wav,,,,,,,,,0,1,1,0,0,143,143,169,864.451746458,9.30092937779e-06,866.036750538,1.58501434267,,,,,x,1,1.56729446871,2018_Nov_15_1538,59.9846862411,chinese_cond1,001,1039,
images/highlighter03b.jpg,coin,x,sounds/greatgatsby_english.wav,,,,,,,,,0,1,1,0,0,144,144,156,867.137028988,8.98020766726e-06,867.903885159,0.76686579208,,,,,x,1,0.750417579654,2018_Nov_15_1538,59.9846862411,chinese_cond1,001,1039,
images/worldmap.jpg,scooter,x,sounds/greatgatsby_english.wav,,,,,,,,,0,1,1,0,0,145,145,220,869.032723877,9.62165108831e-06,869.804365536,0.771651922021,,,,,x,1,0.750421428315,2018_Nov_15_1538,59.9846862411,chinese_cond1,001,1039,
images/charcoalbarbecue.jpg,charcoal barbecue,z,sounds/greatgatsby_english.wav,,,,,,,,,0,1,1,0,0,146,146,77,870.920066851,8.98020743989e-06,871.921572319,1.00151508931,,,,,z,1,0.983811572152,2018_Nov_15_1538,59.9846862411,chinese_cond1,001,1039,
images/croissant02b.jpg,croissant,z,sounds/greatgatsby_english.wav,,,,,,,,,0,1,1,0,0,147,147,39,873.030859842,9.62165086094e-06,873.83884825,0.807998350208,,,,,z,1,0.783881040473,2018_Nov_15_1538,59.9846862411,chinese_cond1,001,1039,
images/lychee02a.jpg,lychee,z,sounds/greatgatsby_english.wav,,,,,,,,,0,1,1,0,0,148,148,62,874.960746871,9.62165108831e-06,875.855966129,0.895229842,,,,,z,1,0.883856088324,2018_Nov_15_1538,59.9846862411,chinese_cond1,001,1039,
images/peach01.jpg,peach,z,sounds/greatgatsby_english.wav,,,,,,,,,0,1,1,0,0,149,149,106,876.982694498,9.62165086094e-06,879.706894041,2.72420980587,,,,,z,1,2.70092861761,2018_Nov_15_1538,59.9846862411,chinese_cond1,001,1039,
images/chessknight02b (1).jpg,cockroach,x,sounds/greatgatsby_english.wav,,,,,,,,,0,1,1,0,0,150,150,155,880.813802772,9.62165086094e-06,882.057468197,1.24367536806,,,,,x,1,1.23387635794,2018_Nov_15_1538,59.9846862411,chinese_cond1,001,1039,
images/highheelshoe02a.jpg,high heel shoe,z,sounds/greatgatsby_english.wav,,,,,,,,,0,1,1,0,0,151,151,75,883.162315649,9.30092937779e-06,884.358073271,1.195767564,,,,,z,1,1.1838835421,2018_Nov_15_1538,59.9846862411,chinese_cond1,001,1039,
images/cockroach02.jpg,belt,x,sounds/greatgatsby_english.wav,,,,,,,,,0,1,1,0,0,152,152,129,885.528485219,9.30092937779e-06,886.391743597,0.863268320907,,,,,x,1,0.850281657797,2018_Nov_15_1538,59.9846862411,chinese_cond1,001,1039,
images/toothbrush03a.jpg,parrot,x,sounds/greatgatsby_english.wav,,,,,,,,,0,1,1,0,0,153,153,210,887.482943379,8.98020766726e-06,888.259041145,0.776107067167,,,,,x,1,0.767093504488,2018_Nov_15_1538,59.9846862411,chinese_cond1,001,1039,
images/bus.jpg,microphone,x,sounds/greatgatsby_english.wav,,,,,,,,,0,1,1,0,0,154,154,203,889.376104245,9.30092937779e-06,890.142880556,0.766785932376,,,,,x,1,0.750443878834,2018_Nov_15_1538,59.9846862411,chinese_cond1,001,1039,
images/gluestick.jpg,squirrel,x,sounds/greatgatsby_english.wav,,,,,,,,,0,1,1,0,0,155,155,226,891.248984274,9.62165086094e-06,891.876667432,0.6276927794,,,,,x,1,0.617097738014,2018_Nov_15_1538,59.9846862411,chinese_cond1,001,1039,
images/doorhandle.jpg,doll,x,sounds/greatgatsby_english.wav,,,,,,,,,0,1,1,0,0,156,156,168,892.977762761,8.98020766726e-06,893.727085397,0.749331936697,,,,,x,1,0.733745503482,2018_Nov_15_1538,59.9846862411,chinese_cond1,001,1039,
images/giraffe.jpg,lettuce,x,sounds/greatgatsby_english.wav,,,,,,,,,0,1,1,0,0,157,157,195,894.826674296,8.98020766726e-06,895.410841933,0.584176617592,,,,,x,1,0.567035325571,2018_Nov_15_1538,59.9846862411,chinese_cond1,001,1039,
images/bat.jpg,hand,x,sounds/greatgatsby_english.wav,,,,,,,,,0,1,1,0,0,158,158,185,896.507902583,9.62165086094e-06,897.19464151,0.686748549055,,,,,x,1,0.667066178999,2018_Nov_15_1538,59.9846862411,chinese_cond1,001,1039,
images/beermug01b.jpg,beer mug,z,sounds/greatgatsby_english.wav,,,,,,,,,0,1,1,0,0,159,159,111,898.309632427,9.30092915041e-06,899.078443076,0.76882123229,,,,,z,1,0.750418541819,2018_Nov_15_1538,59.9846862411,chinese_cond1,001,1039,
images/dice05a.jpg,band aid,x,sounds/greatgatsby_english.wav,,,,,,,,,0,1,1,0,0,160,160,126,900.269185893,9.94237279883e-06,901.07895174,0.809776110595,,,,,x,1,0.800430600955,2018_Nov_15_1538,59.9846862411,chinese_cond1,001,1039,
images/ant.jpg,ant,z,sounds/greatgatsby_english.wav,,,,,,,,,0,1,1,0,0,161,161,98,902.172102151,9.30092937779e-06,903.029440649,0.857348119031,,,,,z,1,0.833761603711,2018_Nov_15_1538,59.9846862411,chinese_cond1,001,1039,
images/mattress.jpg,cat,x,sounds/greatgatsby_english.wav,,,,,,,,,0,1,1,0,0,162,162,147,904.13203471,9.30092937779e-06,906.030207815,1.89818304742,,,,,x,1,1.88403857897,2018_Nov_15_1538,59.9846862411,chinese_cond1,001,1039,
images/blueberry02.jpg,blueberry,z,sounds/greatgatsby_english.wav,,,,,,,,,0,1,1,0,0,163,163,46,907.141625892,9.30092915041e-06,907.880687999,0.739072049489,,,,,z,1,0.717046807408,2018_Nov_15_1538,59.9846862411,chinese_cond1,001,1039,
images/tape01a.jpg,tie,x,sounds/greatgatsby_english.wav,,,,,,,,,0,1,1,0,0,164,164,232,909.079329551,9.30092937779e-06,910.164576096,1.08525680828,,,,,x,1,1.06715976559,2018_Nov_15_1538,59.9846862411,chinese_cond1,001,1039,
images/kiwi03.jpg,backpack,x,sounds/greatgatsby_english.wav,,,,,,,,,0,1,1,0,0,165,165,125,911.31703276,9.30092937779e-06,912.098400946,0.781378128319,,,,,x,1,0.767085486445,2018_Nov_15_1538,59.9846862411,chinese_cond1,001,1039,
images/envelope02a.jpg,grand piano,x,sounds/greatgatsby_english.wav,,,,,,,,,0,1,1,0,0,166,166,182,913.219312706,8.98020766726e-06,913.882209824,0.662907380704,,,,,x,1,0.650416232623,2018_Nov_15_1538,59.9846862411,chinese_cond1,001,1039,
images/leaf01a.jpg,leaf,z,sounds/greatgatsby_english.wav,,,,,,,,,0,1,1,0,0,167,167,68,914.983887262,9.62165086094e-06,915.715987464,0.732111105694,,,,,z,1,0.717077917413,2018_Nov_15_1538,59.9846862411,chinese_cond1,001,1039,
images/computermouse02a.jpg,world map,x,sounds/greatgatsby_english.wav,,,,,,,,,0,1,1,0,0,168,168,239,916.816226786,9.62165108831e-06,917.566466045,0.750249200762,,,,,x,1,0.733757049463,2018_Nov_15_1538,59.9846862411,chinese_cond1,001,1039,
images/tie01.jpg,bench,x,sounds/greatgatsby_english.wav,,,,,,,,,0,1,1,0,0,169,169,130,918.664660446,8.98020766726e-06,919.933732482,1.26908197903,,,,,x,1,1.2505542071,2018_Nov_15_1538,59.9846862411,chinese_cond1,001,1039,
images/nailclipper03a.jpg,aquarium,x,sounds/greatgatsby_english.wav,,,,,,,,,0,1,1,0,0,170,170,123,921.031417256,9.30092937779e-06,921.850878842,0.819470886167,,,,,x,1,0.800432525286,2018_Nov_15_1538,59.9846862411,chinese_cond1,001,1039,
images/egg01b (1).jpg,egg,z,sounds/greatgatsby_english.wav,,,,,,,,,0,1,1,0,0,171,171,19,922.962544195,9.62165108831e-06,923.517957849,0.555423275672,,,,,z,1,0.533688928174,2018_Nov_15_1538,59.9846862411,chinese_cond1,001,1039,
images/thumbtack02a.jpg,thumb tack,z,sounds/greatgatsby_english.wav,,,,,,,,,0,1,1,0,0,172,172,60,924.627042677,9.30092937779e-06,925.501806625,0.874773891201,,,,,z,1,0.850449715969,2018_Nov_15_1538,59.9846862411,chinese_cond1,001,1039,
images/tent.jpg,tent,z,sounds/greatgatsby_english.wav,,,,,,,,,0,1,1,0,0,173,173,11,926.626914709,9.62165108831e-06,927.252234789,0.625330343352,,,,,z,1,0.617049629759,2018_Nov_15_1538,59.9846862411,chinese_cond1,001,1039,
images/mushroom01.jpg,shower head,x,sounds/greatgatsby_english.wav,,,,,,,,,0,1,1,0,0,174,174,222,928.367338921,8.98020743989e-06,929.38611012,1.01878082136,,,,,x,1,1.0004788375,2018_Nov_15_1538,59.9846862411,chinese_cond1,001,1039,
images/scooter.jpg,pen,x,sounds/greatgatsby_english.wav,,,,,,,,,0,1,1,0,0,175,175,212,930.477098546,9.62165086094e-06,931.319930801,0.842841876504,,,,,x,1,0.833768659588,2018_Nov_15_1538,59.9846862411,chinese_cond1,001,1039,
images/wallet01.jpg,lamp,x,sounds/greatgatsby_english.wav,,,,,,,,,0,1,1,0,0,176,176,193,932.422831152,9.94237279883e-06,934.020609897,1.59778868802,,,,,x,1,1.58395403673,2018_Nov_15_1538,59.9846862411,chinese_cond1,001,1039,
images/seagull.jpg,seagull,z,sounds/greatgatsby_english.wav,,,,,,,,,0,1,1,0,0,177,177,50,935.12664851,8.98020766726e-06,936.504598508,1.37795961986,,,,,z,1,1.36725745742,2018_Nov_15_1538,59.9846862411,chinese_cond1,001,1039,
images/lollipop03b.jpg,lollipop,z,sounds/greatgatsby_english.wav,,,,,,,,,0,1,1,0,0,178,178,42,937.620641071,8.65948595674e-06,938.388399753,0.767767982224,,,,,z,1,0.750423673367,2018_Nov_15_1538,59.9846862411,chinese_cond1,001,1039,
images/glasses01b.jpg,calculator,x,sounds/greatgatsby_english.wav,,,,,,,,,0,1,1,0,0,179,179,142,939.479164635,9.62165108831e-06,940.238855242,0.759700227841,,,,,x,1,0.750416938211,2018_Nov_15_1538,59.9846862411,chinese_cond1,001,1039,
images/tank.jpg,wallet,x,sounds/greatgatsby_english.wav,,,,,,,,,0,1,1,0,0,180,180,237,941.342320704,8.98020766726e-06,942.106012634,0.763701872502,,,,,x,1,0.750433936461,2018_Nov_15_1538,59.9846862411,chinese_cond1,001,1039,
images/beachumbrella01.jpg,beach umbrella,z,sounds/greatgatsby_english.wav,,,,,,,,,0,1,1,0,0,181,181,92,943.20972441,9.62165108831e-06,943.806442529,0.596728061353,,,,,z,1,0.583720230612,2018_Nov_15_1538,59.9846862411,chinese_cond1,001,1039,
images/globe.jpg,cloud,x,sounds/greatgatsby_english.wav,,,,,,,,,0,1,1,0,0,182,182,154,944.932332211,9.30092937779e-06,945.773602551,0.841279961821,,,,,z,0,0.817108129397,2018_Nov_15_1538,59.9846862411,chinese_cond1,001,1039,
images/corn01.jpg,corn,z,sounds/greatgatsby_english.wav,,,,,,,,,0,1,1,0,0,183,183,22,946.871783161,9.62165108831e-06,947.907468582,1.03569504241,,,,,z,1,1.01715219656,2018_Nov_15_1538,59.9846862411,chinese_cond1,001,1039,
images/dragonfly02.jpg,dragon fly,z,sounds/greatgatsby_english.wav,,,,,,,,,0,1,1,0,0,184,184,29,949.004090485,9.30092937779e-06,949.741274445,0.737193582487,,,,,z,1,0.717088180507,2018_Nov_15_1538,59.9846862411,chinese_cond1,001,1039,
images/bull.jpg,button,x,sounds/greatgatsby_english.wav,,,,,,,,,0,1,1,0,0,185,185,141,950.845485585,9.30092937779e-06,952.775379029,1.92990306507,,,,,x,1,1.9173913908,2018_Nov_15_1538,59.9846862411,chinese_cond1,001,1039,
images/fryingpan01.jpg,frying pan,z,sounds/greatgatsby_english.wav,,,,,,,,,0,1,1,0,0,186,186,45,953.874442906,9.62165086094e-06,954.475640225,0.601207581348,,,,,z,1,0.583551851719,2018_Nov_15_1538,59.9846862411,chinese_cond1,001,1039,
images/corkscrew02a.jpg,masquerade mask,x,sounds/greatgatsby_english.wav,,,,,,,,,0,1,1,0,0,187,187,201,955.578340124,9.30092937779e-06,956.543006535,0.964676994761,,,,,x,1,0.950486021665,2018_Nov_15_1538,59.9846862411,chinese_cond1,001,1039,
images/hanger02a.jpg,hanger,z,sounds/greatgatsby_english.wav,,,,,,,,,0,1,1,0,0,188,188,88,957.63515437,9.30092937779e-06,958.376780968,0.741636219487,,,,,z,1,0.73374325843,2018_Nov_15_1538,59.9846862411,chinese_cond1,001,1039,
images/umbrella01.jpg,umbrella,z,sounds/greatgatsby_english.wav,,,,,,,,,0,1,1,0,0,189,189,53,959.488885069,9.62165108831e-06,960.544015525,1.05514039913,,,,,z,1,1.0337883519,2018_Nov_15_1538,59.9846862411,chinese_cond1,001,1039,
images/showerhead01.jpg,skateboard,x,sounds/greatgatsby_english.wav,,,,,,,,,0,1,1,0,0,190,190,223,961.721786433,9.62165108831e-06,962.727903878,1.00612770882,,,,,x,1,0.983825363185,2018_Nov_15_1538,59.9846862411,chinese_cond1,001,1039,
images/comb02a.jpg,diploma,x,sounds/greatgatsby_english.wav,,,,,,,,,0,1,1,0,0,191,191,166,963.830889541,9.30092937779e-06,964.928450516,1.0975712387,,,,,x,1,1.0838456328,2018_Nov_15_1538,59.9846862411,chinese_cond1,001,1039,
images/cake.jpg,cake,z,sounds/greatgatsby_english.wav,,,,,,,,,0,1,1,0,0,192,192,23,966.041457128,9.30092937779e-06,966.645562751,0.604116527174,,,,,z,1,0.583724399994,2018_Nov_15_1538,59.9846862411,chinese_cond1,001,1039,
images/nailpolish02b.jpg,nail polish,z,sounds/greatgatsby_english.wav,,,,,,,,,0,1,1,0,0,193,193,94,967.752863724,8.98020766726e-06,968.512685505,0.759831403017,,,,,z,1,0.75042431481,2018_Nov_15_1538,59.9846862411,chinese_cond1,001,1039,
images/cookingpot.jpg,grasshopper,x,sounds/greatgatsby_english.wav,,,,,,,,,0,1,1,0,0,194,194,183,969.699970622,9.62165086094e-06,970.329953354,0.629992353995,,,,,x,1,0.617191388751,2018_Nov_15_1538,59.9846862411,chinese_cond1,001,1039,
images/radio03a.jpg,radio,z,sounds/greatgatsby_english.wav,,,,,,,,,0,1,1,0,0,195,195,37,971.442262397,9.62165108831e-06,972.230286841,0.78803470722,,,,,z,1,0.767091259436,2018_Nov_15_1538,59.9846862411,chinese_cond1,001,1039,
images/diaper01a.jpg,camera,x,sounds/greatgatsby_english.wav,,,,,,,,,0,1,1,0,0,196,196,143,973.348958039,9.62165108831e-06,974.030749835,0.681802058264,,,,,x,1,0.667067782607,2018_Nov_15_1538,59.9846862411,chinese_cond1,001,1039,
images/electrictoothbrush01a.jpg,banjo,x,sounds/greatgatsby_english.wav,,,,,,,,,0,1,1,0,0,197,197,127,975.123965993,9.30092937779e-06,975.947918965,0.823963876473,,,,,x,1,0.800455296526,2018_Nov_15_1538,59.9846862411,chinese_cond1,001,1039,
images/ear.jpg,bullet,x,sounds/greatgatsby_english.wav,,,,,,,,,0,1,1,0,0,198,198,139,977.050497632,9.30092937779e-06,977.69835675,0.647869702319,,,,,x,1,0.633739666347,2018_Nov_15_1538,59.9846862411,chinese_cond1,001,1039,
images/dryingmachine01.jpg,drying machine,z,sounds/greatgatsby_english.wav,,,,,,,,,0,1,1,0,0,199,199,18,978.818099159,9.30092915041e-06,979.49900448,0.680925846577,,,,,z,1,0.667202485721,2018_Nov_15_1538,59.9846862411,chinese_cond1,001,1039,
images/swallow.jpg,mattress,x,sounds/greatgatsby_english.wav,,,,,,,,,0,1,1,0,0,200,200,202,980.598716857,8.65948595674e-06,981.299253873,0.700548562397,,,,,x,1,0.683736651563,2018_Nov_15_1538,59.9846862411,chinese_cond1,001,1039,
images/pingpongpaddle01c (1).jpg,ping pong paddle,z,sounds/greatgatsby_english.wav,,,,,,,,,0,1,1,0,0,201,201,10,982.409371745,8.98020766726e-06,983.016351996,0.606990193613,,,,,z,1,0.583710288239,2018_Nov_15_1538,59.9846862411,chinese_cond1,001,1039,
images/lightbulb03b.jpg,treadmill,x,sounds/greatgatsby_english.wav,,,,,,,,,0,1,1,0,0,202,202,234,984.117336676,9.62165108831e-06,984.900163504,0.782836449893,,,,,x,1,0.767085807167,2018_Nov_15_1538,59.9846862411,chinese_cond1,001,1039,
images/key03b.jpg,cigar,x,sounds/greatgatsby_english.wav,,,,,,,,,0,1,1,0,0,203,203,153,986.064127983,9.30092937779e-06,986.833988995,0.769869992251,,,,,x,1,0.750424635532,2018_Nov_15_1538,59.9846862411,chinese_cond1,001,1039,
images/fireextinguisher02.jpg,fire extinguisher,z,sounds/greatgatsby_english.wav,,,,,,,,,0,1,1,0,0,204,204,175,987.943097556,9.62165108831e-06,988.717796013,0.77470839983,,,,,z,1,0.750418221098,2018_Nov_15_1538,59.9846862411,chinese_cond1,001,1039,
images/honeycomb.jpg,honey comb,z,sounds/greatgatsby_english.wav,,,,,,,,,0,1,1,0,0,205,205,59,989.828715368,9.62165108831e-06,991.251764932,1.42305982614,,,,,z,1,1.40056921687,2018_Nov_15_1538,59.9846862411,chinese_cond1,001,1039,
images/mitten01.jpg,mitten,z,sounds/greatgatsby_english.wav,,,,,,,,,0,1,1,0,0,206,206,102,992.37052946,9.30092937779e-06,993.869114115,1.49859395606,,,,,z,1,1.48395204826,2018_Nov_15_1538,59.9846862411,chinese_cond1,001,1039,
images/orange.jpg,bat,x,sounds/greatgatsby_english.wav,,,,,,,,,0,1,1,0,0,207,207,128,994.992023972,8.98020743989e-06,995.686241488,0.694228099839,,,,,x,1,0.683752687648,2018_Nov_15_1538,59.9846862411,chinese_cond1,001,1039,
images/binder03b.jpg,dj mixer,x,sounds/greatgatsby_english.wav,,,,,,,,,0,1,1,0,0,208,208,167,996.797130375,9.62165108831e-06,998.020161208,1.22304045455,,,,,x,1,1.20053733714,2018_Nov_15_1538,59.9846862411,chinese_cond1,001,1039,
images/candle08a.jpg,screw driver,x,sounds/greatgatsby_english.wav,,,,,,,,,0,1,1,0,0,209,209,221,999.131989488,9.30092937779e-06,1000.35411717,1.22213826441,,,,,x,1,1.20057422013,2018_Nov_15_1538,59.9846862411,chinese_cond1,001,1039,
images/grasshopper.jpg,cauliflower,x,sounds/greatgatsby_english.wav,,,,,,,,,0,1,1,0,0,210,210,148,1001.44565692,9.94237257146e-06,1002.37126135,0.925615657377,,,,,x,1,0.917140907155,2018_Nov_15_1538,59.9846862411,chinese_cond1,001,1039,
