images,name,corrAns,sounds,trials_3.thisRepN,trials_3.thisTrialN,trials_3.thisN,trials_3.thisIndex,trials_4.thisRepN,trials_4.thisTrialN,trials_4.thisN,trials_4.thisIndex,trials_2.thisRepN,trials_2.thisTrialN,trials_2.thisN,trials_2.thisIndex,trials.thisRepN,trials.thisTrialN,trials.thisN,trials.thisIndex,begin_global,begin_routine,end_global,end_routine,key_resp_2.keys,key_resp_2.corr,key_resp_2.rt,begin_book,key_resp_1.keys,key_resp_1.corr,key_resp_1.rt,date,frameRate,expName,session,participant,
images/volleyball.jpg,volley ball,z,,0,0,0,0,,,,,,,,,,,,,,,,,,,,,,,,2018_Nov_15_1539,59.9826476727,spanish_cond2,001,1040,
images/puma.jpg,puma,z,,,,,,0,0,0,0,,,,,,,,,48.237829331,1.09044678993e-05,49.7791021005,1.5412843154,z,1,1.5172919203,,,,,2018_Nov_15_1539,59.9826476727,spanish_cond2,001,1040,
images/cherry01.jpg,highlighter,x,sounds/animalfarm_english.wav,,,,,,,,,0,0,0,1,0,0,0,187,92.0326296958,9.62158947004e-06,93.2731626934,1.24054293987,,,,81.7754292191,x,1,1.217213793,2018_Nov_15_1539,59.9826476727,spanish_cond2,001,1040,
images/lily.jpg,kiwi,x,sounds/animalfarm_english.wav,,,,,,,,,0,0,0,1,0,1,1,190,94.457602146,9.62158947004e-06,95.4570524325,0.99946054956,,,,,x,1,0.983835088525,2018_Nov_15_1539,59.9826476727,spanish_cond2,001,1040,
images/straw.jpg,straw,z,sounds/animalfarm_english.wav,,,,,,,,,0,0,0,1,0,2,2,109,96.6245835455,8.65943025019e-06,97.424166161,0.799591595606,,,,,z,1,0.783755421766,2018_Nov_15_1539,59.9826476727,spanish_cond2,001,1040,
images/ostrich.jpg,ostrich,z,sounds/animalfarm_english.wav,,,,,,,,,0,0,0,1,0,3,3,76,98.5703767943,8.98014991435e-06,99.5246864324,0.954318939008,,,,,z,1,0.933796089016,2018_Nov_15_1539,59.9826476727,spanish_cond2,001,1040,
images/coffeepot03b.jpg,coffee pot,z,sounds/animalfarm_english.wav,,,,,,,,,0,0,0,1,0,4,4,107,100.727058603,9.94230890683e-06,101.608524472,0.881476131403,,,,,z,1,0.867106287773,2018_Nov_15_1539,59.9826476727,spanish_cond2,001,1040,
images/tape01a.jpg,tie,x,sounds/animalfarm_english.wav,,,,,,,,,0,0,0,1,0,5,5,232,102.805543831,9.30086957851e-06,103.70904795,0.903514060991,,,,,x,1,0.883776332686,2018_Nov_15_1539,59.9826476727,spanish_cond2,001,1040,
images/bicycle.jpg,hand bag,x,sounds/animalfarm_english.wav,,,,,,,,,0,0,0,1,0,6,6,186,104.889055378,8.98014991435e-06,105.876090607,0.987044529998,,,,,x,1,0.966973894704,2018_Nov_15_1539,59.9826476727,spanish_cond2,001,1040,
images/toothbrush03a.jpg,parrot,x,sounds/animalfarm_english.wav,,,,,,,,,0,0,0,1,0,7,7,210,107.054567882,9.30086957851e-06,107.87674712,0.822189180972,,,,,x,1,0.800428994595,2018_Nov_15_1539,59.9826476727,spanish_cond2,001,1040,
images/floorlamp.jpg,floor lamp,z,sounds/animalfarm_english.wav,,,,,,,,,0,0,0,1,0,8,8,26,109.053830226,9.62158924267e-06,110.07728734,1.02346737704,,,,,z,1,1.00047915515,2018_Nov_15_1539,59.9826476727,spanish_cond2,001,1040,
images/plant01.jpg,plant,z,sounds/animalfarm_english.wav,,,,,,,,,0,0,0,1,0,9,9,47,111.245737636,9.62158947004e-06,112.161146226,0.91541853272,,,,,z,1,0.900467224377,2018_Nov_15_1539,59.9826476727,spanish_cond2,001,1040,
images/beermug01b.jpg,beer mug,z,sounds/animalfarm_english.wav,,,,,,,,,0,0,0,1,0,10,10,111,113.357149867,8.98014991435e-06,114.611579968,1.25443972203,,,,,z,1,1.23370615923,2018_Nov_15_1539,59.9826476727,spanish_cond2,001,1040,
images/ladybug03.jpg,giraffe,x,sounds/animalfarm_english.wav,,,,,,,,,0,0,0,1,0,11,11,178,115.746847005,9.30086957851e-06,116.845620637,1.09878325382,,,,,x,1,1.08382970043,2018_Nov_15_1539,59.9826476727,spanish_cond2,001,1040,
images/magnifyingglass01b.jpg,magnifying glass,z,sounds/animalfarm_english.wav,,,,,,,,,0,0,0,1,0,12,12,64,118.041962317,9.30086957851e-06,118.979478754,0.937526379191,,,,,z,1,0.917118346831,2018_Nov_15_1539,59.9826476727,spanish_cond2,001,1040,
images/blackolive.jpg,tank,x,sounds/animalfarm_english.wav,,,,,,,,,0,0,0,1,0,13,13,229,120.184880121,8.98015014172e-06,121.263383631,1.0785131309,,,,,x,1,1.06716574919,2018_Nov_15_1539,59.9826476727,spanish_cond2,001,1040,
images/orange.jpg,bat,x,sounds/animalfarm_english.wav,,,,,,,,,0,0,0,1,0,14,14,128,122.457798106,8.65943025019e-06,123.730977797,1.27318931311,,,,,x,1,1.25079955407,2018_Nov_15_1539,59.9826476727,spanish_cond2,001,1040,
images/dragonfly02.jpg,dragon fly,z,sounds/animalfarm_english.wav,,,,,,,,,0,0,0,1,0,15,15,29,124.870455563,8.98014991435e-06,125.797826034,0.927379451108,,,,,z,1,0.917114177476,2018_Nov_15_1539,59.9826476727,spanish_cond2,001,1040,
images/cauliflower01.jpg,glue stick,x,sounds/animalfarm_english.wav,,,,,,,,,0,0,0,1,0,16,16,181,126.97167372,9.62158947004e-06,127.831656183,0.859992405359,,,,,x,1,0.850402888016,2018_Nov_15_1539,59.9826476727,spanish_cond2,001,1040,
images/mattress.jpg,cat,x,sounds/animalfarm_english.wav,,,,,,,,,0,0,0,1,0,17,17,147,128.999873316,9.62158947004e-06,129.832152978,0.832289604707,,,,,x,1,0.817094549434,2018_Nov_15_1539,59.9826476727,spanish_cond2,001,1040,
images/feather03b.jpg,feather,z,sounds/animalfarm_english.wav,,,,,,,,,0,0,0,1,0,18,18,114,131.011020568,9.62158924267e-06,131.899336688,0.88832606155,,,,,z,1,0.867107570651,2018_Nov_15_1539,59.9826476727,spanish_cond2,001,1040,
images/marker01a.jpg,marker,z,sounds/animalfarm_english.wav,,,,,,,,,0,0,0,1,0,19,19,95,133.076126656,9.30086980588e-06,134.18322168,1.10710464569,,,,,z,1,1.08381879597,2018_Nov_15_1539,59.9826476727,spanish_cond2,001,1040,
images/grasshopper.jpg,cauliflower,x,sounds/animalfarm_english.wav,,,,,,,,,0,0,0,1,0,20,20,148,135.283073251,9.30086980588e-06,136.100370816,0.817307827997,,,,,x,1,0.800428353156,2018_Nov_15_1539,59.9826476727,spanish_cond2,001,1040,
images/paperclip04.jpg,eye drops,x,sounds/animalfarm_english.wav,,,,,,,,,0,0,0,1,0,21,21,174,137.240804006,9.62158924267e-06,138.10101867,0.860224606381,,,,,x,1,0.850571907268,2018_Nov_15_1539,59.9826476727,spanish_cond2,001,1040,
images/dice05a.jpg,band aid,x,sounds/animalfarm_english.wav,,,,,,,,,0,0,0,1,0,22,22,126,139.282679407,9.62158947004e-06,140.334739261,1.05206947557,,,,,z,0,1.03380192611,2018_Nov_15_1539,59.9826476727,spanish_cond2,001,1040,
images/swallow.jpg,mattress,x,sounds/animalfarm_english.wav,,,,,,,,,0,0,0,1,0,23,23,202,141.517926624,8.98014991435e-06,142.418622843,0.900705519072,,,,,x,1,0.883805518174,2018_Nov_15_1539,59.9826476727,spanish_cond2,001,1040,
images/baseball01a.jpg,baseball,z,sounds/animalfarm_english.wav,,,,,,,,,0,0,0,1,0,24,24,74,143.61345265,9.62158924267e-06,144.569134647,0.955692260522,,,,,z,1,0.933798654773,2018_Nov_15_1539,59.9826476727,spanish_cond2,001,1040,
images/clothespin02a.jpg,clothes pin,z,sounds/animalfarm_english.wav,,,,,,,,,0,0,0,1,0,25,25,79,145.76646735,9.62158924267e-06,147.586546837,1.82008942947,,,,,z,1,1.80067915592,2018_Nov_15_1539,59.9826476727,spanish_cond2,001,1040,
images/belt02a.jpg,snowman,x,sounds/animalfarm_english.wav,,,,,,,,,0,0,0,1,0,26,26,224,148.758793491,9.30086980588e-06,149.720391483,0.961607934348,,,,,x,1,0.950450739387,2018_Nov_15_1539,59.9826476727,spanish_cond2,001,1040,
images/arrow02.jpg,hammer,x,sounds/animalfarm_english.wav,,,,,,,,,0,0,0,1,0,27,27,184,150.921561597,8.98014991435e-06,152.571103224,1.64955189051,,,,,x,1,1.6339642744,2018_Nov_15_1539,59.9826476727,spanish_cond2,001,1040,
images/ashtray02b.jpg,ashtray,z,sounds/animalfarm_english.wav,,,,,,,,,0,0,0,1,0,28,28,43,153.777251227,8.98015014172e-06,154.955036068,1.17779446233,,,,,z,1,1.16719564027,2018_Nov_15_1539,59.9826476727,spanish_cond2,001,1040,
images/cigar.jpg,crocodile,x,sounds/animalfarm_english.wav,,,,,,,,,0,0,0,1,0,29,29,162,156.092661678,8.98015014172e-06,157.539045372,1.44639331518,,,,,x,1,1.43396510827,2018_Nov_15_1539,59.9826476727,spanish_cond2,001,1040,
images/mushroom01.jpg,shower head,x,sounds/animalfarm_english.wav,,,,,,,,,0,0,0,1,0,30,30,222,158.724760326,9.62158924267e-06,159.889568209,1.16481846627,,,,,x,1,1.15050988009,2018_Nov_15_1539,59.9826476727,spanish_cond2,001,1040,
images/giraffe.jpg,lettuce,x,sounds/animalfarm_english.wav,,,,,,,,,0,0,0,1,0,31,31,195,161.011246355,8.98015014172e-06,161.873390468,0.862153735037,,,,,x,1,0.850435922139,2018_Nov_15_1539,59.9826476727,spanish_cond2,001,1040,
images/rubberglove02a.jpg,lady bug,x,sounds/animalfarm_english.wav,,,,,,,,,0,0,0,1,0,32,32,192,163.047157334,9.30086980588e-06,163.873889829,0.826742437752,,,,,x,1,0.817100963827,2018_Nov_15_1539,59.9826476727,spanish_cond2,001,1040,
images/ant.jpg,ant,z,sounds/animalfarm_english.wav,,,,,,,,,0,0,0,1,0,33,33,98,165.032571966,8.98014991435e-06,165.957995669,0.925449681012,,,,,z,1,0.917304364225,2018_Nov_15_1539,59.9826476727,spanish_cond2,001,1040,
images/fryingpan01.jpg,frying pan,z,sounds/animalfarm_english.wav,,,,,,,,,0,0,0,1,0,34,34,45,167.126561103,9.30086957851e-06,167.958233964,0.831682482421,,,,,z,1,0.817101284546,2018_Nov_15_1539,59.9826476727,spanish_cond2,001,1040,
images/aquarium.jpg,computer mouse,x,sounds/animalfarm_english.wav,,,,,,,,,0,0,0,1,0,35,35,159,169.162673173,8.98014991435e-06,170.108763728,0.946100177422,,,,,x,1,0.933795447577,2018_Nov_15_1539,59.9826476727,spanish_cond2,001,1040,
images/watermelon01.jpg,orange,x,sounds/animalfarm_english.wav,,,,,,,,,0,0,0,1,0,36,36,207,171.326227041,9.30086957851e-06,172.192676175,0.866459075532,,,,,x,1,0.850475049936,2018_Nov_15_1539,59.9826476727,spanish_cond2,001,1040,
images/knife04.jpg,tooth brush,x,sounds/animalfarm_english.wav,,,,,,,,,0,0,0,1,0,37,37,233,173.35867072,8.98014991435e-06,174.143088107,0.784426687979,,,,,x,1,0.767087621889,2018_Nov_15_1539,59.9826476727,spanish_cond2,001,1040,
images/treadmill.jpg,lily,x,sounds/animalfarm_english.wav,,,,,,,,,0,0,0,1,0,38,38,199,175.328538788,9.30086957851e-06,176.143594523,0.815065997688,,,,,x,1,0.800434446829,2018_Nov_15_1539,59.9826476727,spanish_cond2,001,1040,
images/worldmap.jpg,scooter,x,sounds/animalfarm_english.wav,,,,,,,,,0,0,0,1,0,39,39,220,177.336916627,9.62158924267e-06,178.210759631,0.873853908354,,,,,x,1,0.850431432065,2018_Nov_15_1539,59.9826476727,spanish_cond2,001,1040,
images/masquerademask02b.jpg,mirror,x,sounds/animalfarm_english.wav,,,,,,,,,0,0,0,1,0,40,40,204,179.387479362,9.30086957851e-06,180.377966817,0.990497076961,,,,,x,1,0.967143555395,2018_Nov_15_1539,59.9826476727,spanish_cond2,001,1040,
images/candle08a.jpg,screw driver,x,sounds/animalfarm_english.wav,,,,,,,,,0,0,0,1,0,41,41,221,181.499090118,8.98015014172e-06,182.461817364,0.962736867493,,,,,x,1,0.950473510482,2018_Nov_15_1539,59.9826476727,spanish_cond2,001,1040,
images/axe01.jpg,axe,z,sounds/animalfarm_english.wav,,,,,,,,,0,0,0,1,0,42,42,104,183.628689078,9.62158924267e-06,184.462303575,0.833624119143,,,,,z,1,0.817094870153,2018_Nov_15_1539,59.9826476727,spanish_cond2,001,1040,
images/handbag02a.jpg,candle,x,sounds/animalfarm_english.wav,,,,,,,,,0,0,0,1,0,43,43,144,185.640454357,8.98014991435e-06,186.679523141,1.03907808497,,,,,x,1,1.01715336942,2018_Nov_15_1539,59.9826476727,spanish_cond2,001,1040,
images/highheelshoe02a.jpg,high heel shoe,z,sounds/animalfarm_english.wav,,,,,,,,,0,0,0,1,0,44,44,75,187.839900923,8.98014991435e-06,188.746680872,0.906789249991,,,,,z,1,0.883774408368,2018_Nov_15_1539,59.9826476727,spanish_cond2,001,1040,
images/lightswitch02a.jpg,fork,x,sounds/animalfarm_english.wav,,,,,,,,,0,0,0,1,0,45,45,177,189.935049141,9.62158924267e-06,190.847212369,0.912173491367,,,,,x,1,0.900425851543,2018_Nov_15_1539,59.9826476727,spanish_cond2,001,1040,
images/apple06.jpg,apple,z,sounds/animalfarm_english.wav,,,,,,,,,0,0,0,1,0,46,46,13,192.054917787,9.62158924267e-06,192.964374141,0.909466296855,,,,,z,1,0.900429379459,2018_Nov_15_1539,59.9826476727,spanish_cond2,001,1040,
images/hanger02a.jpg,hanger,z,sounds/animalfarm_english.wav,,,,,,,,,0,0,0,1,0,47,47,88,194.118472874,9.62158924267e-06,195.648390885,1.52992827426,,,,,z,1,1.51726914921,2018_Nov_15_1539,59.9826476727,spanish_cond2,001,1040,
images/comb02a.jpg,diploma,x,sounds/animalfarm_english.wav,,,,,,,,,0,0,0,1,0,48,48,166,196.840782261,8.98015014172e-06,198.065660291,1.22488733119,,,,,x,1,1.20053156074,2018_Nov_15_1539,59.9826476727,spanish_cond2,001,1040,
images/lemon02.jpg,lemon,z,sounds/animalfarm_english.wav,,,,,,,,,0,0,0,1,0,49,49,14,199.180151431,9.30086957851e-06,199.932777163,0.752635353311,,,,,z,1,0.733687557489,2018_Nov_15_1539,59.9826476727,spanish_cond2,001,1040,
images/lychee02a.jpg,lychee,z,sounds/animalfarm_english.wav,,,,,,,,,0,0,0,1,0,50,50,62,201.125773736,9.94230890683e-06,202.583444837,1.45768168447,,,,,z,1,1.43392598047,2018_Nov_15_1539,59.9826476727,spanish_cond2,001,1040,
images/plate01b.jpg,plate,z,sounds/animalfarm_english.wav,,,,,,,,,0,0,0,1,0,51,51,3,203.756425618,9.94230890683e-06,205.3007789,1.5443635447,,,,,z,1,1.53394721211,2018_Nov_15_1539,59.9826476727,spanish_cond2,001,1040,
images/electricguitar02.jpg,electric guitar,z,sounds/animalfarm_english.wav,,,,,,,,,0,0,0,1,0,52,52,100,206.474542878,8.98014991435e-06,207.568023354,1.09349009682,,,,,z,1,1.08384862289,2018_Nov_15_1539,59.9826476727,spanish_cond2,001,1040,
images/medal01.jpg,medal,z,sounds/animalfarm_english.wav,,,,,,,,,0,0,0,1,0,53,53,115,208.715677546,8.98014991435e-06,210.118630027,1.40296274392,,,,,z,1,1.38390686558,2018_Nov_15_1539,59.9826476727,spanish_cond2,001,1040,
images/paintbrush03a.jpg,paint brush,z,sounds/animalfarm_english.wav,,,,,,,,,0,0,0,1,0,54,54,0,211.289065898,9.94230890683e-06,212.319164474,1.03010883942,,,,,z,1,1.01714021991,2018_Nov_15_1539,59.9826476727,spanish_cond2,001,1040,
images/binder03b.jpg,dj mixer,x,sounds/animalfarm_english.wav,,,,,,,,,0,0,0,1,0,55,55,167,213.488090076,1.05837482351e-05,214.403021436,0.91494194333,,,,,x,1,0.900455999189,2018_Nov_15_1539,59.9826476727,spanish_cond2,001,1040,
images/gluestick.jpg,squirrel,x,sounds/animalfarm_english.wav,,,,,,,,,0,0,0,1,0,56,56,226,215.602328809,9.30086980588e-06,216.87029392,1.26797473242,,,,,x,1,1.25053848828,2018_Nov_15_1539,59.9826476727,spanish_cond2,001,1040,
images/hand01a.jpg,cupcake,x,sounds/animalfarm_english.wav,,,,,,,,,0,0,0,1,0,57,57,163,218.058623061,9.30086980588e-06,219.037488598,0.978875800677,,,,,x,1,0.967128160852,2018_Nov_15_1539,59.9826476727,spanish_cond2,001,1040,
images/highlighter03b.jpg,coin,x,sounds/animalfarm_english.wav,,,,,,,,,0,0,0,1,0,58,58,156,220.225760651,8.98014991435e-06,221.304712526,1.07896117625,,,,,x,1,1.06714778889,2018_Nov_15_1539,59.9826476727,spanish_cond2,001,1040,
images/microphone01.jpg,diaper,x,sounds/animalfarm_english.wav,,,,,,,,,0,0,0,1,0,59,59,164,222.404834464,9.30086957851e-06,223.405346653,1.00052181086,,,,,x,1,0.983914947716,2018_Nov_15_1539,59.9826476727,spanish_cond2,001,1040,
images/bowtie.jpg,bowtie,z,sounds/animalfarm_english.wav,,,,,,,,,0,0,0,1,0,60,60,89,224.619033813,8.98015014172e-06,225.5057489,0.88672470837,,,,,z,1,0.867105325614,2018_Nov_15_1539,59.9826476727,spanish_cond2,001,1040,
images/graduationcap.jpg,graduation cap,z,sounds/animalfarm_english.wav,,,,,,,,,0,0,0,1,0,61,61,35,226.695078044,9.62158947004e-06,227.856341012,1.16127323133,,,,,z,1,1.15052014312,2018_Nov_15_1539,59.9826476727,spanish_cond2,001,1040,
images/sunglasses03a.jpg,sun glasses,z,sounds/animalfarm_english.wav,,,,,,,,,0,0,0,1,0,62,62,17,228.991661289,9.30086980588e-06,230.056886043,1.06523405478,,,,,z,1,1.05049153493,2018_Nov_15_1539,59.9826476727,spanish_cond2,001,1040,
images/dolphin01.jpg,dolphin,z,sounds/animalfarm_english.wav,,,,,,,,,0,0,0,1,0,63,63,99,231.183461899,9.30086957851e-06,232.224073665,1.0406213879,,,,,z,1,1.01714214423,2018_Nov_15_1539,59.9826476727,spanish_cond2,001,1040,
images/bowlingball.jpg,bowling ball,z,sounds/animalfarm_english.wav,,,,,,,,,0,0,0,1,0,64,64,20,233.393452444,9.62158947004e-06,234.274580916,0.881138734338,,,,,z,1,0.867106608492,2018_Nov_15_1539,59.9826476727,spanish_cond2,001,1040,
images/broom02.jpg,broom,z,sounds/animalfarm_english.wav,,,,,,,,,0,0,0,1,0,65,65,116,235.437386225,9.30086957851e-06,236.308455966,0.871079683437,,,,,z,1,0.850474087777,2018_Nov_15_1539,59.9826476727,spanish_cond2,001,1040,
images/triangleruler02.jpg,bottle of red wine,x,sounds/animalfarm_english.wav,,,,,,,,,0,0,0,1,0,66,66,134,237.511431731,8.98014991435e-06,238.558976815,1.04755470515,,,,,x,1,1.03381828282,2018_Nov_15_1539,59.9826476727,spanish_cond2,001,1040,
images/parkbench03.jpg,park bench,z,sounds/animalfarm_english.wav,,,,,,,,,0,0,0,1,0,67,67,71,239.71626767,9.30086957851e-06,240.97623275,1.25997502235,,,,,z,1,1.25053367749,2018_Nov_15_1539,59.9826476727,spanish_cond2,001,1040,
images/redfox.jpg,red fox,z,sounds/animalfarm_english.wav,,,,,,,,,0,0,0,1,0,68,68,1,242.117651832,9.30086957851e-06,243.026744811,0.90910260078,,,,,z,1,0.90045567847,2018_Nov_15_1539,59.9826476727,spanish_cond2,001,1040,
images/radish01.jpg,raisin,x,sounds/animalfarm_english.wav,,,,,,,,,0,0,0,1,0,69,69,214,244.206092839,8.65943047756e-06,245.310633973,1.10455043445,,,,,x,1,1.08382553108,2018_Nov_15_1539,59.9826476727,spanish_cond2,001,1040,
images/nametag01a.jpg,name tag,z,sounds/animalfarm_english.wav,,,,,,,,,0,0,0,1,0,70,70,108,246.459334674,9.30086957851e-06,247.56119427,1.10186953895,,,,,z,1,1.08382809684,2018_Nov_15_1539,59.9826476727,spanish_cond2,001,1040,
images/leek.jpg,donut,x,sounds/animalfarm_english.wav,,,,,,,,,0,0,0,1,0,71,71,169,248.689363782,9.62158924267e-06,249.595032438,0.905678597865,,,,,x,1,0.883775691247,2018_Nov_15_1539,59.9826476727,spanish_cond2,001,1040,
images/sock03.jpg,sock,z,sounds/animalfarm_english.wav,,,,,,,,,0,0,0,1,0,72,72,90,250.776624862,9.30086980588e-06,251.495492606,0.718877686508,,,,,z,1,0.700396858487,2018_Nov_15_1539,59.9826476727,spanish_cond2,001,1040,
images/gorilla.jpg,gorilla,z,sounds/animalfarm_english.wav,,,,,,,,,0,0,0,1,0,73,73,80,252.678492669,8.98015014172e-06,253.562818074,0.884335026306,,,,,z,1,0.867251253052,2018_Nov_15_1539,59.9826476727,spanish_cond2,001,1040,
images/lightbulb03b.jpg,treadmill,x,sounds/animalfarm_english.wav,,,,,,,,,0,0,0,1,0,74,74,234,254.732286654,9.30086957851e-06,255.896581385,1.16430435268,,,,,x,1,1.15050859721,2018_Nov_15_1539,59.9826476727,spanish_cond2,001,1040,
images/safe.jpg,safe,z,sounds/animalfarm_english.wav,,,,,,,,,0,0,0,1,0,75,75,78,257.08886115,9.30086957851e-06,257.96375836,0.874907151663,,,,,z,1,0.850434959981,2018_Nov_15_1539,59.9826476727,spanish_cond2,001,1040,
images/candy.jpg,candy,z,sounds/animalfarm_english.wav,,,,,,,,,0,0,0,1,0,76,76,31,259.136585516,9.62158924267e-06,260.280992743,1.14441748974,,,,,z,1,1.13383342078,2018_Nov_15_1539,59.9826476727,spanish_cond2,001,1040,
images/rhinoceros01.jpg,envelope,x,sounds/animalfarm_english.wav,,,,,,,,,0,0,0,1,0,77,77,173,261.464470357,8.98014991435e-06,262.431536298,0.967075562831,,,,,x,1,0.950471265444,2018_Nov_15_1539,59.9826476727,spanish_cond2,001,1040,
images/flamingo.jpg,flamingo,z,sounds/animalfarm_english.wav,,,,,,,,,0,0,0,1,0,78,78,52,263.6416144,9.62158947004e-06,264.582060932,0.940456794574,,,,,z,1,0.917078898315,2018_Nov_15_1539,59.9826476727,spanish_cond2,001,1040,
images/lock02a.jpg,lock,z,sounds/animalfarm_english.wav,,,,,,,,,0,0,0,1,0,79,79,65,265.784786215,9.62158947004e-06,267.382762217,1.59798594478,,,,,z,1,1.58396376125,2018_Nov_15_1539,59.9826476727,spanish_cond2,001,1040,
images/honeycomb.jpg,honey comb,z,sounds/animalfarm_english.wav,,,,,,,,,0,0,0,1,0,80,80,59,268.570669291,9.94230890683e-06,269.566634637,0.995976251352,,,,,z,1,0.983816166066,2018_Nov_15_1539,59.9826476727,spanish_cond2,001,1040,
images/bull.jpg,button,x,sounds/animalfarm_english.wav,,,,,,,,,0,0,0,1,0,81,81,141,270.745385165,9.30086957851e-06,271.783832394,1.03845685102,,,,,x,1,1.01714310639,2018_Nov_15_1539,59.9826476727,spanish_cond2,001,1040,
images/croissant02b.jpg,croissant,z,sounds/animalfarm_english.wav,,,,,,,,,0,0,0,1,0,82,82,39,272.943634806,1.0263028571e-05,273.93438461,0.990760708508,,,,,z,1,0.967069469158,2018_Nov_15_1539,59.9826476727,spanish_cond2,001,1040,
images/blueberry02.jpg,blueberry,z,sounds/animalfarm_english.wav,,,,,,,,,0,0,0,1,0,83,83,46,275.137568842,8.98014991435e-06,275.918183136,0.780623594446,,,,,z,1,0.767074151664,2018_Nov_15_1539,59.9826476727,spanish_cond2,001,1040,
images/table02.jpg,table,z,sounds/animalfarm_english.wav,,,,,,,,,0,0,0,1,0,84,84,49,277.103828174,9.30086957851e-06,277.968699046,0.864880493446,,,,,z,1,0.850440091495,2018_Nov_15_1539,59.9826476727,spanish_cond2,001,1040,
images/lip.jpg,boxing glove,x,sounds/animalfarm_english.wav,,,,,,,,,0,0,0,1,0,85,85,136,279.144097091,9.30086980588e-06,280.686030543,1.54194371499,,,,,x,1,1.51726850777,2018_Nov_15_1539,59.9826476727,spanish_cond2,001,1040,
images/backpack01b.jpg,swallow,x,sounds/animalfarm_english.wav,,,,,,,,,0,0,0,1,0,86,86,228,281.885858765,9.30086957851e-06,282.903245619,1.01739679563,,,,,x,1,1.00047594795,2018_Nov_15_1539,59.9826476727,spanish_cond2,001,1040,
images/diploma01.jpg,glasses,x,sounds/animalfarm_english.wav,,,,,,,,,0,0,0,1,0,87,87,179,284.080972409,9.30086957851e-06,284.920511881,0.839549093839,,,,,x,1,0.817202631954,2018_Nov_15_1539,59.9826476727,spanish_cond2,001,1040,
images/squirrel.jpg,binder,x,sounds/animalfarm_english.wav,,,,,,,,,0,0,0,1,0,88,88,132,286.115757662,9.30086957851e-06,287.237650369,1.12190265004,,,,,x,1,1.10049910391,2018_Nov_15_1539,59.9826476727,spanish_cond2,001,1040,
images/scooter.jpg,pen,x,sounds/animalfarm_english.wav,,,,,,,,,0,0,0,1,0,89,89,212,288.354270767,9.30086957851e-06,289.271473463,0.917212638406,,,,,x,1,0.900441887525,2018_Nov_15_1539,59.9826476727,spanish_cond2,001,1040,
images/bullet (2).jpg,rubber glove,x,sounds/animalfarm_english.wav,,,,,,,,,0,0,0,1,0,90,90,217,290.45374902,9.62158924267e-06,291.872136455,1.41839769749,,,,,x,1,1.40058909784,2018_Nov_15_1539,59.9826476727,spanish_cond2,001,1040,
images/seagull.jpg,seagull,z,sounds/animalfarm_english.wav,,,,,,,,,0,0,0,1,0,91,91,50,293.061106393,8.98014991435e-06,294.039586105,0.978489333506,,,,,z,1,0.967396923914,2018_Nov_15_1539,59.9826476727,spanish_cond2,001,1040,
images/bed.jpg,bed,z,sounds/animalfarm_english.wav,,,,,,,,,0,0,0,1,0,92,92,103,295.242939678,9.62158947004e-06,296.106493675,0.86356361859,,,,,z,1,0.850433356382,2018_Nov_15_1539,59.9826476727,spanish_cond2,001,1040,
images/showerhead01.jpg,skateboard,x,sounds/animalfarm_english.wav,,,,,,,,,0,0,0,1,0,93,93,223,297.283132905,9.30086980588e-06,298.457081297,1.17395865539,,,,,x,1,1.15051276657,2018_Nov_15_1539,59.9826476727,spanish_cond2,001,1040,
images/pingpongpaddle01c (1).jpg,ping pong paddle,z,sounds/animalfarm_english.wav,,,,,,,,,0,0,0,1,0,94,94,10,299.597172279,8.98015014172e-06,300.874346213,1.27718355555,,,,,z,1,1.26720500528,2018_Nov_15_1539,59.9826476727,spanish_cond2,001,1040,
images/headphones02b.jpg,headphones,z,sounds/animalfarm_english.wav,,,,,,,,,0,0,0,1,0,95,95,101,302.007661672,9.62158924267e-06,303.374972899,1.36732052849,,,,,z,1,1.35056773791,2018_Nov_15_1539,59.9826476727,spanish_cond2,001,1040,
images/hairpin.jpg,hair pin,z,sounds/animalfarm_english.wav,,,,,,,,,0,0,0,1,0,96,96,28,304.501909885,9.30086957851e-06,305.475474248,0.973573984249,,,,,z,1,0.950461323135,2018_Nov_15_1539,59.9826476727,spanish_cond2,001,1040,
images/button07.jpg,radish,x,sounds/animalfarm_english.wav,,,,,,,,,0,0,0,1,0,97,97,215,306.667358887,9.30086957851e-06,307.976088426,1.30873916128,,,,,x,1,1.30054317079,2018_Nov_15_1539,59.9826476727,spanish_cond2,001,1040,
images/acousticguitar02.jpg,acoustic guitar,z,sounds/animalfarm_english.wav,,,,,,,,,0,0,0,1,0,98,98,97,309.147609292,9.30086980588e-06,310.026618127,0.879018777494,,,,,z,1,0.867113343605,2018_Nov_15_1539,59.9826476727,spanish_cond2,001,1040,
images/lamp04b.jpg,parking meter,x,sounds/animalfarm_english.wav,,,,,,,,,0,0,0,1,0,99,99,209,311.216063372,8.98014991435e-06,312.143795935,0.927742185024,,,,,x,1,0.917127647701,2018_Nov_15_1539,59.9826476727,spanish_cond2,001,1040,
images/8ball.jpg,nail clipper,x,sounds/animalfarm_english.wav,,,,,,,,,0,0,0,1,0,100,100,206,313.361271115,9.30086957851e-06,314.361007483,0.999745990042,,,,,x,1,0.983810072393,2018_Nov_15_1539,59.9826476727,spanish_cond2,001,1040,
images/cactus.jpg,cactus,z,sounds/animalfarm_english.wav,,,,,,,,,0,0,0,1,0,101,101,70,315.559476175,9.30086980588e-06,316.344834874,0.785368320853,,,,,z,1,0.767091791245,2018_Nov_15_1539,59.9826476727,spanish_cond2,001,1040,
images/pepper05a.jpg,lighter,x,sounds/animalfarm_english.wav,,,,,,,,,0,0,0,1,0,102,102,198,317.535634839,9.62158924267e-06,318.411991323,0.876366746761,,,,,x,1,0.867095383305,2018_Nov_15_1539,59.9826476727,spanish_cond2,001,1040,
images/candycane01a.jpg,lip,x,sounds/animalfarm_english.wav,,,,,,,,,0,0,0,1,0,103,103,200,319.55731228,9.94230890683e-06,320.379274391,0.821972374493,,,,,x,1,0.800534832078,2018_Nov_15_1539,59.9826476727,spanish_cond2,001,1040,
images/razor04a.jpg,razor,z,sounds/animalfarm_english.wav,,,,,,,,,0,0,0,1,0,104,104,36,321.561743342,9.62158924267e-06,322.496346362,0.934612961949,,,,,z,1,0.917096537896,2018_Nov_15_1539,59.9826476727,spanish_cond2,001,1040,
images/banjo.jpg,knife,x,sounds/animalfarm_english.wav,,,,,,,,,0,0,0,1,0,105,105,191,323.695697995,9.30086980588e-06,325.297036101,1.60134772809,,,,,x,1,1.58390635243,2018_Nov_15_1539,59.9826476727,spanish_cond2,001,1040,
images/diaper01a.jpg,camera,x,sounds/animalfarm_english.wav,,,,,,,,,0,0,0,1,0,106,106,143,326.492612864,8.98014991435e-06,327.897677284,1.40507404134,,,,,x,1,1.38390526198,2018_Nov_15_1539,59.9826476727,spanish_cond2,001,1040,
images/fireextinguisher02.jpg,fire extinguisher,z,sounds/animalfarm_english.wav,,,,,,,,,0,0,0,1,0,107,107,175,329.083728032,9.30086980588e-06,330.064870038,0.981151627267,,,,,z,1,0.967102182561,2018_Nov_15_1539,59.9826476727,spanish_cond2,001,1040,
images/gps.jpg,gps,z,sounds/animalfarm_english.wav,,,,,,,,,0,0,0,1,0,108,108,21,331.250691151,8.98015014172e-06,332.34876369,1.09808183996,,,,,z,1,1.08382200316,2018_Nov_15_1539,59.9826476727,spanish_cond2,001,1040,
images/barrel01.jpg,barrel,z,sounds/animalfarm_english.wav,,,,,,,,,0,0,0,1,0,109,109,9,333.525232939,9.30086980588e-06,334.282589285,0.757365968054,,,,,z,1,0.733746569903,2018_Nov_15_1539,59.9826476727,spanish_cond2,001,1040,
images/chameleon.jpg,50 dollar bill,x,sounds/animalfarm_english.wav,,,,,,,,,0,0,0,1,0,110,110,120,335.421774234,8.98014991435e-06,336.33311642,0.91135180764,,,,,x,1,0.900478449564,2018_Nov_15_1539,59.9826476727,spanish_cond2,001,1040,
images/icecube02 (2).jpg,aloe,x,sounds/animalfarm_english.wav,,,,,,,,,0,0,0,1,0,111,111,122,337.511075091,8.98014991435e-06,339.217135217,1.7060707097,,,,,x,1,1.6839769749,2018_Nov_15_1539,59.9826476727,spanish_cond2,001,1040,
images/hairdryer03a.jpg,hairdryer,z,sounds/animalfarm_english.wav,,,,,,,,,0,0,0,1,0,112,112,119,340.336214251,9.62158947004e-06,341.267682236,0.931478248152,,,,,z,1,0.917159719665,2018_Nov_15_1539,59.9826476727,spanish_cond2,001,1040,
images/parrot01.jpg,chameleon,x,sounds/animalfarm_english.wav,,,,,,,,,0,0,0,1,0,113,113,150,342.504771346,1.12251875635e-05,343.751589166,1.24682808273,,,,,x,1,1.23373309968,2018_Nov_15_1539,59.9826476727,spanish_cond2,001,1040,
images/scissors04a.jpg,leek,x,sounds/animalfarm_english.wav,,,,,,,,,0,0,0,1,0,114,114,194,344.871078721,9.62158924267e-06,345.852103985,0.981035206037,,,,,x,1,0.967136820283,2018_Nov_15_1539,59.9826476727,spanish_cond2,001,1040,
images/calculator02b.jpg,dice,x,sounds/animalfarm_english.wav,,,,,,,,,0,0,0,1,0,115,115,165,347.029768556,9.62158947004e-06,348.236022076,1.20626410365,,,,,x,1,1.1838496492,2018_Nov_15_1539,59.9826476727,spanish_cond2,001,1040,
images/broadsword.jpg,teapot,x,sounds/animalfarm_english.wav,,,,,,,,,0,0,0,1,0,116,116,231,349.347528919,9.30086957851e-06,350.503245683,1.15572638509,,,,,x,1,1.13382989287,2018_Nov_15_1539,59.9826476727,spanish_cond2,001,1040,
images/electrictoothbrush01a.jpg,banjo,x,sounds/animalfarm_english.wav,,,,,,,,,0,0,0,1,0,117,117,127,351.669687632,9.30086957851e-06,352.853833947,1.1841565779,,,,,x,1,1.16719050875,2018_Nov_15_1539,59.9826476727,spanish_cond2,001,1040,
images/cupcake.jpg,scissors,x,sounds/animalfarm_english.wav,,,,,,,,,0,0,0,1,0,118,118,219,354.006108747,9.30086980588e-06,354.804319645,0.798220839849,,,,,x,1,0.783762477598,2018_Nov_15_1539,59.9826476727,spanish_cond2,001,1040,
images/tent.jpg,tent,z,sounds/animalfarm_english.wav,,,,,,,,,0,0,0,1,0,119,119,11,355.962615635,8.98015014172e-06,357.121553707,1.15894769319,,,,,z,1,1.15051469088,2018_Nov_15_1539,59.9826476727,spanish_cond2,001,1040,
images/peach01.jpg,peach,z,sounds/animalfarm_english.wav,,,,,,,,,0,0,0,1,0,120,120,106,358.272558778,8.98014991435e-06,359.338769745,1.06622090912,,,,,z,1,1.05049089349,2018_Nov_15_1539,59.9826476727,spanish_cond2,001,1040,
images/camera01a.jpg,bull,x,sounds/animalfarm_english.wav,,,,,,,,,0,0,0,1,0,121,121,138,360.492633711,9.62158924267e-06,361.472623692,0.980000243747,,,,,x,1,0.967124953656,2018_Nov_15_1539,59.9826476727,spanish_cond2,001,1040,
images/basketball01.jpg,basket ball,z,sounds/animalfarm_english.wav,,,,,,,,,0,0,0,1,0,122,122,33,362.686084424,8.98015014172e-06,363.873209583,1.18713445979,,,,,z,1,1.16717543493,2018_Nov_15_1539,59.9826476727,spanish_cond2,001,1040,
images/ruler02b.jpg,watermelon,x,sounds/animalfarm_english.wav,,,,,,,,,0,0,0,1,0,123,123,238,365.003598795,9.62158924267e-06,365.957057885,0.953469031953,,,,,x,1,0.933785505268,2018_Nov_15_1539,59.9826476727,spanish_cond2,001,1040,
images/pen03c.jpg,pepper,x,sounds/animalfarm_english.wav,,,,,,,,,0,0,0,1,0,124,124,211,367.111684522,8.98014991435e-06,369.27470311,2.1630278885,,,,,x,1,2.15091751476,2018_Nov_15_1539,59.9826476727,spanish_cond2,001,1040,
images/butterfly.jpg,butterfly,z,sounds/animalfarm_english.wav,,,,,,,,,0,0,0,1,0,125,125,91,370.46144565,8.98014991435e-06,371.325055132,0.863619103088,,,,,z,1,0.850432394224,2018_Nov_15_1539,59.9826476727,spanish_cond2,001,1040,
images/cocktailshrimp01.jpg,cocktail shrimp,z,sounds/animalfarm_english.wav,,,,,,,,,0,0,0,1,0,126,126,30,372.516474727,8.98014991435e-06,373.442309271,0.925844486893,,,,,z,1,0.91716485118,2018_Nov_15_1539,59.9826476727,spanish_cond2,001,1040,
images/thumbtack02a.jpg,thumb tack,z,sounds/animalfarm_english.wav,,,,,,,,,0,0,0,1,0,127,127,60,374.625486051,8.98015014172e-06,375.45940908,0.833932330721,,,,,z,1,0.817100322387,2018_Nov_15_1539,59.9826476727,spanish_cond2,001,1040,
images/panda.jpg,panda,z,sounds/animalfarm_english.wav,,,,,,,,,0,0,0,1,0,128,128,83,376.652250746,9.30086980588e-06,377.726632367,1.07439156276,,,,,z,1,1.05048415837,2018_Nov_15_1539,59.9826476727,spanish_cond2,001,1040,
images/licenseplate.jpg,license plate,z,sounds/animalfarm_english.wav,,,,,,,,,0,0,0,1,0,129,129,40,378.870985392,9.9423091342e-06,380.094051356,1.22307654808,,,,,z,1,1.20069576919,2018_Nov_15_1539,59.9826476727,spanish_cond2,001,1040,
images/hairband.jpg,hairband,z,sounds/animalfarm_english.wav,,,,,,,,,0,0,0,1,0,130,130,66,381.297888574,9.62158924267e-06,382.577822301,1.2799436688,,,,,z,1,1.26720340168,2018_Nov_15_1539,59.9826476727,spanish_cond2,001,1040,
images/cat.jpg,black olive,x,sounds/animalfarm_english.wav,,,,,,,,,0,0,0,1,0,131,131,133,383.737927792,8.98014991435e-06,384.678344176,0.940425684768,,,,,x,1,0.917116101794,2018_Nov_15_1539,59.9826476727,spanish_cond2,001,1040,
images/bottleofredwine02.jpg,pipe,x,sounds/animalfarm_english.wav,,,,,,,,,0,0,0,1,0,132,132,213,385.87249983,9.30086957851e-06,386.712182023,0.8396921348,,,,,x,1,0.81709807735,2018_Nov_15_1539,59.9826476727,spanish_cond2,001,1040,
images/battery03b.jpg,battery,z,sounds/animalfarm_english.wav,,,,,,,,,0,0,0,1,0,133,133,34,387.895181765,8.98014991435e-06,388.612646681,0.717474217348,,,,,z,1,0.700396537767,2018_Nov_15_1539,59.9826476727,spanish_cond2,001,1040,
images/carrot02.jpg,corkscrew,x,sounds/animalfarm_english.wav,,,,,,,,,0,0,0,1,0,134,134,161,389.784105968,9.62158947004e-06,390.646488697,0.862392671171,,,,,x,1,0.850437525738,2018_Nov_15_1539,59.9826476727,spanish_cond2,001,1040,
images/gamecontroller01.jpg,game controller,z,sounds/animalfarm_english.wav,,,,,,,,,0,0,0,1,0,135,135,112,391.840953204,9.62158924267e-06,393.363832061,1.52288847808,,,,,z,1,1.50060583941,2018_Nov_15_1539,59.9826476727,spanish_cond2,001,1040,
images/tie01.jpg,bench,x,sounds/animalfarm_english.wav,,,,,,,,,0,0,0,1,0,136,136,130,394.53180256,8.65943025019e-06,395.547696143,1.01590320425,,,,,x,1,1.00047530651,2018_Nov_15_1539,59.9826476727,spanish_cond2,001,1040,
images/tulip02.jpg,sport shorts,x,sounds/animalfarm_english.wav,,,,,,,,,0,0,0,1,0,137,137,225,396.695491772,9.30086980588e-06,397.514844509,0.819362678753,,,,,x,1,0.800422259483,2018_Nov_15_1539,59.9826476727,spanish_cond2,001,1040,
images/atm.jpg,atm,z,sounds/animalfarm_english.wav,,,,,,,,,0,0,0,1,0,138,138,96,398.720223747,9.30086957851e-06,399.46532732,0.74511383623,,,,,z,1,0.733742721268,2018_Nov_15_1539,59.9826476727,spanish_cond2,001,1040,
images/flower01.jpg,bus,x,sounds/animalfarm_english.wav,,,,,,,,,0,0,0,1,0,139,139,140,400.658668988,9.30086957851e-06,401.982825463,1.32417315269,,,,,x,1,1.30069743694,2018_Nov_15_1539,59.9826476727,spanish_cond2,001,1040,
images/kiwi03.jpg,backpack,x,sounds/animalfarm_english.wav,,,,,,,,,0,0,0,1,0,140,140,125,403.18455395,9.30086957851e-06,404.533239384,1.34869537663,,,,,x,1,1.33388775069,2018_Nov_15_1539,59.9826476727,spanish_cond2,001,1040,
images/antelope.jpg,antelope,z,sounds/animalfarm_english.wav,,,,,,,,,0,0,0,1,0,141,141,12,405.745338981,9.30086957851e-06,407.10054625,1.35521721059,,,,,z,1,1.33389320292,2018_Nov_15_1539,59.9826476727,spanish_cond2,001,1040,
images/desktopcomputer.jpg,desktop computer,z,sounds/animalfarm_english.wav,,,,,,,,,0,0,0,1,0,142,142,16,408.312305884,8.98015014172e-06,409.117708599,0.805412336417,,,,,z,1,0.783752214569,2018_Nov_15_1539,59.9826476727,spanish_cond2,001,1040,
images/cheetah.jpg,cheetah,z,sounds/animalfarm_english.wav,,,,,,,,,0,0,0,1,0,143,143,82,410.290046979,9.30086957851e-06,411.268243175,0.978205817341,,,,,z,1,0.96713906532,2018_Nov_15_1539,59.9826476727,spanish_cond2,001,1040,
images/lollipop03b.jpg,lollipop,z,sounds/animalfarm_english.wav,,,,,,,,,0,0,0,1,0,144,144,42,412.39036648,9.62158924267e-06,413.318750104,0.92839388734,,,,,z,1,0.917121874747,2018_Nov_15_1539,59.9826476727,spanish_cond2,001,1040,
images/lantern03.jpg,lantern,z,sounds/animalfarm_english.wav,,,,,,,,,0,0,0,1,0,145,145,5,414.495428783,8.98015014172e-06,415.435930478,0.940510996194,,,,,z,1,0.91711962971,2018_Nov_15_1539,59.9826476727,spanish_cond2,001,1040,
images/raisin.jpg,ruler,x,sounds/animalfarm_english.wav,,,,,,,,,0,0,0,1,0,146,146,218,416.640645827,9.30086957851e-06,417.719831827,1.07919594302,,,,,x,1,1.06715869336,2018_Nov_15_1539,59.9826476727,spanish_cond2,001,1040,
images/birthdaycandle.jpg,birthday candle,z,sounds/animalfarm_english.wav,,,,,,,,,0,0,0,1,0,147,147,55,418.939827543,1.15459072276e-05,419.953721118,1.01390512087,,,,,z,1,1.00039224012,2018_Nov_15_1539,59.9826476727,spanish_cond2,001,1040,
images/bat.jpg,hand,x,sounds/animalfarm_english.wav,,,,,,,,,0,0,0,1,0,148,148,185,421.126310942,9.62158947004e-06,422.170929779,1.04462877984,,,,,x,1,1.0338115477,2018_Nov_15_1539,59.9826476727,spanish_cond2,001,1040,
images/mitten01.jpg,mitten,z,sounds/animalfarm_english.wav,,,,,,,,,0,0,0,1,0,149,149,102,423.368329192,9.62158947004e-06,424.604859608,1.23654035872,,,,,z,1,1.21719230478,2018_Nov_15_1539,59.9826476727,spanish_cond2,001,1040,
images/corkscrew02a.jpg,masquerade mask,x,sounds/animalfarm_english.wav,,,,,,,,,0,0,0,1,0,150,150,201,425.78221725,8.98014991435e-06,426.888763202,1.10655589438,,,,,x,1,1.08383098331,2018_Nov_15_1539,59.9826476727,spanish_cond2,001,1040,
images/teapot.jpg,light switch,x,sounds/animalfarm_english.wav,,,,,,,,,0,0,0,1,0,151,151,197,428.040122348,9.30086980588e-06,429.172664552,1.13255150437,,,,,x,1,1.11717909113,2018_Nov_15_1539,59.9826476727,spanish_cond2,001,1040,
images/lettuce.jpg,mushroom,x,sounds/animalfarm_english.wav,,,,,,,,,0,0,0,1,0,152,152,205,430.361089908,8.98014991435e-06,431.289848133,0.928767525725,,,,,x,1,0.917130854898,2018_Nov_15_1539,59.9826476727,spanish_cond2,001,1040,
images/printer03a.jpg,printer,z,sounds/animalfarm_english.wav,,,,,,,,,0,0,0,1,0,153,153,72,432.465527449,9.30086957851e-06,433.473732099,1.00821395079,,,,,z,1,0.983822901179,2018_Nov_15_1539,59.9826476727,spanish_cond2,001,1040,
images/ear.jpg,bullet,x,sounds/animalfarm_english.wav,,,,,,,,,0,0,0,1,0,154,154,139,434.637940557,9.62158924267e-06,435.490875847,0.85294555335,,,,,x,1,0.833767801544,2018_Nov_15_1539,59.9826476727,spanish_cond2,001,1040,
images/saltshaker03c.jpg,salt shaker,z,sounds/animalfarm_english.wav,,,,,,,,,0,0,0,1,0,155,155,63,436.677742185,9.62158947004e-06,437.524710166,0.846977922943,,,,,z,1,0.833760424992,2018_Nov_15_1539,59.9826476727,spanish_cond2,001,1040,
images/chessknight02b (1).jpg,cockroach,x,sounds/animalfarm_english.wav,,,,,,,,,0,0,0,1,0,156,156,155,438.710537051,8.98015014172e-06,440.075344742,1.36481699096,,,,,x,1,1.3505626064,2018_Nov_15_1539,59.9826476727,spanish_cond2,001,1040,
images/cloud.jpg,ceiling fan,x,sounds/animalfarm_english.wav,,,,,,,,,0,0,0,1,0,157,157,149,441.266251185,9.62158924267e-06,442.325922678,1.05968175631,,,,,x,1,1.05051141954,2018_Nov_15_1539,59.9826476727,spanish_cond2,001,1040,
images/puma.jpg,puma,z,sounds/animalfarm_english.wav,,,,,,,,,0,0,0,1,0,158,158,4,443.425662639,9.30086957851e-06,444.710048916,1.28439589889,,,,,z,1,1.26743303695,2018_Nov_15_1539,59.9826476727,spanish_cond2,001,1040,
images/crocodile.jpg,triangle ruler,x,sounds/animalfarm_english.wav,,,,,,,,,0,0,0,1,0,159,159,235,445.881277285,9.30086957851e-06,446.893699398,1.01243173482,,,,,x,1,1.00048140018,2018_Nov_15_1539,59.9826476727,spanish_cond2,001,1040,
images/drink.jpg,drink,z,sounds/animalfarm_english.wav,,,,,,,,,0,0,0,1,0,160,160,117,448.039974496,9.62158924267e-06,449.027548535,0.987583980439,,,,,z,1,0.967126557254,2018_Nov_15_1539,59.9826476727,spanish_cond2,001,1040,
images/handfan01b.jpg,handfan,z,sounds/animalfarm_english.wav,,,,,,,,,0,0,0,1,0,161,161,69,450.220390842,8.98014991435e-06,451.21141871,0.99103781028,,,,,z,1,0.967129123011,2018_Nov_15_1539,59.9826476727,spanish_cond2,001,1040,
images/eraser.jpg,eraser,z,sounds/animalfarm_english.wav,,,,,,,,,0,0,0,1,0,162,162,110,452.393059563,9.62158947004e-06,453.045213772,0.652163831291,,,,,z,1,0.633719565309,2018_Nov_15_1539,59.9826476727,spanish_cond2,001,1040,
images/shotglass.jpg,shot glass,z,sounds/animalfarm_english.wav,,,,,,,,,0,0,0,1,0,163,163,86,454.223556024,9.30086957851e-06,455.095710118,0.872163715832,,,,,z,1,0.850433035663,2018_Nov_15_1539,59.9826476727,spanish_cond2,001,1040,
images/envelope02a.jpg,grand piano,x,sounds/animalfarm_english.wav,,,,,,,,,0,0,0,1,0,164,164,182,456.341632809,9.62158924267e-06,457.429619357,1.08799616932,,,,,x,1,1.06715741048,2018_Nov_15_1539,59.9826476727,spanish_cond2,001,1040,
images/skateboard.jpg,key,x,sounds/animalfarm_english.wav,,,,,,,,,0,0,0,1,0,165,165,189,458.549797177,9.30086957851e-06,459.596842259,1.04705502394,,,,,x,1,1.03380609547,2018_Nov_15_1539,59.9826476727,spanish_cond2,001,1040,
images/doorhandle.jpg,doll,x,sounds/animalfarm_english.wav,,,,,,,,,0,0,0,1,0,166,166,168,460.767860556,9.62158947004e-06,461.980751048,1.21290011379,,,,,x,1,1.20053124002,2018_Nov_15_1539,59.9826476727,spanish_cond2,001,1040,
images/snowman.jpg,globe,x,sounds/animalfarm_english.wav,,,,,,,,,0,0,0,1,0,167,167,180,463.125259943,8.98015014172e-06,464.114605957,0.989355956469,,,,,x,1,0.967132330208,2018_Nov_15_1539,59.9826476727,spanish_cond2,001,1040,
images/umbrella01.jpg,umbrella,z,sounds/animalfarm_english.wav,,,,,,,,,0,0,0,1,0,168,168,53,465.30647456,9.30086980588e-06,466.248479789,0.942015492042,,,,,z,1,0.933806031325,2018_Nov_15_1539,59.9826476727,spanish_cond2,001,1040,
images/globe.jpg,cloud,x,sounds/animalfarm_english.wav,,,,,,,,,0,0,0,1,0,169,169,154,467.484224763,9.62158924267e-06,468.332333223,0.848118722715,,,,,x,1,0.833783837526,2018_Nov_15_1539,59.9826476727,spanish_cond2,001,1040,
images/computerkeyboard01a.jpg,computer keyboard,z,sounds/animalfarm_english.wav,,,,,,,,,0,0,0,1,0,170,170,61,469.520122913,9.30086980588e-06,470.382818343,0.862705372824,,,,,z,1,0.850440732934,2018_Nov_15_1539,59.9826476727,spanish_cond2,001,1040,
images/grandpiano.jpg,tulip,x,sounds/animalfarm_english.wav,,,,,,,,,0,0,0,1,0,171,171,236,471.566089735,9.30086957851e-06,472.399984221,0.83390603171,,,,,x,1,0.817096794471,2018_Nov_15_1539,59.9826476727,spanish_cond2,001,1040,
images/screwdriver02b.jpg,cola,x,sounds/animalfarm_english.wav,,,,,,,,,0,0,0,1,0,172,172,158,473.561952451,8.3387108134e-06,474.883767353,1.3218238813,,,,,x,1,1.30038890464,2018_Nov_15_1539,59.9826476727,spanish_cond2,001,1040,
images/bus.jpg,microphone,x,sounds/animalfarm_english.wav,,,,,,,,,0,0,0,1,0,173,173,203,476.034529639,9.62158924267e-06,477.16784189,1.13332219367,,,,,x,1,1.11717973257,2018_Nov_15_1539,59.9826476727,spanish_cond2,001,1040,
images/charcoalbarbecue.jpg,charcoal barbecue,z,sounds/animalfarm_english.wav,,,,,,,,,0,0,0,1,0,174,174,77,478.358658532,9.30086957851e-06,479.30167916,0.943030248994,,,,,z,1,0.933785505268,2018_Nov_15_1539,59.9826476727,spanish_cond2,001,1040,
images/pictureframe04.jpg,picture frame,z,sounds/animalfarm_english.wav,,,,,,,,,0,0,0,1,0,175,175,41,480.509326207,9.30086957851e-06,481.435382048,0.926066104167,,,,,z,1,0.916950610458,2018_Nov_15_1539,59.9826476727,spanish_cond2,001,1040,
images/glasses01b.jpg,calculator,x,sounds/animalfarm_english.wav,,,,,,,,,0,0,0,1,0,176,176,142,482.600820144,9.30086980588e-06,483.56939443,0.968584228034,,,,,x,1,0.950452342985,2018_Nov_15_1539,59.9826476727,spanish_cond2,001,1040,
images/aloe02.jpg,broad sword,x,sounds/animalfarm_english.wav,,,,,,,,,0,0,0,1,0,177,177,137,484.797838863,9.30086957851e-06,485.953330481,1.15550156062,,,,,x,1,1.13384657029,2018_Nov_15_1539,59.9826476727,spanish_cond2,001,1040,
images/cola.jpg,comb,x,sounds/animalfarm_english.wav,,,,,,,,,0,0,0,1,0,178,178,157,487.100744454,9.62158924267e-06,487.853800271,0.753066079792,,,,,x,1,0.7337497771,2018_Nov_15_1539,59.9826476727,spanish_cond2,001,1040,
images/swan.jpg,swan,z,sounds/animalfarm_english.wav,,,,,,,,,0,0,0,1,0,179,179,54,489.014631872,9.30086980588e-06,490.404424905,1.38980297551,,,,,z,1,1.36723168915,2018_Nov_15_1539,59.9826476727,spanish_cond2,001,1040,
images/wallet01.jpg,lamp,x,sounds/animalfarm_english.wav,,,,,,,,,0,0,0,1,0,180,180,193,491.595087281,9.30086980588e-06,492.604960635,1.00988329654,,,,,x,1,1.00046760924,2018_Nov_15_1539,59.9826476727,spanish_cond2,001,1040,
images/notebook02b.jpg,notebook,z,sounds/animalfarm_english.wav,,,,,,,,,0,0,0,1,0,181,181,7,493.783087363,9.30086980588e-06,494.705478661,0.9224012408,,,,,z,1,0.900444774002,2018_Nov_15_1539,59.9826476727,spanish_cond2,001,1040,
images/dresser02.jpg,dresser,z,sounds/animalfarm_english.wav,,,,,,,,,0,0,0,1,0,182,182,87,495.899799165,8.98014991435e-06,496.67263697,0.772847425968,,,,,z,1,0.750415011219,2018_Nov_15_1539,59.9826476727,spanish_cond2,001,1040,
images/ceilingfan02.jpg,paper clip,x,sounds/animalfarm_english.wav,,,,,,,,,0,0,0,1,0,183,183,208,497.842222934,9.30086980588e-06,498.723138447,0.880925455775,,,,,x,1,0.867097628342,2018_Nov_15_1539,59.9826476727,spanish_cond2,001,1040,
images/mirror02.jpg,8 ball,x,sounds/animalfarm_english.wav,,,,,,,,,0,0,0,1,0,184,184,121,499.890532613,8.98014991435e-06,500.79031478,0.899791788807,,,,,x,1,0.883774408368,2018_Nov_15_1539,59.9826476727,spanish_cond2,001,1040,
images/puzzle.jpg,puzzle,z,sounds/animalfarm_english.wav,,,,,,,,,0,0,0,1,0,185,185,57,501.937022529,9.9423091342e-06,503.24093518,1.30392259367,,,,,z,1,1.28378845589,2018_Nov_15_1539,59.9826476727,spanish_cond2,001,1040,
images/banana04a.jpg,banana,z,sounds/animalfarm_english.wav,,,,,,,,,0,0,0,1,0,186,186,118,504.380501464,9.94230890683e-06,505.408120237,1.02762871441,,,,,z,1,1.01714086135,2018_Nov_15_1539,59.9826476727,spanish_cond2,001,1040,
images/dreamcatcher.jpg,dream catcher,z,sounds/animalfarm_english.wav,,,,,,,,,0,0,0,1,0,187,187,48,506.543894011,9.30086980588e-06,507.708692272,1.16480852396,,,,,z,1,1.15051052153,2018_Nov_15_1539,59.9826476727,spanish_cond2,001,1040,
images/hat05.jpg,hat,z,sounds/animalfarm_english.wav,,,,,,,,,0,0,0,1,0,188,188,15,508.842928517,9.62158924267e-06,509.625667257,0.782749003524,,,,,z,1,0.766922451273,2018_Nov_15_1539,59.9826476727,spanish_cond2,001,1040,
images/bandaid01.jpg,door handle,x,sounds/animalfarm_english.wav,,,,,,,,,0,0,0,1,0,189,189,170,510.807984187,8.98014991435e-06,512.00976463,1.20179070606,,,,,x,1,1.18385702575,2018_Nov_15_1539,59.9826476727,spanish_cond2,001,1040,
images/remotecontrol01c.jpg,remote control,z,sounds/animalfarm_english.wav,,,,,,,,,0,0,0,1,0,190,190,85,513.149268695,8.98014991435e-06,514.076932304,0.927673230301,,,,,z,1,0.917126685542,2018_Nov_15_1539,59.9826476727,spanish_cond2,001,1040,
images/cookingpot.jpg,grasshopper,x,sounds/animalfarm_english.wav,,,,,,,,,0,0,0,1,0,191,191,183,515.273945891,9.30086957851e-06,516.527546289,1.25361066175,,,,,x,1,1.2338787064,2018_Nov_15_1539,59.9826476727,spanish_cond2,001,1040,
images/bench02.jpg,electric toothbrush,x,sounds/animalfarm_english.wav,,,,,,,,,0,0,0,1,0,192,192,172,517.699501409,8.98014991435e-06,518.928147254,1.22865514556,,,,,x,1,1.217213793,2018_Nov_15_1539,59.9826476727,spanish_cond2,001,1040,
images/computermouse02a.jpg,world map,x,sounds/animalfarm_english.wav,,,,,,,,,0,0,0,1,0,193,193,239,520.063760348,8.65943047756e-06,521.245367846,1.18161679904,,,,,x,1,1.16718858443,2018_Nov_15_1539,59.9826476727,spanish_cond2,001,1040,
images/volleyball.jpg,volley ball,z,sounds/animalfarm_english.wav,,,,,,,,,0,0,0,1,0,194,194,2,522.377664378,9.30086957851e-06,523.162505115,0.784850679348,,,,,z,1,0.767088263329,2018_Nov_15_1539,59.9826476727,spanish_cond2,001,1040,
images/stapler03a.jpg,candy cane,x,sounds/animalfarm_english.wav,,,,,,,,,0,0,0,1,0,195,195,145,524.358549167,9.30086980588e-06,525.546430262,1.18789071671,,,,,x,1,1.16719018803,2018_Nov_15_1539,59.9826476727,spanish_cond2,001,1040,
images/ladder.jpg,ladder,z,sounds/animalfarm_english.wav,,,,,,,,,0,0,0,1,0,196,196,113,526.716507248,9.62158947004e-06,527.830325197,1.11382789158,,,,,z,1,1.10050359398,2018_Nov_15_1539,59.9826476727,spanish_cond2,001,1040,
images/nailpolish02b.jpg,nail polish,z,sounds/animalfarm_english.wav,,,,,,,,,0,0,0,1,0,197,197,94,528.965442458,9.30086957851e-06,530.014187996,1.04875580021,,,,,z,1,1.0338115477,2018_Nov_15_1539,59.9826476727,spanish_cond2,001,1040,
images/tissuebox03.jpg,tissue box,z,sounds/animalfarm_english.wav,,,,,,,,,0,0,0,1,0,198,198,58,531.203419,9.94230890683e-06,532.364767921,1.16135886347,,,,,z,1,1.15048710899,2018_Nov_15_1539,59.9826476727,spanish_cond2,001,1040,
images/bracelet02a.jpg,chess knight,x,sounds/animalfarm_english.wav,,,,,,,,,0,0,0,1,0,199,199,152,533.501928166,9.62158924267e-06,534.615323407,1.11340518309,,,,,x,1,1.10048403009,2018_Nov_15_1539,59.9826476727,spanish_cond2,001,1040,
images/dryingmachine01.jpg,drying machine,z,sounds/animalfarm_english.wav,,,,,,,,,0,0,0,1,0,200,200,18,535.768632208,9.62158947004e-06,537.165966963,1.39734469793,,,,,z,1,1.38390846918,2018_Nov_15_1539,59.9826476727,spanish_cond2,001,1040,
images/doll.jpg,carrot,x,sounds/animalfarm_english.wav,,,,,,,,,0,0,0,1,0,201,201,146,538.357363146,9.30086980588e-06,539.26647601,0.909123126837,,,,,x,1,0.900451188395,2018_Nov_15_1539,59.9826476727,spanish_cond2,001,1040,
images/key03b.jpg,cigar,x,sounds/animalfarm_english.wav,,,,,,,,,0,0,0,1,0,202,202,153,540.369433109,9.62158924267e-06,541.333668058,0.964245532696,,,,,x,1,0.950476396958,2018_Nov_15_1539,59.9826476727,spanish_cond2,001,1040,
images/donut.jpg,rhinoceros,x,sounds/animalfarm_english.wav,,,,,,,,,0,0,0,1,0,203,203,216,542.562209027,8.98014991435e-06,543.850944263,1.28874517798,,,,,x,1,1.26721206111,2018_Nov_15_1539,59.9826476727,spanish_cond2,001,1040,
images/radio03a.jpg,radio,z,sounds/animalfarm_english.wav,,,,,,,,,0,0,0,1,0,204,204,37,544.982963693,8.98014991435e-06,545.968123995,0.985169923681,,,,,z,1,0.967126877974,2018_Nov_15_1539,59.9826476727,spanish_cond2,001,1040,
images/sportshorts02.jpg,tape,x,sounds/animalfarm_english.wav,,,,,,,,,0,0,0,1,0,205,205,230,547.124663084,9.30086957851e-06,548.085314953,0.960662452838,,,,,x,1,0.950457795219,2018_Nov_15_1539,59.9826476727,spanish_cond2,001,1040,
images/lion.jpg,lion,z,sounds/animalfarm_english.wav,,,,,,,,,0,0,0,1,0,206,206,44,549.304956915,9.30086957851e-06,550.419225475,1.11427914411,,,,,z,1,1.10049846247,2018_Nov_15_1539,59.9826476727,spanish_cond2,001,1040,
images/hammer02a.jpg,flower,x,sounds/animalfarm_english.wav,,,,,,,,,0,0,0,1,0,207,207,176,551.582039123,8.98015014172e-06,552.353032789,0.771003288018,,,,,x,1,0.750396730199,2018_Nov_15_1539,59.9826476727,spanish_cond2,001,1040,
images/parkingmeter.jpg,ear,x,sounds/animalfarm_english.wav,,,,,,,,,0,0,0,1,0,208,208,171,553.517833936,9.30086957851e-06,554.503566723,0.985743691124,,,,,x,1,0.967136820283,2018_Nov_15_1539,59.9826476727,spanish_cond2,001,1040,
images/daisy.jpg,daisy,z,sounds/animalfarm_english.wav,,,,,,,,,0,0,0,1,0,209,209,6,555.695157582,9.62158924267e-06,556.537406494,0.842258854107,,,,,x,0,0.833769084422,2018_Nov_15_1539,59.9826476727,spanish_cond2,001,1040,
images/bowl02b (1).jpg,bowl,z,sounds/animalfarm_english.wav,,,,,,,,,0,0,0,1,0,210,210,24,557.744040067,9.30086957851e-06,558.737950563,0.993920117717,,,,,z,1,0.983809751673,2018_Nov_15_1539,59.9826476727,spanish_cond2,001,1040,
images/lipstick04.jpg,lipstick,z,sounds/animalfarm_english.wav,,,,,,,,,0,0,0,1,0,211,211,56,559.923104579,9.62158924267e-06,560.838304702,0.915210385672,,,,,z,1,0.900290187134,2018_Nov_15_1539,59.9826476727,spanish_cond2,001,1040,
,,,sounds/animalfarm_english.wav,,,,,,,,,0,0,0,1,,,,,,,,,,,,,,,,2018_Nov_15_1539,59.9826476727,spanish_cond2,001,1040,
images/pipe.jpg,icecube,x,sounds/greatgatsby_spanish.wav,,,,,,,,,0,1,1,0,0,0,0,188,582.047890499,9.94230890683e-06,583.244005108,1.19612487283,,,,571.841492013,x,1,1.18386311942,2018_Nov_15_1539,59.9826476727,spanish_cond2,001,1040,
images/highlighter03b.jpg,coin,x,sounds/greatgatsby_spanish.wav,,,,,,,,,0,1,1,0,0,1,1,156,584.344661044,9.30086957851e-06,585.277819863,0.933168119954,,,,,x,1,0.91711962971,2018_Nov_15_1539,59.9826476727,spanish_cond2,001,1040,
images/lantern03.jpg,lantern,z,sounds/greatgatsby_spanish.wav,,,,,,,,,0,1,1,0,0,2,2,5,586.383699039,9.30086957851e-06,587.294985741,0.911296643861,,,,,z,1,0.900449584796,2018_Nov_15_1539,59.9826476727,spanish_cond2,001,1040,
images/crocodile.jpg,triangle ruler,x,sounds/greatgatsby_spanish.wav,,,,,,,,,0,1,1,0,0,3,3,235,588.391260326,9.9423091342e-06,589.145444434,0.754194371499,,,,,x,1,0.73374047623,2018_Nov_15_1539,59.9826476727,spanish_cond2,001,1040,
images/pepper05a.jpg,lighter,x,sounds/greatgatsby_spanish.wav,,,,,,,,,0,1,1,0,0,4,4,198,590.265456121,9.30086957851e-06,591.062581062,0.797134883136,,,,,x,1,0.783756383925,2018_Nov_15_1539,59.9826476727,spanish_cond2,001,1040,
images/ruler02b.jpg,watermelon,x,sounds/greatgatsby_spanish.wav,,,,,,,,,0,1,1,0,0,5,5,238,592.163721284,8.98014991435e-06,593.06308812,0.899376777589,,,,,x,1,0.883796858743,2018_Nov_15_1539,59.9826476727,spanish_cond2,001,1040,
images/bench02.jpg,electric toothbrush,x,sounds/greatgatsby_spanish.wav,,,,,,,,,0,1,1,0,0,6,6,172,594.171038824,8.98015014172e-06,594.980059256,0.809030053996,,,,,x,1,0.800257409586,2018_Nov_15_1539,59.9826476727,spanish_cond2,001,1040,
images/razor04a.jpg,razor,z,sounds/greatgatsby_spanish.wav,,,,,,,,,0,1,1,0,0,7,7,36,596.078823267,9.62158924267e-06,597.030723659,0.951910655205,,,,,z,1,0.933794485418,2018_Nov_15_1539,59.9826476727,spanish_cond2,001,1040,
images/treadmill.jpg,lily,x,sounds/greatgatsby_spanish.wav,,,,,,,,,0,1,1,0,0,8,8,199,598.135578777,9.94230890683e-06,599.147753936,1.01218510142,,,,,x,1,1.00032104036,2018_Nov_15_1539,59.9826476727,spanish_cond2,001,1040,
images/blueberry02.jpg,blueberry,z,sounds/greatgatsby_spanish.wav,,,,,,,,,0,1,1,0,0,9,9,46,600.260306005,9.62158924267e-06,601.181744766,0.921449024178,,,,,x,0,0.900449584796,2018_Nov_15_1539,59.9826476727,spanish_cond2,001,1040,
images/bracelet02a.jpg,chess knight,x,sounds/greatgatsby_spanish.wav,,,,,,,,,0,1,1,0,0,10,10,152,602.289452365,9.30086980588e-06,603.015538225,0.726096444246,,,,,x,1,0.717078770027,2018_Nov_15_1539,59.9826476727,spanish_cond2,001,1040,
images/highheelshoe02a.jpg,high heel shoe,z,sounds/greatgatsby_spanish.wav,,,,,,,,,0,1,1,0,0,11,11,75,604.121549217,8.98014991435e-06,604.966033865,0.844494270023,,,,,z,1,0.833780951049,2018_Nov_15_1539,59.9826476727,spanish_cond2,001,1040,
images/radio03a.jpg,radio,z,sounds/greatgatsby_spanish.wav,,,,,,,,,0,1,1,0,0,12,12,37,606.079389978,8.98015014172e-06,606.799797818,0.720417461517,,,,,z,1,0.700404235039,2018_Nov_15_1539,59.9826476727,spanish_cond2,001,1040,
images/worldmap.jpg,scooter,x,sounds/greatgatsby_spanish.wav,,,,,,,,,0,1,1,0,0,13,13,220,607.929825901,9.94230890683e-06,609.000336114,1.07052047667,,,,,x,1,1.05048512053,2018_Nov_15_1539,59.9826476727,spanish_cond2,001,1040,
images/redfox.jpg,red fox,z,sounds/greatgatsby_spanish.wav,,,,,,,,,0,1,1,0,0,14,14,1,610.111909347,9.62158924267e-06,610.834136308,0.722237224774,,,,,z,1,0.70041225303,2018_Nov_15_1539,59.9826476727,spanish_cond2,001,1040,
images/dreamcatcher.jpg,dream catcher,z,sounds/greatgatsby_spanish.wav,,,,,,,,,0,1,1,0,0,15,15,48,611.931893259,9.62158924267e-06,612.71792098,0.786037342029,,,,,z,1,0.767085376852,2018_Nov_15_1539,59.9826476727,spanish_cond2,001,1040,
images/knife04.jpg,tooth brush,x,sounds/greatgatsby_spanish.wav,,,,,,,,,0,1,1,0,0,16,16,233,613.813980682,9.62158924267e-06,615.06849866,1.25452727849,,,,,x,1,1.23386042538,2018_Nov_15_1539,59.9826476727,spanish_cond2,001,1040,
images/aloe02.jpg,broad sword,x,sounds/greatgatsby_spanish.wav,,,,,,,,,0,1,1,0,0,17,17,137,616.188681291,8.98014991435e-06,617.469090644,1.28041897531,,,,,x,1,1.26719602513,2018_Nov_15_1539,59.9826476727,spanish_cond2,001,1040,
images/bed.jpg,bed,z,sounds/greatgatsby_spanish.wav,,,,,,,,,0,1,1,0,0,18,18,103,618.587838375,9.30086957851e-06,619.402913674,0.815084599428,,,,,z,1,0.800436050427,2018_Nov_15_1539,59.9826476727,spanish_cond2,001,1040,
images/butterfly.jpg,butterfly,z,sounds/greatgatsby_spanish.wav,,,,,,,,,0,1,1,0,0,19,19,91,620.5093679,9.30086957851e-06,621.5367673,1.02740934218,,,,,z,1,1.01714952078,2018_Nov_15_1539,59.9826476727,spanish_cond2,001,1040,
images/cherry01.jpg,highlighter,x,sounds/greatgatsby_spanish.wav,,,,,,,,,0,1,1,0,0,20,20,187,622.644917171,8.98014991435e-06,623.737312331,1.09240478154,,,,,x,1,1.08383386979,2018_Nov_15_1539,59.9826476727,spanish_cond2,001,1040,
images/headphones02b.jpg,headphones,z,sounds/greatgatsby_spanish.wav,,,,,,,,,0,1,1,0,0,21,21,101,624.844393885,8.98015014172e-06,625.737806239,0.893421975966,,,,,z,1,0.883783067799,2018_Nov_15_1539,59.9826476727,spanish_cond2,001,1040,
images/ear.jpg,bullet,x,sounds/greatgatsby_spanish.wav,,,,,,,,,0,1,1,0,0,22,22,139,626.840698874,8.98014991435e-06,627.688283919,0.847594346097,,,,,x,1,0.833769084422,2018_Nov_15_1539,59.9826476727,spanish_cond2,001,1040,
images/hairpin.jpg,hair pin,z,sounds/greatgatsby_spanish.wav,,,,,,,,,0,1,1,0,0,23,23,28,628.778738404,9.62158947004e-06,629.538885974,0.760157511831,,,,,z,1,0.750535922524,2018_Nov_15_1539,59.9826476727,spanish_cond2,001,1040,
images/axe01.jpg,axe,z,sounds/greatgatsby_spanish.wav,,,,,,,,,0,1,1,0,0,24,24,104,630.640618566,9.62158924267e-06,631.872644795,1.23203585132,,,,,z,1,1.21719038046,2018_Nov_15_1539,59.9826476727,spanish_cond2,001,1040,
images/raisin.jpg,ruler,x,sounds/greatgatsby_spanish.wav,,,,,,,,,0,1,1,0,0,25,25,218,632.977301709,9.62158924267e-06,633.706430878,0.729139432224,,,,,x,1,0.717068506999,2018_Nov_15_1539,59.9826476727,spanish_cond2,001,1040,
images/paperclip04.jpg,eye drops,x,sounds/greatgatsby_spanish.wav,,,,,,,,,0,1,1,0,0,26,26,174,634.811438017,9.30086980588e-06,635.690279757,0.87885168256,,,,,x,1,0.867133548943,2018_Nov_15_1539,59.9826476727,spanish_cond2,001,1040,
images/pictureframe04.jpg,picture frame,z,sounds/greatgatsby_spanish.wav,,,,,,,,,0,1,1,0,0,27,27,41,636.81168882,9.30086957851e-06,637.424014781,0.612335583075,,,,,z,1,0.600375947566,2018_Nov_15_1539,59.9826476727,spanish_cond2,001,1040,
images/clothespin02a.jpg,clothes pin,z,sounds/greatgatsby_spanish.wav,,,,,,,,,0,1,1,0,0,28,28,79,638.52871852,9.62158924267e-06,639.64123563,1.11252737342,,,,,z,1,1.10049365168,2018_Nov_15_1539,59.9826476727,spanish_cond2,001,1040,
images/marker01a.jpg,marker,z,sounds/greatgatsby_spanish.wav,,,,,,,,,0,1,1,0,0,29,29,95,640.738607076,9.62158924267e-06,641.775088615,1.03649148104,,,,,z,1,1.01714727574,2018_Nov_15_1539,59.9826476727,spanish_cond2,001,1040,
images/ladybug03.jpg,giraffe,x,sounds/greatgatsby_spanish.wav,,,,,,,,,0,1,1,0,0,30,30,178,642.877649946,9.94230890683e-06,643.675553915,0.797913911151,,,,,x,1,0.783749328092,2018_Nov_15_1539,59.9826476727,spanish_cond2,001,1040,
images/saltshaker03c.jpg,salt shaker,z,sounds/greatgatsby_spanish.wav,,,,,,,,,0,1,1,0,0,31,31,63,644.786930546,9.30086957851e-06,645.70938663,0.922465705449,,,,,z,1,0.900442849684,2018_Nov_15_1539,59.9826476727,spanish_cond2,001,1040,
images/calculator02b.jpg,dice,x,sounds/greatgatsby_spanish.wav,,,,,,,,,0,1,1,0,0,32,32,165,646.810788881,9.30086957851e-06,648.143332816,1.33255355697,,,,,x,1,1.31722604449,2018_Nov_15_1539,59.9826476727,spanish_cond2,001,1040,
images/electrictoothbrush01a.jpg,banjo,x,sounds/greatgatsby_spanish.wav,,,,,,,,,0,1,1,0,0,33,33,127,649.237526251,9.62158947004e-06,650.393881246,1.15636557934,,,,,x,1,1.13384047661,2018_Nov_15_1539,59.9826476727,spanish_cond2,001,1040,
images/bullet (2).jpg,rubber glove,x,sounds/greatgatsby_spanish.wav,,,,,,,,,0,1,1,0,0,34,34,217,651.499149131,8.98014991435e-06,652.311035514,0.811895684011,,,,,x,1,0.800439578343,2018_Nov_15_1539,59.9826476727,spanish_cond2,001,1040,
images/daisy.jpg,daisy,z,sounds/greatgatsby_spanish.wav,,,,,,,,,0,1,1,0,0,35,35,6,653.412626989,8.98014991435e-06,654.061448922,0.648831554194,,,,,z,1,0.633717961711,2018_Nov_15_1539,59.9826476727,spanish_cond2,001,1040,
images/parkbench03.jpg,park bench,z,sounds/greatgatsby_spanish.wav,,,,,,,,,0,1,1,0,0,36,36,71,655.166360486,9.30086957851e-06,655.911922368,0.745571823881,,,,,z,1,0.733750418539,2018_Nov_15_1539,59.9826476727,spanish_cond2,001,1040,
images/corn01.jpg,corn,z,sounds/greatgatsby_spanish.wav,,,,,,,,,0,1,1,0,0,37,37,22,657.088888411,8.98014991435e-06,658.279161434,1.19028296453,,,,,z,1,1.16718505652,2018_Nov_15_1539,59.9826476727,spanish_cond2,001,1040,
images/banana04a.jpg,banana,z,sounds/greatgatsby_spanish.wav,,,,,,,,,0,1,1,0,0,38,38,118,659.383873831,8.98015014172e-06,660.329663232,0.945799021677,,,,,z,1,0.933742528836,2018_Nov_15_1539,59.9826476727,spanish_cond2,001,1040,
images/camera01a.jpg,bull,x,sounds/greatgatsby_spanish.wav,,,,,,,,,0,1,1,0,0,39,39,138,661.440103682,9.30086980588e-06,662.163460539,0.723366799359,,,,,x,1,0.700409045833,2018_Nov_15_1539,59.9826476727,spanish_cond2,001,1040,
images/lychee02a.jpg,lychee,z,sounds/greatgatsby_spanish.wav,,,,,,,,,0,1,1,0,0,40,40,62,663.287020348,8.98015014172e-06,664.247299541,0.960288493734,,,,,z,1,0.95046581321,2018_Nov_15_1539,59.9826476727,spanish_cond2,001,1040,
images/lemon02.jpg,lemon,z,sounds/greatgatsby_spanish.wav,,,,,,,,,0,1,1,0,0,41,41,14,665.358765332,9.30086980588e-06,666.131097362,0.772341651091,,,,,z,1,0.750415973378,2018_Nov_15_1539,59.9826476727,spanish_cond2,001,1040,
images/pingpongpaddle01c (1).jpg,ping pong paddle,z,sounds/greatgatsby_spanish.wav,,,,,,,,,0,1,1,0,0,42,42,10,667.240740824,9.30086980588e-06,668.348308909,1.10757802788,,,,,z,1,1.0838258518,2018_Nov_15_1539,59.9826476727,spanish_cond2,001,1040,
images/bat.jpg,hand,x,sounds/greatgatsby_spanish.wav,,,,,,,,,0,1,1,0,0,43,43,185,669.445487924,9.30086957851e-06,670.382141945,0.936663643349,,,,,x,1,0.91711032884,2018_Nov_15_1539,59.9826476727,spanish_cond2,001,1040,
images/skateboard.jpg,key,x,sounds/greatgatsby_spanish.wav,,,,,,,,,0,1,1,0,0,44,44,189,671.471652553,9.30086980588e-06,672.232599035,0.760956745183,,,,,x,1,0.750407634667,2018_Nov_15_1539,59.9826476727,spanish_cond2,001,1040,
images/lightbulb03b.jpg,treadmill,x,sounds/greatgatsby_spanish.wav,,,,,,,,,0,1,1,0,0,45,45,234,673.334164852,9.30086957851e-06,674.149738549,0.815583959913,,,,,x,1,0.80042450452,2018_Nov_15_1539,59.9826476727,spanish_cond2,001,1040,
images/lipstick04.jpg,lipstick,z,sounds/greatgatsby_spanish.wav,,,,,,,,,0,1,1,0,0,46,46,56,675.248427512,9.30086957851e-06,676.700372805,1.45195523523,,,,,z,1,1.43391732104,2018_Nov_15_1539,59.9826476727,spanish_cond2,001,1040,
images/mitten01.jpg,mitten,z,sounds/greatgatsby_spanish.wav,,,,,,,,,0,1,1,0,0,47,47,102,677.819775445,9.62158924267e-06,678.550844006,0.731078503189,,,,,z,1,0.717082939383,2018_Nov_15_1539,59.9826476727,spanish_cond2,001,1040,
images/egg01b (1).jpg,egg,z,sounds/greatgatsby_spanish.wav,,,,,,,,,0,1,1,0,0,48,48,19,679.741548396,8.65943047756e-06,680.584664534,0.843125759304,,,,,z,1,0.833765877226,2018_Nov_15_1539,59.9826476727,spanish_cond2,001,1040,
images/mirror02.jpg,8 ball,x,sounds/greatgatsby_spanish.wav,,,,,,,,,0,1,1,0,0,49,49,121,681.685769156,9.30086980588e-06,682.601826563,0.916067669279,,,,,x,1,0.90045535775,2018_Nov_15_1539,59.9826476727,spanish_cond2,001,1040,
images/floorlamp.jpg,floor lamp,z,sounds/greatgatsby_spanish.wav,,,,,,,,,0,1,1,0,0,50,50,26,683.693377909,8.98015014172e-06,684.502295711,0.80892742371,,,,,z,1,0.80042482524,2018_Nov_15_1539,59.9826476727,spanish_cond2,001,1040,
images/lettuce.jpg,mushroom,x,sounds/greatgatsby_spanish.wav,,,,,,,,,0,1,1,0,0,51,51,205,685.625178801,9.30086957851e-06,686.586137599,0.960968740098,,,,,x,1,0.950462926734,2018_Nov_15_1539,59.9826476727,spanish_cond2,001,1040,
images/atm.jpg,atm,z,sounds/greatgatsby_spanish.wav,,,,,,,,,0,1,1,0,0,52,52,96,687.723070775,9.62158924267e-06,688.536643181,0.813582027897,,,,,z,1,0.800446954895,2018_Nov_15_1539,59.9826476727,spanish_cond2,001,1040,
images/corkscrew02a.jpg,masquerade mask,x,sounds/greatgatsby_spanish.wav,,,,,,,,,0,1,1,0,0,53,53,201,689.640140373,9.62158924267e-06,690.553791419,0.913661309793,,,,,x,1,0.900456640629,2018_Nov_15_1539,59.9826476727,spanish_cond2,001,1040,
images/cockroach02.jpg,belt,x,sounds/greatgatsby_spanish.wav,,,,,,,,,0,1,1,0,0,54,54,129,691.725001507,9.30086980588e-06,692.887702903,1.16271133821,,,,,x,1,1.1505150116,2018_Nov_15_1539,59.9826476727,spanish_cond2,001,1040,
images/hammer02a.jpg,flower,x,sounds/greatgatsby_spanish.wav,,,,,,,,,0,1,1,0,0,55,55,176,693.982024947,8.98014991435e-06,695.254945497,1.27293049236,,,,,x,1,1.2505356018,2018_Nov_15_1539,59.9826476727,spanish_cond2,001,1040,
images/arrow02.jpg,hammer,x,sounds/greatgatsby_spanish.wav,,,,,,,,,0,1,1,0,0,56,56,184,696.351046252,8.98015014172e-06,697.40548328,1.05444632885,,,,,x,1,1.03382213145,2018_Nov_15_1539,59.9826476727,spanish_cond2,001,1040,
images/peach01.jpg,peach,z,sounds/greatgatsby_spanish.wav,,,,,,,,,0,1,1,0,0,57,57,106,698.53574228,8.98015014172e-06,699.205919009,0.670186350942,,,,,z,1,0.650385440868,2018_Nov_15_1539,59.9826476727,spanish_cond2,001,1040,
images/handfan01b.jpg,handfan,z,sounds/greatgatsby_spanish.wav,,,,,,,,,0,1,1,0,0,58,58,69,700.319790839,8.98015014172e-06,701.306478729,0.986697511344,,,,,z,1,0.967170175126,2018_Nov_15_1539,59.9826476727,spanish_cond2,001,1040,
images/hairdryer03a.jpg,hairdryer,z,sounds/greatgatsby_spanish.wav,,,,,,,,,0,1,1,0,0,59,59,119,702.405270322,9.30086957851e-06,703.473631393,1.0683706929,,,,,z,1,1.05046844311,2018_Nov_15_1539,59.9826476727,spanish_cond2,001,1040,
images/hanger02a.jpg,hanger,z,sounds/greatgatsby_spanish.wav,,,,,,,,,0,1,1,0,0,60,60,88,704.566414303,9.62158924267e-06,705.940925366,1.37452100521,,,,,z,1,1.35057222799,2018_Nov_15_1539,59.9826476727,spanish_cond2,001,1040,
images/donut.jpg,rhinoceros,x,sounds/greatgatsby_spanish.wav,,,,,,,,,0,1,1,0,0,61,61,216,707.066195572,8.65943025019e-06,708.024760519,0.958574247239,,,,,x,1,0.950465492491,2018_Nov_15_1539,59.9826476727,spanish_cond2,001,1040,
images/toothbrush03a.jpg,parrot,x,sounds/greatgatsby_spanish.wav,,,,,,,,,0,1,1,0,0,62,62,210,709.116800001,9.30086980588e-06,709.95856655,0.841775850324,,,,,x,1,0.833764594347,2018_Nov_15_1539,59.9826476727,spanish_cond2,001,1040,
images/cauliflower01.jpg,glue stick,x,sounds/greatgatsby_spanish.wav,,,,,,,,,0,1,1,0,0,63,63,181,711.074592975,8.65943047756e-06,711.909065718,0.834482685629,,,,,x,1,0.817108661098,2018_Nov_15_1539,59.9826476727,spanish_cond2,001,1040,
images/cloud.jpg,ceiling fan,x,sounds/greatgatsby_spanish.wav,,,,,,,,,0,1,1,0,0,64,64,149,713.014072857,8.98015014172e-06,713.992896701,0.978833465684,,,,,x,1,0.967128481572,2018_Nov_15_1539,59.9826476727,spanish_cond2,001,1040,
images/boxingglove02a.jpg,bracelet,x,sounds/greatgatsby_spanish.wav,,,,,,,,,0,1,1,0,0,65,65,135,715.185255363,9.62158947004e-06,716.410169314,1.22492421395,,,,,x,1,1.20053059858,2018_Nov_15_1539,59.9826476727,spanish_cond2,001,1040,
images/kiwi03.jpg,backpack,x,sounds/greatgatsby_spanish.wav,,,,,,,,,0,1,1,0,0,66,66,125,717.53843857,9.94230890683e-06,719.244202672,1.70577372331,,,,,x,1,1.68398178569,2018_Nov_15_1539,59.9826476727,spanish_cond2,001,1040,
images/nailpolish02b.jpg,nail polish,z,sounds/greatgatsby_spanish.wav,,,,,,,,,0,1,1,0,0,67,67,94,720.352252157,9.62158924267e-06,721.127991512,0.775748976584,,,,,z,1,0.767079924618,2018_Nov_15_1539,59.9826476727,spanish_cond2,001,1040,
images/magnifyingglass01b.jpg,magnifying glass,z,sounds/greatgatsby_spanish.wav,,,,,,,,,0,1,1,0,0,68,68,64,722.23478057,9.30086957851e-06,723.295205434,1.0604341646,,,,,z,1,1.05049698716,2018_Nov_15_1539,59.9826476727,spanish_cond2,001,1040,
images/coin01b.jpg,arrow,x,sounds/greatgatsby_spanish.wav,,,,,,,,,0,1,1,0,0,69,69,124,724.472603807,9.62158924267e-06,725.46240364,0.989810095484,,,,,x,1,0.967138103161,2018_Nov_15_1539,59.9826476727,spanish_cond2,001,1040,
images/bull.jpg,button,x,sounds/greatgatsby_spanish.wav,,,,,,,,,0,1,1,0,0,70,70,141,726.567603532,9.62158947004e-06,728.21307202,1.64547875104,,,,,x,1,1.63396619872,2018_Nov_15_1539,59.9826476727,spanish_cond2,001,1040,
images/comb02a.jpg,diploma,x,sounds/greatgatsby_spanish.wav,,,,,,,,,0,1,1,0,0,71,71,166,729.317127263,1.28287856569e-05,730.08020172,0.763085040738,,,,,x,1,0.750410200424,2018_Nov_15_1539,59.9826476727,spanish_cond2,001,1040,
images/dice05a.jpg,band aid,x,sounds/greatgatsby_spanish.wav,,,,,,,,,0,1,1,0,0,72,72,126,731.192272388,9.62158924267e-06,731.947346173,0.75508404779,,,,,x,1,0.733753625736,2018_Nov_15_1539,59.9826476727,spanish_cond2,001,1040,
images/straw.jpg,straw,z,sounds/greatgatsby_spanish.wav,,,,,,,,,0,1,1,0,0,73,73,109,733.037741967,9.94230890683e-06,733.781120068,0.743388364548,,,,,z,1,0.733743041988,2018_Nov_15_1539,59.9826476727,spanish_cond2,001,1040,
images/showerhead01.jpg,skateboard,x,sounds/greatgatsby_spanish.wav,,,,,,,,,0,1,1,0,0,74,74,223,734.888886038,9.94230890683e-06,735.914991655,1.02611523842,,,,,x,1,1.01716587748,2018_Nov_15_1539,59.9826476727,spanish_cond2,001,1040,
images/candycane01a.jpg,lip,x,sounds/greatgatsby_spanish.wav,,,,,,,,,0,1,1,0,0,75,75,200,737.00822678,9.94230890683e-06,737.765434312,0.757218437018,,,,,x,1,0.733747532062,2018_Nov_15_1539,59.9826476727,spanish_cond2,001,1040,
images/lighter02b.jpg,stapler,x,sounds/greatgatsby_spanish.wav,,,,,,,,,0,1,1,0,0,76,76,227,738.94169349,8.65943047756e-06,740.249371389,1.30768752157,,,,,x,1,1.2838686358,2018_Nov_15_1539,59.9826476727,spanish_cond2,001,1040,
images/medal01.jpg,medal,z,sounds/greatgatsby_spanish.wav,,,,,,,,,0,1,1,0,0,77,77,115,741.350250867,2.5336851877e-05,742.183185439,0.832959908762,,,,,z,1,0.817094549434,2018_Nov_15_1539,59.9826476727,spanish_cond2,001,1040,
images/desktopcomputer.jpg,desktop computer,z,sounds/greatgatsby_spanish.wav,,,,,,,,,0,1,1,0,0,78,78,16,743.318911105,9.30086957851e-06,744.200568443,0.88166728031,,,,,z,1,0.867326301448,2018_Nov_15_1539,59.9826476727,spanish_cond2,001,1040,
images/shotglass.jpg,shot glass,z,sounds/greatgatsby_spanish.wav,,,,,,,,,0,1,1,0,0,79,79,86,745.308549295,9.94230890683e-06,746.267527008,0.95898765486,,,,,z,1,0.950460040257,2018_Nov_15_1539,59.9826476727,spanish_cond2,001,1040,
images/swallow.jpg,mattress,x,sounds/greatgatsby_spanish.wav,,,,,,,,,0,1,1,0,0,80,80,202,747.368838495,8.98014991435e-06,748.701456837,1.33262860537,,,,,x,1,1.3172148193,2018_Nov_15_1539,59.9826476727,spanish_cond2,001,1040,
images/safe.jpg,safe,z,sounds/greatgatsby_spanish.wav,,,,,,,,,0,1,1,0,0,81,81,78,749.811909475,8.98015014172e-06,750.635272169,0.823372636457,,,,,z,1,0.800421938763,2018_Nov_15_1539,59.9826476727,spanish_cond2,001,1040,
images/chessknight02b (1).jpg,cockroach,x,sounds/greatgatsby_spanish.wav,,,,,,,,,0,1,1,0,0,82,82,155,751.743697218,8.98015014172e-06,752.785649271,1.04196199601,,,,,x,1,1.03366113019,2018_Nov_15_1539,59.9826476727,spanish_cond2,001,1040,
images/barrel01.jpg,barrel,z,sounds/greatgatsby_spanish.wav,,,,,,,,,0,1,1,0,0,83,83,9,753.91579185,8.98015014172e-06,754.786294559,0.870512330387,,,,,z,1,0.85043495998,2018_Nov_15_1539,59.9826476727,spanish_cond2,001,1040,
images/notebook02b.jpg,notebook,z,sounds/greatgatsby_spanish.wav,,,,,,,,,0,1,1,0,0,84,84,7,755.892497983,9.62158924267e-06,756.553395972,0.660907931653,,,,,z,1,0.650382233671,2018_Nov_15_1539,59.9826476727,spanish_cond2,001,1040,
images/toucan.jpg,toucan,z,sounds/greatgatsby_spanish.wav,,,,,,,,,0,1,1,0,0,85,85,81,757.958109845,9.62158924267e-06,759.254070894,1.29597067083,,,,,z,1,1.28370474806,2018_Nov_15_1539,59.9826476727,spanish_cond2,001,1040,
images/cactus.jpg,cactus,z,sounds/greatgatsby_spanish.wav,,,,,,,,,0,1,1,0,0,86,86,70,760.365571965,9.30086957851e-06,761.3045852,0.939022857048,,,,,z,1,0.917135344972,2018_Nov_15_1539,59.9826476727,spanish_cond2,001,1040,
images/fryingpan01.jpg,frying pan,z,sounds/greatgatsby_spanish.wav,,,,,,,,,0,1,1,0,0,87,87,45,762.404660634,8.65943025019e-06,763.338407653,0.93375696122,,,,,z,1,0.917120591869,2018_Nov_15_1539,59.9826476727,spanish_cond2,001,1040,
images/parkingmeter.jpg,ear,x,sounds/greatgatsby_spanish.wav,,,,,,,,,0,1,1,0,0,88,88,171,764.439980847,8.65943025019e-06,765.672312722,1.23234117643,,,,,x,1,1.21718973902,2018_Nov_15_1539,59.9826476727,spanish_cond2,001,1040,
images/envelope02a.jpg,grand piano,x,sounds/greatgatsby_spanish.wav,,,,,,,,,0,1,1,0,0,89,89,182,766.795023265,9.30086957851e-06,768.122933764,1.32792012028,,,,,x,1,1.31723534536,2018_Nov_15_1539,59.9826476727,spanish_cond2,001,1040,
images/glasses01b.jpg,calculator,x,sounds/greatgatsby_spanish.wav,,,,,,,,,0,1,1,0,0,90,90,142,769.214696785,9.30086957851e-06,770.440155318,1.22546815446,,,,,x,1,1.21719230478,2018_Nov_15_1539,59.9826476727,spanish_cond2,001,1040,
images/baseball01a.jpg,baseball,z,sounds/greatgatsby_spanish.wav,,,,,,,,,0,1,1,0,0,91,91,74,771.572285718,8.98014991435e-06,772.357290984,0.785015208525,,,,,z,1,0.767081207497,2018_Nov_15_1539,59.9826476727,spanish_cond2,001,1040,
images/nailclipper03a.jpg,aquarium,x,sounds/greatgatsby_spanish.wav,,,,,,,,,0,1,1,0,0,92,92,123,773.525977329,9.30086980588e-06,774.97461504,1.44864797427,,,,,x,1,1.43391379313,2018_Nov_15_1539,59.9826476727,spanish_cond2,001,1040,
images/hat05.jpg,hat,z,sounds/greatgatsby_spanish.wav,,,,,,,,,0,1,1,0,0,93,93,15,776.078341225,9.30086957851e-06,776.791728512,0.713397229239,,,,,z,1,0.700396537767,2018_Nov_15_1539,59.9826476727,spanish_cond2,001,1040,
images/globe.jpg,cloud,x,sounds/greatgatsby_spanish.wav,,,,,,,,,0,1,1,0,0,94,94,154,777.919193403,8.98014991435e-06,778.625510746,0.706327606136,,,,,x,1,0.683732265807,2018_Nov_15_1539,59.9826476727,spanish_cond2,001,1040,
images/mushroom01.jpg,shower head,x,sounds/greatgatsby_spanish.wav,,,,,,,,,0,1,1,0,0,95,95,222,779.741632104,9.30086957851e-06,781.276157573,1.53453573266,,,,,x,1,1.51726177266,2018_Nov_15_1539,59.9826476727,spanish_cond2,001,1040,
images/pineapple01a.jpg,pineapple,z,sounds/greatgatsby_spanish.wav,,,,,,,,,0,1,1,0,0,96,96,51,782.465468116,9.62158924267e-06,784.226895036,1.76143686249,,,,,z,1,1.75066485182,2018_Nov_15_1539,59.9826476727,spanish_cond2,001,1040,
images/battery03b.jpg,battery,z,sounds/greatgatsby_spanish.wav,,,,,,,,,0,1,1,0,0,97,97,34,785.335794429,8.65943025019e-06,786.294073935,0.958289448195,,,,,x,0,0.933793523259,2018_Nov_15_1539,59.9826476727,spanish_cond2,001,1040,
images/grasshopper.jpg,cauliflower,x,sounds/greatgatsby_spanish.wav,,,,,,,,,0,1,1,0,0,98,98,148,787.386853958,8.98014991435e-06,788.577967587,1.19112324999,,,,,x,1,1.1671815286,2018_Nov_15_1539,59.9826476727,spanish_cond2,001,1040,
images/parkfountain.jpg,park fountain,z,sounds/greatgatsby_spanish.wav,,,,,,,,,0,1,1,0,0,99,99,93,789.772782641,9.30086980588e-06,790.895214157,1.12244177976,,,,,z,1,1.10050936694,2018_Nov_15_1539,59.9826476727,spanish_cond2,001,1040,
images/dresser02.jpg,dresser,z,sounds/greatgatsby_spanish.wav,,,,,,,,,0,1,1,0,0,100,100,87,792.016815972,9.62158947004e-06,792.995717431,0.978912041996,,,,,z,1,0.967131047329,2018_Nov_15_1539,59.9826476727,spanish_cond2,001,1040,
images/coffeepot03b.jpg,coffee pot,z,sounds/greatgatsby_spanish.wav,,,,,,,,,0,1,1,0,0,101,101,107,794.117059142,9.30086957851e-06,794.946204411,0.82915521163,,,,,z,1,0.817095511593,2018_Nov_15_1539,59.9826476727,spanish_cond2,001,1040,
images/bottleofredwine02.jpg,pipe,x,sounds/greatgatsby_spanish.wav,,,,,,,,,0,1,1,0,0,102,102,213,796.044114987,8.98014991435e-06,797.030057524,0.985952479612,,,,,x,1,0.967144517554,2018_Nov_15_1539,59.9826476727,spanish_cond2,001,1040,
images/belt02a.jpg,snowman,x,sounds/greatgatsby_spanish.wav,,,,,,,,,0,1,1,0,0,103,103,224,798.132848491,8.98014991435e-06,799.23043995,1.09760140193,,,,,x,1,1.08362925066,2018_Nov_15_1539,59.9826476727,spanish_cond2,001,1040,
images/ant.jpg,ant,z,sounds/greatgatsby_spanish.wav,,,,,,,,,0,1,1,0,0,104,104,98,800.324944163,9.30086957851e-06,801.097852525,0.77291798429,,,,,z,1,0.750547147712,2018_Nov_15_1539,59.9826476727,spanish_cond2,001,1040,
images/plant01.jpg,plant,z,sounds/greatgatsby_spanish.wav,,,,,,,,,0,1,1,0,0,105,105,47,802.2085441,9.30086980588e-06,803.064869397,0.856335239263,,,,,z,1,0.83376267003,2018_Nov_15_1539,59.9826476727,spanish_cond2,001,1040,
images/puma.jpg,puma,z,sounds/greatgatsby_spanish.wav,,,,,,,,,0,1,1,0,0,106,106,4,804.162936163,8.98014991435e-06,804.998686653,0.83575979125,,,,,z,1,0.817101605266,2018_Nov_15_1539,59.9826476727,spanish_cond2,001,1040,
images/icecube02 (2).jpg,aloe,x,sounds/greatgatsby_spanish.wav,,,,,,,,,0,1,1,0,0,107,107,122,806.109131594,9.30086957851e-06,807.082524371,0.973402719959,,,,,x,1,0.950458757378,2018_Nov_15_1539,59.9826476727,spanish_cond2,001,1040,
images/doorhandle.jpg,doll,x,sounds/greatgatsby_spanish.wav,,,,,,,,,0,1,1,0,0,108,108,168,808.184564854,9.30086980588e-06,809.283076458,1.09852154659,,,,,x,1,1.08383194547,2018_Nov_15_1539,59.9826476727,spanish_cond2,001,1040,
images/table02.jpg,table,z,sounds/greatgatsby_spanish.wav,,,,,,,,,0,1,1,0,0,109,109,49,810.397322889,8.98014991435e-06,811.40026485,1.00295158288,,,,,z,1,0.983783452662,2018_Nov_15_1539,59.9826476727,spanish_cond2,001,1040,
images/screwdriver02b.jpg,cola,x,sounds/greatgatsby_spanish.wav,,,,,,,,,0,1,1,0,0,110,110,158,812.493338653,8.98014991435e-06,813.367411934,0.874082902179,,,,,x,1,0.850438487897,2018_Nov_15_1539,59.9826476727,spanish_cond2,001,1040,
images/banjo.jpg,knife,x,sounds/greatgatsby_spanish.wav,,,,,,,,,0,1,1,0,0,111,111,191,814.463606659,9.30086957851e-06,815.934706933,1.47111021595,,,,,z,0,1.45057806509,2018_Nov_15_1539,59.9826476727,spanish_cond2,001,1040,
images/broadsword.jpg,teapot,x,sounds/greatgatsby_spanish.wav,,,,,,,,,0,1,1,0,0,112,112,231,817.027427944,9.62158947004e-06,818.168597506,1.14117982494,,,,,x,1,1.11717556322,2018_Nov_15_1539,59.9826476727,spanish_cond2,001,1040,
images/lamp04b.jpg,parking meter,x,sounds/greatgatsby_spanish.wav,,,,,,,,,0,1,1,0,0,113,113,209,819.288630681,9.62158924267e-06,821.019304436,1.73068433875,,,,,x,1,1.7173215548,2018_Nov_15_1539,59.9826476727,spanish_cond2,001,1040,
images/bowl02b (1).jpg,bowl,z,sounds/greatgatsby_spanish.wav,,,,,,,,,0,1,1,0,0,114,114,24,822.136752611,8.98015014172e-06,823.003118036,0.866374726266,,,,,z,1,0.850427904148,2018_Nov_15_1539,59.9826476727,spanish_cond2,001,1040,
images/rhinoceros01.jpg,envelope,x,sounds/greatgatsby_spanish.wav,,,,,,,,,0,1,1,0,0,115,115,173,824.115096338,8.98015014172e-06,825.503757551,1.38867115589,,,,,x,1,1.36725221521,2018_Nov_15_1539,59.9826476727,spanish_cond2,001,1040,
images/diploma01.jpg,glasses,x,sounds/greatgatsby_spanish.wav,,,,,,,,,0,1,1,0,0,116,116,179,826.635370309,8.65943025019e-06,828.354680647,1.7193363156,,,,,x,1,1.70080385171,2018_Nov_15_1539,59.9826476727,spanish_cond2,001,1040,
images/tissuebox03.jpg,tissue box,z,sounds/greatgatsby_spanish.wav,,,,,,,,,0,1,1,0,0,117,117,58,829.479377727,9.62158924267e-06,830.471637479,0.992269694431,,,,,z,1,0.983811034552,2018_Nov_15_1539,59.9826476727,spanish_cond2,001,1040,
images/radish01.jpg,raisin,x,sounds/greatgatsby_spanish.wav,,,,,,,,,0,1,1,0,0,118,118,214,831.581889988,9.30086980588e-06,832.572156788,0.990276742566,,,,,x,1,0.967128481572,2018_Nov_15_1539,59.9826476727,spanish_cond2,001,1040,
images/weight01.jpg,weight,z,sounds/greatgatsby_spanish.wav,,,,,,,,,0,1,1,0,0,119,119,67,833.759788364,9.62158924267e-06,834.505954481,0.746176701129,,,,,z,1,0.733743041987,2018_Nov_15_1539,59.9826476727,spanish_cond2,001,1040,
images/mattress.jpg,cat,x,sounds/greatgatsby_spanish.wav,,,,,,,,,0,1,1,0,0,120,120,147,835.610015497,8.98015014172e-06,837.289982194,1.67997631806,,,,,x,1,1.66730596782,2018_Nov_15_1539,59.9826476727,spanish_cond2,001,1040,
images/pen03c.jpg,pepper,x,sounds/greatgatsby_spanish.wav,,,,,,,,,0,1,1,0,0,121,121,211,838.383359397,1.5715262407e-05,840.257379759,1.87403030416,,,,,x,1,1.8506915357,2018_Nov_15_1539,59.9826476727,spanish_cond2,001,1040,
images/swan.jpg,swan,z,sounds/greatgatsby_spanish.wav,,,,,,,,,0,1,1,0,0,122,122,54,841.350234831,9.30086957851e-06,842.424585021,1.07435981152,,,,,z,1,1.05049377996,2018_Nov_15_1539,59.9826476727,spanish_cond2,001,1040,
images/doll.jpg,carrot,x,sounds/greatgatsby_spanish.wav,,,,,,,,,0,1,1,0,0,123,123,146,843.53580482,9.62158924267e-06,845.375301637,1.83950707957,,,,,x,1,1.81733797564,2018_Nov_15_1539,59.9826476727,spanish_cond2,001,1040,
images/lock02a.jpg,lock,z,sounds/greatgatsby_spanish.wav,,,,,,,,,0,1,1,0,0,124,124,65,846.485002508,9.62158924267e-06,847.225762575,0.740770009378,,,,,z,1,0.717075883551,2018_Nov_15_1539,59.9826476727,spanish_cond2,001,1040,
images/antelope.jpg,antelope,z,sounds/greatgatsby_spanish.wav,,,,,,,,,0,1,1,0,0,125,125,12,848.329007681,9.30086980588e-06,849.243125054,0.914126994716,,,,,z,1,0.900647468816,2018_Nov_15_1539,59.9826476727,spanish_cond2,001,1040,
images/scissors04a.jpg,leek,x,sounds/greatgatsby_spanish.wav,,,,,,,,,0,1,1,0,0,126,126,194,850.336932663,9.30086980588e-06,851.060050263,0.723127221785,,,,,x,1,0.700408083675,2018_Nov_15_1539,59.9826476727,spanish_cond2,001,1040,
images/squirrel.jpg,binder,x,sounds/greatgatsby_spanish.wav,,,,,,,,,0,1,1,0,0,127,127,132,852.162729619,8.98014991435e-06,853.26058471,1.09786503348,,,,,x,1,1.083829059,2018_Nov_15_1539,59.9826476727,spanish_cond2,001,1040,
images/bowlingball.jpg,bowling ball,z,sounds/greatgatsby_spanish.wav,,,,,,,,,0,1,1,0,0,128,128,20,854.392576559,8.98015014172e-06,855.161045841,0.768478903703,,,,,z,1,0.750404427471,2018_Nov_15_1539,59.9826476727,spanish_cond2,001,1040,
images/apricot.jpg,apricot,z,sounds/greatgatsby_spanish.wav,,,,,,,,,0,1,1,0,0,129,129,32,856.357740312,9.30086957851e-06,857.59498914,1.23725909144,,,,,z,1,1.21719454982,2018_Nov_15_1539,59.9826476727,spanish_cond2,001,1040,
images/graduationcap.jpg,graduation cap,z,sounds/greatgatsby_spanish.wav,,,,,,,,,0,1,1,0,0,130,130,35,858.697176513,9.94230890683e-06,859.445438854,0.74827228328,,,,,z,1,0.733738231193,2018_Nov_15_1539,59.9826476727,spanish_cond2,001,1040,
images/carrot02.jpg,corkscrew,x,sounds/greatgatsby_spanish.wav,,,,,,,,,0,1,1,0,0,131,131,161,860.547117885,9.62158924267e-06,861.529295494,0.982189476034,,,,,x,1,0.967137782442,2018_Nov_15_1539,59.9826476727,spanish_cond2,001,1040,
images/thumbtack02a.jpg,thumb tack,z,sounds/greatgatsby_spanish.wav,,,,,,,,,0,1,1,0,0,132,132,60,862.638985782,9.94230890683e-06,863.363081256,0.724105416698,,,,,z,1,0.700405197198,2018_Nov_15_1539,59.9826476727,spanish_cond2,001,1040,
images/cocktailshrimp01.jpg,cocktail shrimp,z,sounds/greatgatsby_spanish.wav,,,,,,,,,0,1,1,0,0,133,133,30,864.477816143,8.98014991435e-06,866.513857654,2.03605113297,,,,,x,0,2.01739904066,2018_Nov_15_1539,59.9826476727,spanish_cond2,001,1040,
images/gorilla.jpg,gorilla,z,sounds/greatgatsby_spanish.wav,,,,,,,,,0,1,1,0,0,134,134,80,867.624546021,8.98014991435e-06,869.397904674,1.77336827467,,,,,z,1,1.75066485182,2018_Nov_15_1539,59.9826476727,spanish_cond2,001,1040,
images/computerkeyboard01a.jpg,computer keyboard,z,sounds/greatgatsby_spanish.wav,,,,,,,,,0,1,1,0,0,135,135,61,870.5140921,9.30086957851e-06,871.315042264,0.800959785605,,,,,z,1,0.783752856009,2018_Nov_15_1539,59.9826476727,spanish_cond2,001,1040,
images/basketball01.jpg,basket ball,z,sounds/greatgatsby_spanish.wav,,,,,,,,,0,1,1,0,0,136,136,33,872.45370893,8.65943025019e-06,873.315531041,0.861831732515,,,,,z,1,0.85044426085,2018_Nov_15_1539,59.9826476727,spanish_cond2,001,1040,
images/volleyball.jpg,volley ball,z,sounds/greatgatsby_spanish.wav,,,,,,,,,0,1,1,0,0,137,137,2,874.447806406,8.65943025019e-06,875.416077612,0.968280506532,,,,,z,1,0.950488584305,2018_Nov_15_1539,59.9826476727,spanish_cond2,001,1040,
images/djmixer01.jpg,light bulb,x,sounds/greatgatsby_spanish.wav,,,,,,,,,0,1,1,0,0,138,138,196,876.608633837,9.62158924267e-06,878.433465748,1.82484153242,,,,,x,1,1.80067979736,2018_Nov_15_1539,59.9826476727,spanish_cond2,001,1040,
images/button07.jpg,radish,x,sounds/greatgatsby_spanish.wav,,,,,,,,,0,1,1,0,0,139,139,215,879.544729807,9.30086980588e-06,880.650676975,1.10595743152,,,,,x,1,1.0838226446,2018_Nov_15_1539,59.9826476727,spanish_cond2,001,1040,
images/umbrella01.jpg,umbrella,z,sounds/greatgatsby_spanish.wav,,,,,,,,,0,1,1,0,0,140,140,53,881.763147581,9.62158947004e-06,883.351341314,1.58820367493,,,,,z,1,1.56728088755,2018_Nov_15_1539,59.9826476727,spanish_cond2,001,1040,
images/mailbox01.jpg,mail box,z,sounds/greatgatsby_spanish.wav,,,,,,,,,0,1,1,0,0,141,141,73,884.541488614,9.30086980588e-06,885.50187172,0.960392727618,,,,,z,1,0.950451701546,2018_Nov_15_1539,59.9826476727,spanish_cond2,001,1040,
images/scooter.jpg,pen,x,sounds/greatgatsby_spanish.wav,,,,,,,,,0,1,1,0,0,142,142,212,886.594176116,9.62158924267e-06,888.352576084,1.75840991049,,,,,x,1,1.73399352403,2018_Nov_15_1539,59.9826476727,spanish_cond2,001,1040,
images/flower01.jpg,bus,x,sounds/greatgatsby_spanish.wav,,,,,,,,,0,1,1,0,0,143,143,140,889.466776331,9.62158947004e-06,890.719829262,1.2530628726,,,,,x,1,1.23387132984,2018_Nov_15_1539,59.9826476727,spanish_cond2,001,1040,
images/eyedrops.jpg,bicycle,x,sounds/greatgatsby_spanish.wav,,,,,,,,,0,1,1,0,0,144,144,131,891.893963671,9.30086957851e-06,892.636967814,0.743014405444,,,,,x,1,0.733745928464,2018_Nov_15_1539,59.9826476727,spanish_cond2,001,1040,
images/masquerademask02b.jpg,mirror,x,sounds/greatgatsby_spanish.wav,,,,,,,,,0,1,1,0,0,145,145,204,893.741842175,9.30086980588e-06,894.554102838,0.812270605275,,,,,x,1,0.8004241838,2018_Nov_15_1539,59.9826476727,spanish_cond2,001,1040,
images/electricguitar02.jpg,electric guitar,z,sounds/greatgatsby_spanish.wav,,,,,,,,,0,1,1,0,0,146,146,100,895.655655506,9.30086957851e-06,896.337878465,0.682232901474,,,,,z,1,0.667046184912,2018_Nov_15_1539,59.9826476727,spanish_cond2,001,1040,
images/rubberglove02a.jpg,lady bug,x,sounds/greatgatsby_spanish.wav,,,,,,,,,0,1,1,0,0,147,147,192,897.442685155,9.30086957851e-06,898.188332989,0.745658097465,,,,,x,1,0.733744324866,2018_Nov_15_1539,59.9826476727,spanish_cond2,001,1040,
images/snowman.jpg,globe,x,sounds/greatgatsby_spanish.wav,,,,,,,,,0,1,1,0,0,148,148,180,899.298986398,9.30086957851e-06,901.055715416,1.75673864043,,,,,x,1,1.7339980141,2018_Nov_15_1539,59.9826476727,spanish_cond2,001,1040,
images/lightswitch02a.jpg,fork,x,sounds/greatgatsby_spanish.wav,,,,,,,,,0,1,1,0,0,149,149,177,902.166984927,8.65943047756e-06,902.956171095,0.789195789079,,,,,x,1,0.767043362579,2018_Nov_15_1539,59.9826476727,spanish_cond2,001,1040,
images/cupcake.jpg,scissors,x,sounds/greatgatsby_spanish.wav,,,,,,,,,0,1,1,0,0,150,150,219,904.074883867,9.30086957851e-06,905.223411059,1.14853649212,,,,,x,1,1.13376125886,2018_Nov_15_1539,59.9826476727,spanish_cond2,001,1040,
images/lion.jpg,lion,z,sounds/greatgatsby_spanish.wav,,,,,,,,,0,1,1,0,0,151,151,44,906.335477879,9.62158924267e-06,907.223904005,0.888435747668,,,,,z,1,0.867116871521,2018_Nov_15_1539,59.9826476727,spanish_cond2,001,1040,
images/teapot.jpg,light switch,x,sounds/greatgatsby_spanish.wav,,,,,,,,,0,1,1,0,0,152,152,197,908.340423696,9.30086980588e-06,909.574488099,1.2340746661,,,,,x,1,1.21720705788,2018_Nov_15_1539,59.9826476727,spanish_cond2,001,1040,
images/gps.jpg,gps,z,sounds/greatgatsby_spanish.wav,,,,,,,,,0,1,1,0,0,153,153,21,910.692838459,9.30086957851e-06,911.875032874,1.18220371599,,,,,z,1,1.16717703853,2018_Nov_15_1539,59.9826476727,spanish_cond2,001,1040,
images/printer03a.jpg,printer,z,sounds/greatgatsby_spanish.wav,,,,,,,,,0,1,1,0,0,154,154,72,912.98397845,9.62158947004e-06,913.642141022,0.658172513813,,,,,z,1,0.650387365185,2018_Nov_15_1539,59.9826476727,spanish_cond2,001,1040,
images/candy.jpg,candy,z,sounds/greatgatsby_spanish.wav,,,,,,,,,0,1,1,0,0,155,155,31,914.743990355,9.30086957851e-06,915.642633968,0.898653234073,,,,,z,1,0.883774087649,2018_Nov_15_1539,59.9826476727,spanish_cond2,001,1040,
images/lily.jpg,kiwi,x,sounds/greatgatsby_spanish.wav,,,,,,,,,0,1,1,0,0,156,156,190,916.741634349,9.62158924267e-06,917.95987701,1.21825292464,,,,,x,1,1.20051712835,2018_Nov_15_1539,59.9826476727,spanish_cond2,001,1040,
images/ceilingfan02.jpg,paper clip,x,sounds/greatgatsby_spanish.wav,,,,,,,,,0,1,1,0,0,157,157,208,919.057662505,9.30086957851e-06,919.977048019,0.91939577702,,,,,x,1,0.900457602788,2018_Nov_15_1539,59.9826476727,spanish_cond2,001,1040,
images/flashlight05.jpg,flash light,z,sounds/greatgatsby_spanish.wav,,,,,,,,,0,1,1,0,0,158,158,8,921.160557385,9.30086957851e-06,921.977532627,0.816985504755,,,,,z,1,0.800423863081,2018_Nov_15_1539,59.9826476727,spanish_cond2,001,1040,
images/tank.jpg,wallet,x,sounds/greatgatsby_spanish.wav,,,,,,,,,0,1,1,0,0,159,159,237,923.155983282,8.98015014172e-06,924.694866369,1.5388923883,,,,,x,1,1.5172624141,2018_Nov_15_1539,59.9826476727,spanish_cond2,001,1040,
images/charcoalbarbecue.jpg,charcoal barbecue,z,sounds/greatgatsby_spanish.wav,,,,,,,,,0,1,1,0,0,160,160,77,925.812183049,9.30086957851e-06,926.77871403,0.966540602465,,,,,z,1,0.950449777228,2018_Nov_15_1539,59.9826476727,spanish_cond2,001,1040,
images/tie01.jpg,bench,x,sounds/greatgatsby_spanish.wav,,,,,,,,,0,1,1,0,0,161,161,130,927.876379896,9.30086957851e-06,930.029513263,2.15314298836,,,,,x,1,2.13408261995,2018_Nov_15_1539,59.9826476727,spanish_cond2,001,1040,
images/giraffe.jpg,lettuce,x,sounds/greatgatsby_spanish.wav,,,,,,,,,0,1,1,0,0,162,162,195,931.129902681,9.62158924267e-06,932.096695048,0.966802630414,,,,,x,1,0.950462926734,2018_Nov_15_1539,59.9826476727,spanish_cond2,001,1040,
images/flamingo.jpg,flamingo,z,sounds/greatgatsby_spanish.wav,,,,,,,,,0,1,1,0,0,163,163,52,933.194296771,9.30086957851e-06,935.147442838,1.95315600958,,,,,z,1,1.93403438371,2018_Nov_15_1539,59.9826476727,spanish_cond2,001,1040,
images/triangleruler02.jpg,bottle of red wine,x,sounds/greatgatsby_spanish.wav,,,,,,,,,0,1,1,0,0,164,164,134,936.258254361,9.30086980588e-06,937.531375361,1.27313094213,,,,,x,1,1.25054265764,2018_Nov_15_1539,59.9826476727,spanish_cond2,001,1040,
images/aquarium.jpg,computer mouse,x,sounds/greatgatsby_spanish.wav,,,,,,,,,0,1,1,0,0,165,165,159,938.66614817,9.62158924267e-06,940.815520778,2.14938287126,,,,,x,1,2.1340916001,2018_Nov_15_1539,59.9826476727,spanish_cond2,001,1040,
images/acousticguitar02.jpg,acoustic guitar,z,sounds/greatgatsby_spanish.wav,,,,,,,,,0,1,1,0,0,166,166,97,941.930033727,1.09044678993e-05,942.782667861,0.852645359764,,,,,z,1,0.833662284781,2018_Nov_15_1539,59.9826476727,spanish_cond2,001,1040,
images/leek.jpg,donut,x,sounds/greatgatsby_spanish.wav,,,,,,,,,0,1,1,0,0,167,167,169,943.88339179,9.30086980588e-06,945.616699295,1.73331776774,,,,,x,1,1.71732123408,2018_Nov_15_1539,59.9826476727,spanish_cond2,001,1040,
images/ashtray02b.jpg,ashtray,z,sounds/greatgatsby_spanish.wav,,,,,,,,,0,1,1,0,0,168,168,43,946.729236931,9.30086980588e-06,948.083974666,1.35474767703,,,,,z,1,1.33389192005,2018_Nov_15_1539,59.9826476727,spanish_cond2,001,1040,
images/chameleon.jpg,50 dollar bill,x,sounds/greatgatsby_spanish.wav,,,,,,,,,0,1,1,0,0,169,169,120,949.193466748,8.98015014172e-06,950.617932462,1.42447597617,,,,,x,1,1.40057017538,2018_Nov_15_1539,59.9826476727,spanish_cond2,001,1040,
images/computermouse02a.jpg,world map,x,sounds/greatgatsby_spanish.wav,,,,,,,,,0,1,1,0,0,170,170,239,951.719872238,9.30086957851e-06,953.35194138,1.63207908433,,,,,x,1,1.61730032316,2018_Nov_15_1539,59.9826476727,spanish_cond2,001,1040,
images/stapler03a.jpg,candy cane,x,sounds/greatgatsby_spanish.wav,,,,,,,,,0,1,1,0,0,171,171,145,954.462438598,8.98015014172e-06,955.585831632,1.12340201438,,,,,x,1,1.10051642277,2018_Nov_15_1539,59.9826476727,spanish_cond2,001,1040,
images/broom02.jpg,broom,z,sounds/greatgatsby_spanish.wav,,,,,,,,,0,1,1,0,0,172,172,116,956.679788697,8.98015014172e-06,957.719687824,1.03990842813,,,,,z,1,1.01715625589,2018_Nov_15_1539,59.9826476727,spanish_cond2,001,1040,
images/nametag01a.jpg,name tag,z,sounds/greatgatsby_spanish.wav,,,,,,,,,0,1,1,0,0,173,173,108,958.839790275,9.30086980588e-06,959.820208096,0.980427121593,,,,,z,1,0.967143234676,2018_Nov_15_1539,59.9826476727,spanish_cond2,001,1040,
images/tulip02.jpg,sport shorts,x,sounds/greatgatsby_spanish.wav,,,,,,,,,0,1,1,0,0,174,174,225,960.914126353,9.30086957851e-06,962.087431382,1.17331497106,,,,,x,1,1.15051950168,2018_Nov_15_1539,59.9826476727,spanish_cond2,001,1040,
images/birthdaycandle.jpg,birthday candle,z,sounds/greatgatsby_spanish.wav,,,,,,,,,0,1,1,0,0,175,175,55,963.183460616,8.98015014172e-06,964.021237413,0.837786739397,,,,,z,1,0.817097115191,2018_Nov_15_1539,59.9826476727,spanish_cond2,001,1040,
images/flipflop01b.jpg,flip flop,z,sounds/greatgatsby_spanish.wav,,,,,,,,,0,1,1,0,0,176,176,27,965.209232685,8.98014991435e-06,966.005288025,0.796064962405,,,,,z,1,0.783918347345,2018_Nov_15_1539,59.9826476727,spanish_cond2,001,1040,
images/handbag02a.jpg,candle,x,sounds/greatgatsby_spanish.wav,,,,,,,,,0,1,1,0,0,177,177,144,967.120656654,9.94230890683e-06,969.6726328,2.55198640918,,,,,x,1,2.53419063832,2018_Nov_15_1539,59.9826476727,spanish_cond2,001,1040,
images/dryingmachine01.jpg,drying machine,z,sounds/greatgatsby_spanish.wav,,,,,,,,,0,1,1,0,0,178,178,18,970.793423515,8.98015014172e-06,971.873169813,1.07975624024,,,,,z,1,1.06714009162,2018_Nov_15_1539,59.9826476727,spanish_cond2,001,1040,
images/fireextinguisher02.jpg,fire extinguisher,z,sounds/greatgatsby_spanish.wav,,,,,,,,,0,1,1,0,0,179,179,175,972.983333483,8.98015014172e-06,973.706954613,0.723630110187,,,,,z,1,0.700398782805,2018_Nov_15_1539,59.9826476727,spanish_cond2,001,1040,
images/tape01a.jpg,tie,x,sounds/greatgatsby_spanish.wav,,,,,,,,,0,1,1,0,0,180,180,232,974.83431527,1.66774211721e-05,975.624093486,0.789794893373,,,,,x,1,0.767037910345,2018_Nov_15_1539,59.9826476727,spanish_cond2,001,1040,
images/cookingpot.jpg,grasshopper,x,sounds/greatgatsby_spanish.wav,,,,,,,,,0,1,1,0,0,181,181,183,976.73795794,9.30086980588e-06,977.724610871,0.986662552903,,,,,x,1,0.967131688768,2018_Nov_15_1539,59.9826476727,spanish_cond2,001,1040,
images/eraser.jpg,eraser,z,sounds/greatgatsby_spanish.wav,,,,,,,,,0,1,1,0,0,182,182,110,978.831356631,9.30086935114e-06,979.541726588,0.710380219552,,,,,z,1,0.700400065683,2018_Nov_15_1539,59.9826476727,spanish_cond2,001,1040,
images/bandaid01.jpg,door handle,x,sounds/greatgatsby_spanish.wav,,,,,,,,,0,1,1,0,0,183,183,170,980.64858011,9.30086980588e-06,981.575557699,0.926987210983,,,,,x,1,0.917115781074,2018_Nov_15_1539,59.9826476727,spanish_cond2,001,1040,
images/paintbrush03a.jpg,paint brush,z,sounds/greatgatsby_spanish.wav,,,,,,,,,0,1,1,0,0,184,184,0,982.675013502,8.98015014172e-06,983.509382974,0.834379093184,,,,,z,1,0.817105453902,2018_Nov_15_1539,59.9826476727,spanish_cond2,001,1040,
images/hand01a.jpg,cupcake,x,sounds/greatgatsby_spanish.wav,,,,,,,,,0,1,1,0,0,185,185,163,984.620461657,8.98014968698e-06,985.359828838,0.739377123966,,,,,x,1,0.71706754484,2018_Nov_15_1539,59.9826476727,spanish_cond2,001,1040,
images/tent.jpg,tent,z,sounds/greatgatsby_spanish.wav,,,,,,,,,0,1,1,0,0,186,186,11,986.487850498,9.62158947004e-06,987.126943721,0.639103165247,,,,,z,1,0.617056576228,2018_Nov_15_1539,59.9826476727,spanish_cond2,001,1040,
images/key03b.jpg,cigar,x,sounds/greatgatsby_spanish.wav,,,,,,,,,0,1,1,0,0,187,187,153,988.228085547,9.62158947004e-06,989.760922428,1.53284842661,,,,,x,1,1.51726818705,2018_Nov_15_1539,59.9826476727,spanish_cond2,001,1040,
images/cake.jpg,cake,z,sounds/greatgatsby_spanish.wav,,,,,,,,,0,1,1,0,0,188,188,23,990.95047768,9.6215890153e-06,992.611628396,1.66116097945,,,,,z,1,1.6506439409,2018_Nov_15_1539,59.9826476727,spanish_cond2,001,1040,
images/wallet01.jpg,lamp,x,sounds/greatgatsby_spanish.wav,,,,,,,,,0,1,1,0,0,189,189,193,993.715984475,9.30086980588e-06,995.128913261,1.41293872844,,,,,x,1,1.40057755193,2018_Nov_15_1539,59.9826476727,spanish_cond2,001,1040,
images/feather03b.jpg,feather,z,sounds/greatgatsby_spanish.wav,,,,,,,,,0,1,1,0,0,190,190,114,996.229207104,9.30086980588e-06,996.96270223,0.733504747292,,,,,z,1,0.717080373625,2018_Nov_15_1539,59.9826476727,spanish_cond2,001,1040,
images/puzzle.jpg,puzzle,z,sounds/greatgatsby_spanish.wav,,,,,,,,,0,1,1,0,0,191,191,57,998.082429118,8.65943047756e-06,999.313283759,1.23086426247,,,,,z,1,1.21720802004,2018_Nov_15_1539,59.9826476727,spanish_cond2,001,1040,
images/bus.jpg,microphone,x,sounds/greatgatsby_spanish.wav,,,,,,,,,0,1,1,0,0,192,192,203,1000.43203598,8.98015014172e-06,1002.18064823,1.74862186769,,,,,x,1,1.73398614748,2018_Nov_15_1539,59.9826476727,spanish_cond2,001,1040,
images/screw03c.jpg,screw,z,sounds/greatgatsby_spanish.wav,,,,,,,,,0,1,1,0,0,193,193,84,1003.34246732,9.30086935114e-06,1004.41453046,1.07207275974,,,,,z,1,1.05047036743,2018_Nov_15_1539,59.9826476727,spanish_cond2,001,1040,
images/leaf01a.jpg,leaf,z,sounds/greatgatsby_spanish.wav,,,,,,,,,0,1,1,0,0,194,194,68,1005.54572724,9.94230867946e-06,1006.36501006,0.81929340331,,,,,x,0,0.800414241492,2018_Nov_15_1539,59.9826476727,spanish_cond2,001,1040,
images/sunglasses03a.jpg,sun glasses,z,sounds/greatgatsby_spanish.wav,,,,,,,,,0,1,1,0,0,195,195,17,1007.47295692,9.30086980588e-06,1008.3323515,0.859409337047,,,,,x,0,0.850557154165,2018_Nov_15_1539,59.9826476727,spanish_cond2,001,1040,
images/orange.jpg,bat,x,sounds/greatgatsby_spanish.wav,,,,,,,,,0,1,1,0,0,196,196,128,1009.45701876,8.98015014172e-06,1010.49937492,1.04236610276,,,,,x,1,1.03382373505,2018_Nov_15_1539,59.9826476727,spanish_cond2,001,1040,
images/beermug01b.jpg,beer mug,z,sounds/greatgatsby_spanish.wav,,,,,,,,,0,1,1,0,0,197,197,111,1011.6166576,9.6215890153e-06,1012.38316408,0.766516420204,,,,,z,1,0.750390315806,2018_Nov_15_1539,59.9826476727,spanish_cond2,001,1040,
images/plate01b.jpg,plate,z,sounds/greatgatsby_spanish.wav,,,,,,,,,0,1,1,0,0,198,198,3,1013.4818354,8.98014968698e-06,1014.30031706,0.818491924921,,,,,z,1,0.800431881072,2018_Nov_15_1539,59.9826476727,spanish_cond2,001,1040,
images/elbow.jpg,elbow,z,sounds/greatgatsby_spanish.wav,,,,,,,,,0,1,1,0,0,199,199,105,1015.48237838,9.30086980588e-06,1016.2174508,0.735082046499,,,,,z,1,0.717081656504,2018_Nov_15_1539,59.9826476727,spanish_cond2,001,1040,
images/bicycle.jpg,hand bag,x,sounds/greatgatsby_spanish.wav,,,,,,,,,0,1,1,0,0,200,200,186,1017.32797144,9.30086935114e-06,1018.13457877,0.806616638678,,,,,x,1,0.783754138887,2018_Nov_15_1539,59.9826476727,spanish_cond2,001,1040,
images/parrot01.jpg,chameleon,x,sounds/greatgatsby_spanish.wav,,,,,,,,,0,1,1,0,0,201,201,150,1019.24769242,9.6215890153e-06,1020.18509661,0.937413806595,,,,,x,1,0.917127006262,2018_Nov_15_1539,59.9826476727,spanish_cond2,001,1040,
images/cat.jpg,black olive,x,sounds/greatgatsby_spanish.wav,,,,,,,,,0,1,1,0,0,202,202,133,1021.31605253,8.98014968698e-06,1022.31894927,1.00290668213,,,,,x,1,0.983806865196,2018_Nov_15_1539,59.9826476727,spanish_cond2,001,1040,
images/fork01.jpg,cooking pot,x,sounds/greatgatsby_spanish.wav,,,,,,,,,0,1,1,0,0,203,203,160,1023.48737295,9.6215890153e-06,1024.23608365,0.748720970061,,,,,x,1,0.733727968164,2018_Nov_15_1539,59.9826476727,spanish_cond2,001,1040,
images/dragonfly02.jpg,dragon fly,z,sounds/greatgatsby_spanish.wav,,,,,,,,,0,1,1,0,0,204,204,29,1025.33374824,9.30086935114e-06,1026.2699199,0.936181601725,,,,,z,1,0.917121554028,2018_Nov_15_1539,59.9826476727,spanish_cond2,001,1040,
images/grandpiano.jpg,tulip,x,sounds/greatgatsby_spanish.wav,,,,,,,,,0,1,1,0,0,205,205,236,1027.38383053,9.30086935114e-06,1028.08704427,0.703223360706,,,,,x,1,0.683742208116,2018_Nov_15_1539,59.9826476727,spanish_cond2,001,1040,
images/seagull.jpg,seagull,z,sounds/greatgatsby_spanish.wav,,,,,,,,,0,1,1,0,0,206,206,50,1029.19456682,9.62158947004e-06,1031.43787211,2.24331556119,,,,,z,1,2.23411892541,2018_Nov_15_1539,59.9826476727,spanish_cond2,001,1040,
images/sock03.jpg,sock,z,sounds/greatgatsby_spanish.wav,,,,,,,,,0,1,1,0,0,207,207,90,1032.54391037,8.98015014172e-06,1033.27165307,0.727751999046,,,,,z,1,0.717073959233,2018_Nov_15_1539,59.9826476727,spanish_cond2,001,1040,
images/gamecontroller01.jpg,game controller,z,sounds/greatgatsby_spanish.wav,,,,,,,,,0,1,1,0,0,208,208,112,1034.39164359,9.30086935114e-06,1035.30548257,0.913848930785,,,,,z,1,0.900443491123,2018_Nov_15_1539,59.9826476727,spanish_cond2,001,1040,
images/remotecontrol01c.jpg,remote control,z,sounds/greatgatsby_spanish.wav,,,,,,,,,0,1,1,0,0,209,209,85,1036.41469114,9.62158947004e-06,1037.589382,1.17470112136,,,,,z,1,1.15050988009,2018_Nov_15_1539,59.9826476727,spanish_cond2,001,1040,
images/pouch01b.jpg,pouch,z,sounds/greatgatsby_spanish.wav,,,,,,,,,0,1,1,0,0,210,210,25,1038.77822878,9.30086935114e-06,1039.62322466,0.845005817854,,,,,z,1,0.833773574498,2018_Nov_15_1539,59.9826476727,spanish_cond2,001,1040,
images/bowtie.jpg,bowtie,z,sounds/greatgatsby_spanish.wav,,,,,,,,,0,1,1,0,0,211,211,89,1040.73351661,9.30086980588e-06,1041.44042729,0.706920296037,,,,,z,1,0.683823350186,2018_Nov_15_1539,59.9826476727,spanish_cond2,001,1040,
images/blackolive.jpg,tank,x,sounds/greatgatsby_spanish.wav,,,,,,,,,0,1,1,0,0,212,212,229,1042.55536615,9.6215890153e-06,1043.4408314,0.885475505358,,,,,x,1,0.867109494969,2018_Nov_15_1539,59.9826476727,spanish_cond2,001,1040,
images/backpack01b.jpg,swallow,x,sounds/greatgatsby_spanish.wav,,,,,,,,,0,1,1,0,0,213,213,228,1044.5722793,8.98015014172e-06,1045.99145154,1.4191815363,,,,,x,1,1.40055766732,2018_Nov_15_1539,59.9826476727,spanish_cond2,001,1040,
images/panda.jpg,panda,z,sounds/greatgatsby_spanish.wav,,,,,,,,,0,1,1,0,0,214,214,83,1047.10080732,9.62158947004e-06,1047.84190735,0.74110965148,,,,,z,1,0.717062413325,2018_Nov_15_1539,59.9826476727,spanish_cond2,001,1040,
images/8ball.jpg,nail clipper,x,sounds/greatgatsby_spanish.wav,,,,,,,,,0,1,1,0,0,215,215,206,1048.95801042,9.9423091342e-06,1050.00911517,1.05111501391,,,,,x,1,1.03381956569,2018_Nov_15_1539,59.9826476727,spanish_cond2,001,1040,
images/cola.jpg,comb,x,sounds/greatgatsby_spanish.wav,,,,,,,,,0,1,1,0,0,216,216,157,1051.13046266,8.98015014172e-06,1052.44303763,1.31258394837,,,,,x,1,1.30054637799,2018_Nov_15_1539,59.9826476727,spanish_cond2,001,1040,
,,,sounds/greatgatsby_spanish.wav,,,,,,,,,0,1,1,0,,,,,,,,,,,,,,,,2018_Nov_15_1539,59.9826476727,spanish_cond2,001,1040,
