images,name,corrAns,sounds,trials_3.thisRepN,trials_3.thisTrialN,trials_3.thisN,trials_3.thisIndex,trials_4.thisRepN,trials_4.thisTrialN,trials_4.thisN,trials_4.thisIndex,trials_2.thisRepN,trials_2.thisTrialN,trials_2.thisN,trials_2.thisIndex,trials.thisRepN,trials.thisTrialN,trials.thisN,trials.thisIndex,begin_global,begin_routine,end_global,end_routine,key_resp_2.keys,key_resp_2.corr,key_resp_2.rt,begin_book,key_resp_1.keys,key_resp_1.corr,key_resp_1.rt,date,frameRate,expName,session,participant,
images/volleyball.jpg,volley ball,z,,0,0,0,0,,,,,,,,,,,,,,,,,,,,,,,,2018_Nov_26_1107,59.9861096392,chinese_cond2,001,1042,
images/puma.jpg,puma,z,,,,,,0,0,0,0,,,,,,,,,48.1682395827,1.02630583569e-05,50.9402592313,2.77203087369,x,0,2.75092206895,,,,,2018_Nov_26_1107,59.9861096392,chinese_cond2,001,1042,
images/doorhandle.jpg,doll,x,sounds/greatgatsby_chinese.wav,,,,,,,,,0,0,0,0,0,0,0,168,93.1231710962,9.62160993367e-06,94.6843743465,1.56121319265,,,,82.9363268877,x,1,1.55062303005,2018_Nov_26_1107,59.9861096392,chinese_cond2,001,1042,
images/dragonfly02.jpg,dragon fly,z,sounds/greatgatsby_chinese.wav,,,,,,,,,0,0,0,0,0,1,1,29,95.7907519208,9.30076930672e-06,96.9849444578,1.19420215848,,,,,z,1,1.18386985443,2018_Nov_26_1107,59.9861096392,chinese_cond2,001,1042,
images/binder03b.jpg,dj mixer,x,sounds/greatgatsby_chinese.wav,,,,,,,,,0,0,0,0,0,2,2,167,98.0997415641,8.65943729877e-06,99.7522915419,1.65255927865,,,,,x,1,1.63397774461,2018_Nov_26_1107,59.9861096392,chinese_cond2,001,1042,
images/eyedrops.jpg,bicycle,x,sounds/greatgatsby_chinese.wav,,,,,,,,,0,0,0,0,0,3,3,131,100.854937864,8.65932088345e-06,101.802792057,0.947863814654,,,,,x,1,0.933794164681,2018_Nov_26_1107,59.9861096392,chinese_cond2,001,1042,
images/honeycomb.jpg,honey comb,z,sounds/greatgatsby_chinese.wav,,,,,,,,,0,0,0,0,0,4,4,59,102.917196602,9.30088572204e-06,104.803521053,1.88633471332,,,,,z,1,1.86734907248,2018_Nov_26_1107,59.9861096392,chinese_cond2,001,1042,
images/cake.jpg,cake,z,sounds/greatgatsby_chinese.wav,,,,,,,,,0,0,0,0,0,5,5,23,105.917885508,9.62160993367e-06,106.720673075,0.802796867676,,,,,z,1,0.783750931616,2018_Nov_26_1107,59.9861096392,chinese_cond2,001,1042,
images/feather03b.jpg,feather,z,sounds/greatgatsby_chinese.wav,,,,,,,,,0,0,0,0,0,6,6,114,107.823126965,9.30076930672e-06,108.654483917,0.831367214909,,,,,z,1,0.817109623342,2018_Nov_26_1107,59.9861096392,chinese_cond2,001,1042,
images/bench02.jpg,electric toothbrush,x,sounds/greatgatsby_chinese.wav,,,,,,,,,0,0,0,0,0,7,7,172,109.765419559,9.30088572204e-06,110.938371475,1.17296153796,,,,,x,1,1.1505188602,2018_Nov_26_1107,59.9861096392,chinese_cond2,001,1042,
images/arrow02.jpg,hammer,x,sounds/greatgatsby_chinese.wav,,,,,,,,,0,0,0,0,0,8,8,184,112.038511373,8.98016151041e-06,113.022222985,0.983720912249,,,,,x,1,0.967138744658,2018_Nov_26_1107,59.9861096392,chinese_cond2,001,1042,
images/mattress.jpg,cat,x,sounds/greatgatsby_chinese.wav,,,,,,,,,0,0,0,0,0,9,9,147,114.128959124,9.62149351835e-06,114.972694571,0.843745710328,,,,,x,1,0.833767480799,2018_Nov_26_1107,59.9861096392,chinese_cond2,001,1042,
images/elbow.jpg,elbow,z,sounds/greatgatsby_chinese.wav,,,,,,,,,0,0,0,0,0,10,10,105,116.086720026,9.30088572204e-06,117.039884695,0.953174932045,,,,,z,1,0.933792881784,2018_Nov_26_1107,59.9861096392,chinese_cond2,001,1042,
images/birthdaycandle.jpg,birthday candle,z,sounds/greatgatsby_chinese.wav,,,,,,,,,0,0,0,0,0,11,11,55,118.138006625,8.98016151041e-06,119.490488738,1.35249173502,,,,,z,1,1.33388903353,2018_Nov_26_1107,59.9861096392,chinese_cond2,001,1042,
images/grasshopper.jpg,cauliflower,x,sounds/greatgatsby_chinese.wav,,,,,,,,,0,0,0,0,0,12,12,148,120.586733496,8.98016151041e-06,122.024435309,1.43771175516,,,,,x,1,1.41724663472,2018_Nov_26_1107,59.9861096392,chinese_cond2,001,1042,
images/floorlamp.jpg,floor lamp,z,sounds/greatgatsby_chinese.wav,,,,,,,,,0,0,0,0,0,13,13,26,123.119645746,8.65943729877e-06,124.658420109,1.53878334363,,,,,z,1,1.51726594195,2018_Nov_26_1107,59.9861096392,chinese_cond2,001,1042,
images/leaf01a.jpg,leaf,z,sounds/greatgatsby_chinese.wav,,,,,,,,,0,0,0,0,0,14,14,68,125.763531482,9.30088572204e-06,126.52554564,0.762024100171,,,,,z,1,0.750412445399,2018_Nov_26_1107,59.9861096392,chinese_cond2,001,1042,
images/pepper05a.jpg,lighter,x,sounds/greatgatsby_chinese.wav,,,,,,,,,0,0,0,0,0,15,15,198,127.648401469,9.62160993367e-06,128.559404013,0.911013127654,,,,,x,1,0.900461772224,2018_Nov_26_1107,59.9861096392,chinese_cond2,001,1042,
images/pictureframe04.jpg,picture frame,z,sounds/greatgatsby_chinese.wav,,,,,,,,,0,0,0,0,0,16,16,41,129.683218152,9.30088572204e-06,130.759941347,1.0767331369,,,,,z,1,1.06717248424,2018_Nov_26_1107,59.9861096392,chinese_cond2,001,1042,
images/bat.jpg,hand,x,sounds/greatgatsby_chinese.wav,,,,,,,,,0,0,0,0,0,17,17,185,131.860401644,8.98016151041e-06,132.793767648,0.933375304798,,,,,x,1,0.917130534188,2018_Nov_26_1107,59.9861096392,chinese_cond2,001,1042,
images/razor04a.jpg,razor,z,sounds/greatgatsby_chinese.wav,,,,,,,,,0,0,0,0,0,18,18,36,133.895787283,9.30088572204e-06,134.977632691,1.08185535029,,,,,z,1,1.06716286275,2018_Nov_26_1107,59.9861096392,chinese_cond2,001,1042,
images/medal01.jpg,medal,z,sounds/greatgatsby_chinese.wav,,,,,,,,,0,0,0,0,0,19,19,115,136.080505762,9.30088572204e-06,137.628284971,1.5477891512,,,,,z,1,1.53393823199,2018_Nov_26_1107,59.9861096392,chinese_cond2,001,1042,
images/blueberry02.jpg,blueberry,z,sounds/greatgatsby_chinese.wav,,,,,,,,,0,0,0,0,0,20,20,46,138.741448973,8.65943729877e-06,139.462070733,0.720631702221,,,,,z,1,0.70040808362,2018_Nov_26_1107,59.9861096392,chinese_cond2,001,1042,
images/thumbtack02a.jpg,thumb tack,z,sounds/greatgatsby_chinese.wav,,,,,,,,,0,0,0,0,0,21,21,60,140.574517926,8.98016151041e-06,141.429221985,0.854713680805,,,,,x,0,0.833767801523,2018_Nov_26_1107,59.9861096392,chinese_cond2,001,1042,
images/parrot01.jpg,chameleon,x,sounds/greatgatsby_chinese.wav,,,,,,,,,0,0,0,0,0,22,22,150,142.544828267,1.25080114231e-05,144.179900628,1.6350826238,,,,,x,1,1.6172961538,2018_Nov_26_1107,59.9861096392,chinese_cond2,001,1042,
images/tie01.jpg,bench,x,sounds/greatgatsby_chinese.wav,,,,,,,,,0,0,0,0,0,23,23,130,145.280567789,9.30076930672e-06,146.363789726,1.08323123748,,,,,x,1,1.0671772951,2018_Nov_26_1107,59.9861096392,chinese_cond2,001,1042,
images/tissuebox03.jpg,tissue box,z,sounds/greatgatsby_chinese.wav,,,,,,,,,0,0,0,0,0,24,24,58,147.491700738,9.30088572204e-06,148.497641428,1.00595063227,,,,,z,1,0.983813279541,2018_Nov_26_1107,59.9861096392,chinese_cond2,001,1042,
images/masquerademask02b.jpg,mirror,x,sounds/greatgatsby_chinese.wav,,,,,,,,,0,0,0,0,0,25,25,204,149.605083791,8.98016151041e-06,150.481459197,0.876384707051,,,,,x,1,0.867111740052,2018_Nov_26_1107,59.9861096392,chinese_cond2,001,1042,
images/butterfly.jpg,butterfly,z,sounds/greatgatsby_chinese.wav,,,,,,,,,0,0,0,0,0,26,26,91,151.591138901,8.65943729877e-06,152.882058558,1.29092927871,,,,,z,1,1.26722264476,2018_Nov_26_1107,59.9861096392,chinese_cond2,001,1042,
images/peach01.jpg,peach,z,sounds/greatgatsby_chinese.wav,,,,,,,,,0,0,0,0,0,27,27,106,154.012644693,8.98016151041e-06,154.665840279,0.65320488729,,,,,z,1,0.63373880845,2018_Nov_26_1107,59.9861096392,chinese_cond2,001,1042,
images/hairpin.jpg,hair pin,z,sounds/greatgatsby_chinese.wav,,,,,,,,,0,0,0,0,0,28,28,28,155.758869502,8.98016151041e-06,156.88303547,1.12417526951,,,,,z,1,1.10050680116,2018_Nov_26_1107,59.9861096392,chinese_cond2,001,1042,
images/lightswitch02a.jpg,fork,x,sounds/greatgatsby_chinese.wav,,,,,,,,,0,0,0,0,0,29,29,177,157.996772919,8.65943729877e-06,158.816851765,0.820088467328,,,,,x,1,0.800430598203,2018_Nov_26_1107,59.9861096392,chinese_cond2,001,1042,
images/backpack01b.jpg,swallow,x,sounds/greatgatsby_chinese.wav,,,,,,,,,0,0,0,0,0,30,30,228,159.94935003,9.30088572204e-06,161.634211549,1.68487146206,,,,,x,1,1.66731174081,2018_Nov_26_1107,59.9861096392,chinese_cond2,001,1042,
images/lollipop03b.jpg,lollipop,z,sounds/greatgatsby_chinese.wav,,,,,,,,,0,0,0,0,0,31,31,42,162.729342127,8.98016151041e-06,164.018134771,1.28880226612,,,,,z,1,1.26721174037,2018_Nov_26_1107,59.9861096392,chinese_cond2,001,1042,
images/fireextinguisher02.jpg,fire extinguisher,x,sounds/greatgatsby_chinese.wav,,,,,,,,,0,0,0,0,0,32,32,175,165.131102172,8.98016151041e-06,166.835488462,1.7043962325,,,,,x,1,1.68398082349,2018_Nov_26_1107,59.9861096392,chinese_cond2,001,1042,
images/cupcake.jpg,scissors,x,sounds/greatgatsby_chinese.wav,,,,,,,,,0,0,0,0,0,33,33,219,167.957342042,8.65943729877e-06,168.935850298,0.978517556796,,,,,x,1,0.966969725327,2018_Nov_26_1107,59.9861096392,chinese_cond2,001,1042,
images/lamp04b.jpg,parking meter,x,sounds/greatgatsby_chinese.wav,,,,,,,,,0,0,0,0,0,34,34,209,170.0586407,8.33871308714e-06,171.569993534,1.5113618141,,,,,x,1,1.50060391508,2018_Nov_26_1107,59.9861096392,chinese_cond2,001,1042,
images/flower01.jpg,bus,x,sounds/greatgatsby_chinese.wav,,,,,,,,,0,0,0,0,0,35,35,140,172.68700553,9.62160993367e-06,173.487133369,0.800137460465,,,,,x,1,0.783761194791,2018_Nov_26_1107,59.9861096392,chinese_cond2,001,1042,
images/lettuce.jpg,mushroom,x,sounds/greatgatsby_chinese.wav,,,,,,,,,0,0,0,0,0,36,36,205,174.613543413,8.65943729877e-06,175.771029908,1.15749579528,,,,,x,1,1.13384592894,2018_Nov_26_1107,59.9861096392,chinese_cond2,001,1042,
images/paperclip04.jpg,eye drops,x,sounds/greatgatsby_chinese.wav,,,,,,,,,0,0,0,0,0,37,37,174,176.878778558,9.30088572204e-06,178.688427922,1.80965898524,,,,,x,1,1.80068781541,2018_Nov_26_1107,59.9861096392,chinese_cond2,001,1042,
images/teapot.jpg,light switch,x,sounds/greatgatsby_chinese.wav,,,,,,,,,0,0,0,0,0,38,38,197,179.808117286,9.30088572204e-06,181.172372055,1.36426407029,,,,,x,1,1.35057800089,2018_Nov_26_1107,59.9861096392,chinese_cond2,001,1042,
images/crocodile.jpg,triangle ruler,x,sounds/greatgatsby_chinese.wav,,,,,,,,,0,0,0,0,0,39,39,235,182.272746079,8.98004509509e-06,183.256205604,0.983468826627,,,,,x,1,0.967129123048,2018_Nov_26_1107,59.9861096392,chinese_cond2,001,1042,
images/hairband.jpg,hairband,z,sounds/greatgatsby_chinese.wav,,,,,,,,,0,0,0,0,0,40,40,66,184.36827916,8.65943729877e-06,185.756834856,1.38856531843,,,,,x,0,1.36724580079,2018_Nov_26_1107,59.9861096392,chinese_cond2,001,1042,
images/watermelon01.jpg,orange,x,sounds/greatgatsby_chinese.wav,,,,,,,,,0,0,0,0,0,41,41,207,186.888498288,8.98016151041e-06,188.09074185,1.20225318382,,,,,x,1,1.18386344018,2018_Nov_26_1107,59.9861096392,chinese_cond2,001,1042,
images/bowtie.jpg,bowtie,z,sounds/greatgatsby_chinese.wav,,,,,,,,,0,0,0,0,0,42,42,89,189.203498217,8.98016151041e-06,189.974538067,0.771049471688,,,,,z,1,0.750426236424,2018_Nov_26_1107,59.9861096392,chinese_cond2,001,1042,
images/clothespin02a.jpg,clothes pin,z,sounds/greatgatsby_chinese.wav,,,,,,,,,0,0,0,0,0,43,43,79,191.082148809,8.98016151041e-06,192.341788038,1.2596485297,,,,,x,0,1.25053399813,2018_Nov_26_1107,59.9861096392,chinese_cond2,001,1042,
images/charcoalbarbecue.jpg,charcoal barbecue,z,sounds/greatgatsby_chinese.wav,,,,,,,,,0,0,0,0,0,44,44,77,193.461381186,8.65943729877e-06,194.625682652,1.16431108781,,,,,z,1,1.150521426,2018_Nov_26_1107,59.9861096392,chinese_cond2,001,1042,
images/axe01.jpg,axe,z,sounds/greatgatsby_chinese.wav,,,,,,,,,0,0,0,0,0,45,45,104,195.730547712,8.98016151041e-06,196.726212224,0.995673812809,,,,,z,1,0.983820976922,2018_Nov_26_1107,59.9861096392,chinese_cond2,001,1042,
images/gluestick.jpg,squirrel,x,sounds/greatgatsby_chinese.wav,,,,,,,,,0,0,0,0,0,46,46,226,197.836214251,8.65943729877e-06,199.910320694,2.07411542314,,,,,x,1,2.05074233771,2018_Nov_26_1107,59.9861096392,chinese_cond2,001,1042,
images/panda.jpg,panda,z,sounds/greatgatsby_chinese.wav,,,,,,,,,0,0,0,0,0,47,47,83,201.022486296,8.98016151041e-06,201.693925378,0.671448382782,,,,,z,1,0.650232457556,2018_Nov_26_1107,59.9861096392,chinese_cond2,001,1042,
images/headphones02b.jpg,headphones,z,sounds/greatgatsby_chinese.wav,,,,,,,,,0,0,0,0,0,48,48,101,202.804824778,8.98016151041e-06,203.861307356,1.05649219942,,,,,z,1,1.03384009178,2018_Nov_26_1107,59.9861096392,chinese_cond2,001,1042,
images/highheelshoe02a.jpg,high heel shoe,z,sounds/greatgatsby_chinese.wav,,,,,,,,,0,0,0,0,0,49,49,75,204.970120475,8.98016151041e-06,206.111856428,1.14174557442,,,,,z,1,1.1171861469,2018_Nov_26_1107,59.9861096392,chinese_cond2,001,1042,
images/squirrel.jpg,binder,x,sounds/greatgatsby_chinese.wav,,,,,,,,,0,0,0,0,0,50,50,132,207.217191663,9.30076930672e-06,208.129010439,0.911828396958,,,,,x,1,0.900454716291,2018_Nov_26_1107,59.9861096392,chinese_cond2,001,1042,
images/swan.jpg,swan,z,sounds/greatgatsby_chinese.wav,,,,,,,,,0,0,0,0,0,51,51,54,209.223581681,8.65943729877e-06,210.479604476,1.25603145361,,,,,z,1,1.23388576228,2018_Nov_26_1107,59.9861096392,chinese_cond2,001,1042,
images/dolphin01.jpg,dolphin,z,sounds/greatgatsby_chinese.wav,,,,,,,,,0,0,0,0,0,52,52,99,211.582076005,8.98016151041e-06,212.413407621,0.831340915989,,,,,z,1,0.817105774651,2018_Nov_26_1107,59.9861096392,chinese_cond2,001,1042,
images/magnifyingglass01b.jpg,magnifying glass,z,sounds/greatgatsby_chinese.wav,,,,,,,,,0,0,0,0,0,53,53,64,213.522551081,8.65943729877e-06,214.397218334,0.874676554231,,,,,z,1,0.85043399781,2018_Nov_26_1107,59.9861096392,chinese_cond2,001,1042,
images/ruler02b.jpg,watermelon,x,sounds/greatgatsby_chinese.wav,,,,,,,,,0,0,0,0,0,54,54,238,215.502274544,8.65943729877e-06,216.364376964,0.862111720839,,,,,x,1,0.850444581476,2018_Nov_26_1107,59.9861096392,chinese_cond2,001,1042,
images/antelope.jpg,antelope,z,sounds/greatgatsby_chinese.wav,,,,,,,,,0,0,0,0,0,55,55,12,217.470244914,8.65943729877e-06,219.131731745,1.6614967729,,,,,x,0,1.65062662214,2018_Nov_26_1107,59.9861096392,chinese_cond2,001,1042,
images/cloud.jpg,ceiling fan,x,sounds/greatgatsby_chinese.wav,,,,,,,,,0,0,0,0,0,56,56,149,220.23921516,9.30088572204e-06,221.33228768,1.0930824622,,,,,x,1,1.08385696169,2018_Nov_26_1107,59.9861096392,chinese_cond2,001,1042,
images/envelope02a.jpg,grand piano,x,sounds/greatgatsby_chinese.wav,,,,,,,,,0,0,0,0,0,57,57,182,222.457745828,9.30088572204e-06,223.399447015,0.941710808431,,,,,x,1,0.933803786291,2018_Nov_26_1107,59.9861096392,chinese_cond2,001,1042,
images/candycane01a.jpg,lip,x,sounds/greatgatsby_chinese.wav,,,,,,,,,0,0,0,0,0,58,58,200,224.496064449,9.30088572204e-06,225.199896536,0.703841708135,,,,,x,1,0.683744453243,2018_Nov_26_1107,59.9861096392,chinese_cond2,001,1042,
images/flashlight05.jpg,flash light,z,sounds/greatgatsby_chinese.wav,,,,,,,,,0,0,0,0,0,59,59,8,226.304742674,8.98016151041e-06,227.483830919,1.17909786699,,,,,x,0,1.16723765456,2018_Nov_26_1107,59.9861096392,chinese_cond2,001,1042,
images/50dollarbill.jpg,cherry,x,sounds/greatgatsby_chinese.wav,,,,,,,,,0,0,0,0,0,60,60,151,228.605998163,9.62160993367e-06,229.517623544,0.911635323777,,,,,x,1,0.900457282085,2018_Nov_26_1107,59.9861096392,chinese_cond2,001,1042,
images/sunglasses03a.jpg,sun glasses,z,sounds/greatgatsby_chinese.wav,,,,,,,,,0,0,0,0,0,61,61,17,230.629048284,8.98016151041e-06,231.434758248,0.80571958574,,,,,z,1,0.783757987549,2018_Nov_26_1107,59.9861096392,chinese_cond2,001,1042,
images/apple06.jpg,apple,z,sounds/greatgatsby_chinese.wav,,,,,,,,,0,0,0,0,0,62,62,13,232.564658363,8.98016151041e-06,233.251877493,0.687228430645,,,,,z,1,0.667064786656,2018_Nov_26_1107,59.9861096392,chinese_cond2,001,1042,
images/worldmap.jpg,scooter,x,sounds/greatgatsby_chinese.wav,,,,,,,,,0,0,0,0,0,63,63,220,234.385346255,8.98016151041e-06,235.152343434,0.767006159062,,,,,x,1,0.750415652758,2018_Nov_26_1107,59.9861096392,chinese_cond2,001,1042,
images/ladder.jpg,ladder,z,sounds/greatgatsby_chinese.wav,,,,,,,,,0,0,0,0,0,64,64,113,236.247489727,9.30088572204e-06,237.202852929,0.955374427256,,,,,z,1,0.93380218267,2018_Nov_26_1107,59.9861096392,chinese_cond2,001,1042,
images/pipe.jpg,icecube,x,sounds/greatgatsby_chinese.wav,,,,,,,,,0,0,0,0,0,65,65,188,238.314011792,9.62160993367e-06,239.936872432,1.62287058192,,,,,x,1,1.60063893767,2018_Nov_26_1107,59.9861096392,chinese_cond2,001,1042,
images/gps.jpg,gps,z,sounds/greatgatsby_chinese.wav,,,,,,,,,0,0,0,0,0,66,66,21,241.056335688,9.62160993367e-06,242.037375384,0.981049638358,,,,,z,1,0.967135537416,2018_Nov_26_1107,59.9861096392,chinese_cond2,001,1042,
images/mirror02.jpg,8 ball,x,sounds/greatgatsby_chinese.wav,,,,,,,,,0,0,0,0,0,67,67,121,243.142597406,9.30088572204e-06,245.221493797,2.07890601247,,,,,x,1,2.06741077895,2018_Nov_26_1107,59.9861096392,chinese_cond2,001,1042,
images/daisy.jpg,daisy,z,sounds/greatgatsby_chinese.wav,,,,,,,,,0,0,0,0,0,68,68,6,246.32470234,9.30088572204e-06,247.155320995,0.830627635471,,,,,z,1,0.817108340329,2018_Nov_26_1107,59.9861096392,chinese_cond2,001,1042,
images/toucan.jpg,toucan,z,sounds/greatgatsby_chinese.wav,,,,,,,,,0,0,0,0,0,69,69,81,248.259256931,8.98016151041e-06,249.172473082,0.913225451834,,,,,z,1,0.900460168603,2018_Nov_26_1107,59.9861096392,chinese_cond2,001,1042,
images/hand01a.jpg,cupcake,x,sounds/greatgatsby_chinese.wav,,,,,,,,,0,0,0,0,0,70,70,163,250.2850739,9.30088572204e-06,251.072933571,0.787869292661,,,,,x,1,0.767083131825,2018_Nov_26_1107,59.9861096392,chinese_cond2,001,1042,
images/saltshaker03c.jpg,salt shaker,z,sounds/greatgatsby_chinese.wav,,,,,,,,,0,0,0,0,0,71,71,63,252.186959347,8.98016151041e-06,253.490208109,1.3032583833,,,,,z,1,1.28387665376,2018_Nov_26_1107,59.9861096392,chinese_cond2,001,1042,
images/computermouse02a.jpg,world map,x,sounds/greatgatsby_chinese.wav,,,,,,,,,0,0,0,0,0,72,72,239,254.59472166,8.65943729877e-06,255.59072389,0.996012171963,,,,,x,1,0.98373470339,2018_Nov_26_1107,59.9861096392,chinese_cond2,001,1042,
images/tape01a.jpg,tie,x,sounds/greatgatsby_chinese.wav,,,,,,,,,0,0,0,0,0,73,73,232,256.719039971,9.30088572204e-06,258.074659043,1.35562837322,,,,,x,1,1.33384990576,2018_Nov_26_1107,59.9861096392,chinese_cond2,001,1042,
images/cigar.jpg,crocodile,x,sounds/greatgatsby_chinese.wav,,,,,,,,,0,0,0,0,0,74,74,162,259.175565782,9.30088572204e-06,260.84202088,1.66646472027,,,,,x,1,1.65064682742,2018_Nov_26_1107,59.9861096392,chinese_cond2,001,1042,
images/computerkeyboard01a.jpg,computer keyboard,z,sounds/greatgatsby_chinese.wav,,,,,,,,,0,0,0,0,0,75,75,61,261.961565599,8.98016151041e-06,263.275954558,1.31439954229,,,,,z,1,1.30056209327,2018_Nov_26_1107,59.9861096392,chinese_cond2,001,1042,
images/marker01a.jpg,marker,z,sounds/greatgatsby_chinese.wav,,,,,,,,,0,0,0,0,0,76,76,95,264.377106006,9.30088572204e-06,265.209755137,0.832659073756,,,,,z,1,0.817100643064,2018_Nov_26_1107,59.9861096392,chinese_cond2,001,1042,
images/pouch01b.jpg,pouch,z,sounds/greatgatsby_chinese.wav,,,,,,,,,0,0,0,0,0,77,77,25,266.324621519,9.30088572204e-06,267.526994972,1.20238275453,,,,,z,1,1.18385574291,2018_Nov_26_1107,59.9861096392,chinese_cond2,001,1042,
images/nailpolish02b.jpg,nail polish,z,sounds/greatgatsby_chinese.wav,,,,,,,,,0,0,0,0,0,78,78,94,268.63779944,8.98016151041e-06,269.344109406,0.70631958812,,,,,z,1,0.683730662218,2018_Nov_26_1107,59.9861096392,chinese_cond2,001,1042,
images/battery03b.jpg,battery,z,sounds/greatgatsby_chinese.wav,,,,,,,,,0,0,0,0,0,79,79,34,270.454487958,8.98016151041e-06,271.361122301,0.906643964001,,,,,z,1,0.883626235882,2018_Nov_26_1107,59.9861096392,chinese_cond2,001,1042,
images/screwdriver02b.jpg,cola,x,sounds/greatgatsby_chinese.wav,,,,,,,,,0,0,0,0,0,80,80,158,272.457287199,8.65943729877e-06,274.161972721,1.70469546388,,,,,x,1,1.68399236933,2018_Nov_26_1107,59.9861096392,chinese_cond2,001,1042,
images/pen03c.jpg,pepper,x,sounds/greatgatsby_chinese.wav,,,,,,,,,0,0,0,0,0,81,81,211,275.258019274,9.30088572204e-06,276.312497033,1.05448770174,,,,,x,1,1.0338240558,2018_Nov_26_1107,59.9861096392,chinese_cond2,001,1042,
images/electrictoothbrush01a.jpg,banjo,x,sounds/greatgatsby_chinese.wav,,,,,,,,,0,0,0,0,0,82,82,127,277.409621525,8.65943729877e-06,278.513050403,1.10343817878,,,,,x,1,1.08384926431,2018_Nov_26_1107,59.9861096392,chinese_cond2,001,1042,
images/diploma01.jpg,glasses,x,sounds/greatgatsby_chinese.wav,,,,,,,,,0,0,0,0,0,83,83,179,279.648654196,8.98016151041e-06,282.297301978,2.6486570827,,,,,x,1,2.63420898351,2018_Nov_26_1107,59.9861096392,chinese_cond2,001,1042,
images/knife04.jpg,tooth brush,x,sounds/greatgatsby_chinese.wav,,,,,,,,,0,0,0,0,0,84,84,233,283.396085553,8.98016151041e-06,284.181105893,0.785029961611,,,,,x,1,0.767093394767,2018_Nov_26_1107,59.9861096392,chinese_cond2,001,1042,
images/cactus.jpg,cactus,z,sounds/greatgatsby_chinese.wav,,,,,,,,,0,0,0,0,0,85,85,70,285.295269898,8.98016151041e-06,286.398319044,1.10305844666,,,,,z,1,1.0838313041,2018_Nov_26_1107,59.9861096392,chinese_cond2,001,1042,
images/orange.jpg,bat,x,sounds/greatgatsby_chinese.wav,,,,,,,,,0,0,0,0,0,86,86,128,287.526078997,8.98016151041e-06,288.36547158,0.839401883539,,,,,x,1,0.81710417103,2018_Nov_26_1107,59.9861096392,chinese_cond2,001,1042,
images/safe.jpg,safe,z,sounds/greatgatsby_chinese.wav,,,,,,,,,0,0,0,0,0,87,87,78,289.477163478,9.30088572204e-06,291.416229312,1.93907513446,,,,,x,0,1.91738229909,2018_Nov_26_1107,59.9861096392,chinese_cond2,001,1042,
images/ashtray02b.jpg,ashtray,z,sounds/greatgatsby_chinese.wav,,,,,,,,,0,0,0,0,0,88,88,43,292.531788127,8.98016151041e-06,293.716788519,1.18500969221,,,,,z,1,1.16718666011,2018_Nov_26_1107,59.9861096392,chinese_cond2,001,1042,
images/djmixer01.jpg,light bulb,x,sounds/greatgatsby_chinese.wav,,,,,,,,,0,0,0,0,0,89,89,196,294.840886174,9.30088572204e-06,295.800641632,0.959765079198,,,,,x,1,0.950478321291,2018_Nov_26_1107,59.9861096392,chinese_cond2,001,1042,
images/hammer02a.jpg,flower,x,sounds/greatgatsby_chinese.wav,,,,,,,,,0,0,0,0,0,90,90,176,296.898714812,8.65932088345e-06,297.767625469,0.868920278037,,,,,x,1,0.850283259526,2018_Nov_26_1107,59.9861096392,chinese_cond2,001,1042,
images/coffeepot03b.jpg,coffee pot,z,sounds/greatgatsby_chinese.wav,,,,,,,,,0,0,0,0,0,91,91,107,298.891261929,8.98016151041e-06,299.734954721,0.843702092534,,,,,z,1,0.833791534766,2018_Nov_26_1107,59.9861096392,chinese_cond2,001,1042,
images/rubberglove02a.jpg,lady bug,x,sounds/greatgatsby_chinese.wav,,,,,,,,,0,0,0,0,0,92,92,192,300.84234192,8.65943729877e-06,302.53565761,1.69332499034,,,,,x,1,1.68401129195,2018_Nov_26_1107,59.9861096392,chinese_cond2,001,1042,
images/redfox.jpg,red fox,z,sounds/greatgatsby_chinese.wav,,,,,,,,,0,0,0,0,0,93,93,1,303.64890115,8.65943729877e-06,304.652811364,1.00391951471,,,,,z,1,0.983806865173,2018_Nov_26_1107,59.9861096392,chinese_cond2,001,1042,
images/weight01.jpg,weight,z,sounds/greatgatsby_chinese.wav,,,,,,,,,0,0,0,0,0,94,94,67,305.760172265,8.98016151041e-06,307.103627083,1.34347021219,,,,,z,1,1.33406991954,2018_Nov_26_1107,59.9861096392,chinese_cond2,001,1042,
images/fork01.jpg,cooking pot,x,sounds/greatgatsby_chinese.wav,,,,,,,,,0,0,0,0,0,95,95,160,308.199626169,8.98016151041e-06,309.220608931,1.02099206275,,,,,x,1,1.00047306146,2018_Nov_26_1107,59.9861096392,chinese_cond2,001,1042,
images/ostrich.jpg,ostrich,z,sounds/greatgatsby_chinese.wav,,,,,,,,,0,0,0,0,0,96,96,76,310.323536845,8.98016151041e-06,312.188012911,1.86448536685,,,,,x,0,1.85068993212,2018_Nov_26_1107,59.9861096392,chinese_cond2,001,1042,
images/bull.jpg,button,x,sounds/greatgatsby_chinese.wav,,,,,,,,,0,0,0,0,0,97,97,141,313.296693252,8.98016151041e-06,314.621943381,1.32525975083,,,,,x,1,1.31722925173,2018_Nov_26_1107,59.9861096392,chinese_cond2,001,1042,
images/seagull.jpg,seagull,z,sounds/greatgatsby_chinese.wav,,,,,,,,,0,0,0,0,0,98,98,50,315.730667661,8.98016151041e-06,316.85583203,1.12517366966,,,,,z,1,1.11718069471,2018_Nov_26_1107,59.9861096392,chinese_cond2,001,1042,
images/straw.jpg,straw,z,sounds/greatgatsby_chinese.wav,,,,,,,,,0,0,0,0,0,99,99,109,317.949249324,8.33871308714e-06,318.806152237,0.856912213843,,,,,z,1,0.833617383963,2018_Nov_26_1107,59.9861096392,chinese_cond2,001,1042,
images/flamingo.jpg,flamingo,z,sounds/greatgatsby_chinese.wav,,,,,,,,,0,0,0,0,0,100,100,52,319.906941271,9.30088572204e-06,320.706775331,0.799844002002,,,,,z,1,0.783749648836,2018_Nov_26_1107,59.9861096392,chinese_cond2,001,1042,
images/cheetah.jpg,cheetah,z,sounds/greatgatsby_chinese.wav,,,,,,,,,0,0,0,0,0,101,101,82,321.811223776,9.30088572204e-06,323.224063082,1.41284860624,,,,,z,1,1.40057209972,2018_Nov_26_1107,59.9861096392,chinese_cond2,001,1042,
images/licenseplate.jpg,license plate,z,sounds/greatgatsby_chinese.wav,,,,,,,,,0,0,0,0,0,102,102,40,324.342015749,8.98004509509e-06,325.874733001,1.53272655315,,,,,z,1,1.51728518517,2018_Nov_26_1107,59.9861096392,chinese_cond2,001,1042,
images/donut.jpg,rhinoceros,x,sounds/greatgatsby_chinese.wav,,,,,,,,,0,0,0,0,0,103,103,216,327.001156515,9.30088572204e-06,327.94216623,0.941019016085,,,,,x,1,0.917388392845,2018_Nov_26_1107,59.9861096392,chinese_cond2,001,1042,
images/kiwi03.jpg,backpack,x,sounds/greatgatsby_chinese.wav,,,,,,,,,0,0,0,0,0,104,104,125,329.073430687,8.98016151041e-06,330.00907829,0.9356572252,,,,,x,1,0.917134382878,2018_Nov_26_1107,59.9861096392,chinese_cond2,001,1042,
images/blackolive.jpg,tank,x,sounds/greatgatsby_chinese.wav,,,,,,,,,0,0,0,0,0,105,105,229,331.124647369,8.98016151041e-06,332.726419088,1.60178198246,,,,,x,1,1.58395638468,2018_Nov_26_1107,59.9861096392,chinese_cond2,001,1042,
images/bracelet02a.jpg,chess knight,x,sounds/greatgatsby_chinese.wav,,,,,,,,,0,0,0,0,0,106,106,152,333.838394824,8.65932088345e-06,334.826933587,0.988548063673,,,,,x,1,0.967146762647,2018_Nov_26_1107,59.9861096392,chinese_cond2,001,1042,
images/scissors04a.jpg,leek,x,sounds/greatgatsby_chinese.wav,,,,,,,,,0,0,0,0,0,107,107,194,335.923631201,9.30088572204e-06,337.060817104,1.13719552476,,,,,x,1,1.11718358123,2018_Nov_26_1107,59.9861096392,chinese_cond2,001,1042,
images/flipflop01b.jpg,flip flop,z,sounds/greatgatsby_chinese.wav,,,,,,,,,0,0,0,0,0,108,108,27,338.178692157,8.65943729877e-06,338.927949049,0.749265872757,,,,,z,1,0.733759398689,2018_Nov_26_1107,59.9861096392,chinese_cond2,001,1042,
images/cookingpot.jpg,grasshopper,x,sounds/greatgatsby_chinese.wav,,,,,,,,,0,0,0,0,0,109,109,183,340.044787215,8.65943729877e-06,340.928430129,0.883652214194,,,,,x,1,0.867110777879,2018_Nov_26_1107,59.9861096392,chinese_cond2,001,1042,
images/key03b.jpg,cigar,x,sounds/greatgatsby_chinese.wav,,,,,,,,,0,0,0,0,0,110,110,153,342.032657598,8.65943729877e-06,342.945600176,0.912951877923,,,,,x,1,0.900459527038,2018_Nov_26_1107,59.9861096392,chinese_cond2,001,1042,
images/handbag02a.jpg,candle,x,sounds/greatgatsby_chinese.wav,,,,,,,,,0,0,0,0,0,111,111,144,344.064038091,8.98004509509e-06,345.196146361,1.13211821206,,,,,x,1,1.11717460107,2018_Nov_26_1107,59.9861096392,chinese_cond2,001,1042,
images/lion.jpg,lion,z,sounds/greatgatsby_chinese.wav,,,,,,,,,0,0,0,0,0,112,112,44,346.311631732,8.98016151041e-06,347.213314804,0.901692694169,,,,,z,1,0.883784350706,2018_Nov_26_1107,59.9861096392,chinese_cond2,001,1042,
images/aquarium.jpg,computer mouse,x,sounds/greatgatsby_chinese.wav,,,,,,,,,0,0,0,0,0,113,113,159,348.350655615,8.65943729877e-06,349.963997937,1.61335162295,,,,,x,1,1.60063059896,2018_Nov_26_1107,59.9861096392,chinese_cond2,001,1042,
images/parkingmeter.jpg,ear,x,sounds/greatgatsby_chinese.wav,,,,,,,,,0,0,0,0,0,114,114,171,351.066467863,8.98016151041e-06,351.947811217,0.881352654425,,,,,x,1,0.867053048336,2018_Nov_26_1107,59.9861096392,chinese_cond2,001,1042,
images/plate01b.jpg,plate,z,sounds/greatgatsby_chinese.wav,,,,,,,,,0,0,0,0,0,115,115,3,353.049263499,8.65943729877e-06,353.898291462,0.849037584499,,,,,z,1,0.833761066431,2018_Nov_26_1107,59.9861096392,chinese_cond2,001,1042,
images/stapler03a.jpg,candy cane,x,sounds/greatgatsby_chinese.wav,,,,,,,,,0,0,0,0,0,116,116,145,355.010978233,8.98016151041e-06,357.04908101,2.03811239812,,,,,x,1,2.01740224787,2018_Nov_26_1107,59.9861096392,chinese_cond2,001,1042,
images/microphone01.jpg,diaper,x,sounds/greatgatsby_chinese.wav,,,,,,,,,0,0,0,0,0,117,117,164,358.151284739,8.98016151041e-06,359.266298652,1.1150235344,,,,,x,1,1.10051578132,2018_Nov_26_1107,59.9861096392,chinese_cond2,001,1042,
images/banjo.jpg,knife,x,sounds/greatgatsby_chinese.wav,,,,,,,,,0,0,0,0,0,118,118,191,360.365068435,8.98016151041e-06,361.833600386,1.46854189306,,,,,x,1,1.45058319659,2018_Nov_26_1107,59.9861096392,chinese_cond2,001,1042,
images/icecube02 (2).jpg,aloe,x,sounds/greatgatsby_chinese.wav,,,,,,,,,0,0,0,0,0,119,119,122,362.944768229,8.65943729877e-06,363.917432652,0.972674044897,,,,,x,1,0.950464530266,2018_Nov_26_1107,59.9861096392,chinese_cond2,001,1042,
images/chameleon.jpg,50 dollar bill,x,sounds/greatgatsby_chinese.wav,,,,,,,,,0,0,0,0,0,120,120,120,365.031992747,8.98016151041e-06,365.851247663,0.819266462931,,,,,x,1,0.800436691847,2018_Nov_26_1107,59.9861096392,chinese_cond2,001,1042,
images/hairdryer03a.jpg,hairdryer,z,sounds/greatgatsby_chinese.wav,,,,,,,,,0,0,0,0,0,121,121,119,366.953278204,8.98016151041e-06,368.351862483,1.39859390096,,,,,z,1,1.38391039358,2018_Nov_26_1107,59.9861096392,chinese_cond2,001,1042,
images/sportshorts02.jpg,tape,x,sounds/greatgatsby_chinese.wav,,,,,,,,,0,0,0,0,0,122,122,230,369.46200723,9.62160993367e-06,370.369027398,0.907029789756,,,,,x,1,0.883781784913,2018_Nov_26_1107,59.9861096392,chinese_cond2,001,1042,
images/comb02a.jpg,diploma,x,sounds/greatgatsby_chinese.wav,,,,,,,,,0,0,0,0,0,123,123,166,371.476244617,8.33871308714e-06,372.402877433,0.926641795901,,,,,x,1,0.917145607993,2018_Nov_26_1107,59.9861096392,chinese_cond2,001,1042,
images/nametag01a.jpg,name tag,z,sounds/greatgatsby_chinese.wav,,,,,,,,,0,0,0,0,0,124,124,108,373.525650836,9.62160993367e-06,374.770165248,1.24452435353,,,,,z,1,1.23392521066,2018_Nov_26_1107,59.9861096392,chinese_cond2,001,1042,
images/egg01b (1).jpg,egg,z,sounds/greatgatsby_chinese.wav,,,,,,,,,0,0,0,0,0,125,125,19,375.883437973,8.65943729877e-06,376.903975897,1.02054786612,,,,,z,1,1.00048204162,2018_Nov_26_1107,59.9861096392,chinese_cond2,001,1042,
images/hanger02a.jpg,hanger,z,sounds/greatgatsby_chinese.wav,,,,,,,,,0,0,0,0,0,126,126,88,378.000702055,9.30076930672e-06,378.73775749,0.73706505599,,,,,z,1,0.717078449321,2018_Nov_26_1107,59.9861096392,chinese_cond2,001,1042,
images/handfan01b.jpg,handfan,z,sounds/greatgatsby_chinese.wav,,,,,,,,,0,0,0,0,0,127,127,69,379.854676157,8.98004509509e-06,381.038338185,1.18367132905,,,,,x,0,1.16720173392,2018_Nov_26_1107,59.9861096392,chinese_cond2,001,1042,
images/spoon02b.jpg,spoon,z,sounds/greatgatsby_chinese.wav,,,,,,,,,0,0,0,0,0,128,128,38,382.132512697,9.30088572204e-06,383.17219149,1.03968841443,,,,,z,1,1.01716138737,2018_Nov_26_1107,59.9861096392,chinese_cond2,001,1042,
images/sock03.jpg,sock,z,sounds/greatgatsby_chinese.wav,,,,,,,,,0,0,0,0,0,129,129,90,384.280295819,8.98016151041e-06,385.239360126,0.959073607693,,,,,z,1,0.950422516093,2018_Nov_26_1107,59.9861096392,chinese_cond2,001,1042,
images/pingpongpaddle01c (1).jpg,ping pong paddle,z,sounds/greatgatsby_chinese.wav,,,,,,,,,0,0,0,0,0,130,130,10,386.353921503,9.62160993367e-06,387.789986684,1.43607544352,,,,,z,1,1.417246314,2018_Nov_26_1107,59.9861096392,chinese_cond2,001,1042,
images/radish01.jpg,raisin,x,sounds/greatgatsby_chinese.wav,,,,,,,,,0,0,0,0,0,131,131,214,388.901438684,8.98016151041e-06,389.840491368,0.93906230561,,,,,x,1,0.917123157647,2018_Nov_26_1107,59.9861096392,chinese_cond2,001,1042,
images/candle08a.jpg,screw driver,x,sounds/greatgatsby_chinese.wav,,,,,,,,,0,0,0,0,0,132,132,221,390.956380525,8.98016151041e-06,392.791224982,1.83485375834,,,,,x,1,1.81733925862,2018_Nov_26_1107,59.9861096392,chinese_cond2,001,1042,
images/banana04a.jpg,banana,z,sounds/greatgatsby_chinese.wav,,,,,,,,,0,0,0,0,0,133,133,118,393.899687876,9.30088572204e-06,394.575002213,0.675323958974,,,,,z,1,0.667059334344,2018_Nov_26_1107,59.9861096392,chinese_cond2,001,1042,
images/boxingglove02a.jpg,bracelet,x,sounds/greatgatsby_chinese.wav,,,,,,,,,0,0,0,0,0,134,134,135,395.686724901,8.65943729877e-06,396.74216963,1.05545402993,,,,,x,1,1.03379070095,2018_Nov_26_1107,59.9861096392,chinese_cond2,001,1042,
images/lock02a.jpg,lock,z,sounds/greatgatsby_chinese.wav,,,,,,,,,0,0,0,0,0,135,135,65,397.853353829,8.98016151041e-06,398.909394456,1.05605056859,,,,,z,1,1.03382373508,2018_Nov_26_1107,59.9861096392,chinese_cond2,001,1042,
images/baseball01a.jpg,baseball,z,sounds/greatgatsby_chinese.wav,,,,,,,,,0,0,0,0,0,136,136,74,400.044192601,8.65943729877e-06,400.87655533,0.832372670993,,,,,z,1,0.817108340445,2018_Nov_26_1107,59.9861096392,chinese_cond2,001,1042,
images/barrel01.jpg,barrel,z,sounds/greatgatsby_chinese.wav,,,,,,,,,0,0,0,0,0,137,137,9,402.008221327,8.33871308714e-06,402.960401387,0.952188719064,,,,,z,1,0.933794806129,2018_Nov_26_1107,59.9861096392,chinese_cond2,001,1042,
images/lantern03.jpg,lantern,z,sounds/greatgatsby_chinese.wav,,,,,,,,,0,0,0,0,0,138,138,5,404.069731827,8.65943729877e-06,405.661071819,1.59134961385,,,,,z,1,1.56729435781,2018_Nov_26_1107,59.9861096392,chinese_cond2,001,1042,
images/broadsword.jpg,teapot,x,sounds/greatgatsby_chinese.wav,,,,,,,,,0,0,0,0,0,139,139,231,406.755983346,8.98016151041e-06,407.844929807,1.08895608329,,,,,x,1,1.06715324114,2018_Nov_26_1107,59.9861096392,chinese_cond2,001,1042,
images/puzzle.jpg,puzzle,z,sounds/greatgatsby_chinese.wav,,,,,,,,,0,0,0,0,0,140,140,57,408.966169851,9.30076930672e-06,410.312062458,1.34590222919,,,,,z,1,1.33374567179,2018_Nov_26_1107,59.9861096392,chinese_cond2,001,1042,
images/bottleofredwine02.jpg,pipe,x,sounds/greatgatsby_chinese.wav,,,,,,,,,0,0,0,0,0,141,141,213,411.412874585,8.98016151041e-06,412.379383436,0.966518152156,,,,,z,0,0.950455229497,2018_Nov_26_1107,59.9861096392,chinese_cond2,001,1042,
images/rhinoceros01.jpg,envelope,x,sounds/greatgatsby_chinese.wav,,,,,,,,,0,0,0,0,0,142,142,173,413.492317802,8.98016151041e-06,414.863338794,1.37103061343,,,,,x,1,1.35057190724,2018_Nov_26_1107,59.9861096392,chinese_cond2,001,1042,
images/wallet01.jpg,lamp,x,sounds/greatgatsby_chinese.wav,,,,,,,,,0,0,0,0,0,143,143,193,415.970746199,8.65943729877e-06,416.947174588,0.976437689853,,,,,z,0,0.967134895967,2018_Nov_26_1107,59.9861096392,chinese_cond2,001,1042,
images/scooter.jpg,pen,x,sounds/greatgatsby_chinese.wav,,,,,,,,,0,0,0,0,0,144,144,212,418.042215044,8.98004509509e-06,419.147718978,1.10551355546,,,,,x,1,1.08383226616,2018_Nov_26_1107,59.9861096392,chinese_cond2,001,1042,
images/bowlingball.jpg,bowling ball,z,sounds/greatgatsby_chinese.wav,,,,,,,,,0,0,0,0,0,145,145,20,420.282458111,8.98016151041e-06,421.898398262,1.61594977276,,,,,z,1,1.60062835389,2018_Nov_26_1107,59.9861096392,chinese_cond2,001,1042,
images/eraser.jpg,eraser,z,sounds/greatgatsby_chinese.wav,,,,,,,,,0,0,0,0,0,146,146,110,423.006670648,8.98016151041e-06,423.682177738,0.675516711432,,,,,z,1,0.66706863523,2018_Nov_26_1107,59.9861096392,chinese_cond2,001,1042,
images/dresser02.jpg,dresser,z,sounds/greatgatsby_chinese.wav,,,,,,,,,0,0,0,0,0,147,147,87,424.807023311,9.30088572204e-06,426.29948672,1.49247335142,,,,,x,0,1.48385144526,2018_Nov_26_1107,59.9861096392,chinese_cond2,001,1042,
images/lemon02.jpg,lemon,z,sounds/greatgatsby_chinese.wav,,,,,,,,,0,0,0,0,0,148,148,14,427.413633086,9.30088572204e-06,428.016581847,0.602958702948,,,,,z,1,0.583709430648,2018_Nov_26_1107,59.9861096392,chinese_cond2,001,1042,
images/highlighter03b.jpg,coin,x,sounds/greatgatsby_chinese.wav,,,,,,,,,0,0,0,0,0,149,149,156,429.12115858,9.30088572204e-06,429.917048109,0.795899471035,,,,,x,1,0.783754459582,2018_Nov_26_1107,59.9861096392,chinese_cond2,001,1042,
images/bicycle.jpg,hand bag,x,sounds/greatgatsby_chinese.wav,,,,,,,,,0,0,0,0,0,150,150,186,431.029686772,8.98016151041e-06,432.0008823,0.971205148962,,,,,x,1,0.95045747445,2018_Nov_26_1107,59.9861096392,chinese_cond2,001,1042,
images/dreamcatcher.jpg,dream catcher,z,sounds/greatgatsby_chinese.wav,,,,,,,,,0,0,0,0,0,151,151,48,433.101884292,8.98016151041e-06,434.301462674,1.19958800357,,,,,z,1,1.18385381857,2018_Nov_26_1107,59.9861096392,chinese_cond2,001,1042,
images/lily.jpg,kiwi,x,sounds/greatgatsby_chinese.wav,,,,,,,,,0,0,0,0,0,152,152,190,435.4034512,8.65943729877e-06,436.318625986,0.915184086654,,,,,x,1,0.900453754119,2018_Nov_26_1107,59.9861096392,chinese_cond2,001,1042,
images/button07.jpg,radish,x,sounds/greatgatsby_chinese.wav,,,,,,,,,0,0,0,0,0,153,153,215,437.432578637,8.65943729877e-06,438.302445038,0.869876022683,,,,,x,1,0.850442977971,2018_Nov_26_1107,59.9861096392,chinese_cond2,001,1042,
images/parkbench03.jpg,park bench,z,sounds/greatgatsby_chinese.wav,,,,,,,,,0,0,0,0,0,154,154,71,439.41062634,8.98016151041e-06,440.419638883,1.00902152283,,,,,z,1,1.00048107957,2018_Nov_26_1107,59.9861096392,chinese_cond2,001,1042,
images/remotecontrol01c.jpg,remote control,z,sounds/greatgatsby_chinese.wav,,,,,,,,,0,0,0,0,0,155,155,85,441.531701212,8.98016151041e-06,442.570172817,1.03848122573,,,,,z,1,1.01715465228,2018_Nov_26_1107,59.9861096392,chinese_cond2,001,1042,
images/bandaid01.jpg,door handle,x,sounds/greatgatsby_chinese.wav,,,,,,,,,0,0,0,0,0,156,156,170,443.6795581,9.30088572204e-06,444.870743569,1.19119573268,,,,,x,1,1.16719884751,2018_Nov_26_1107,59.9861096392,chinese_cond2,001,1042,
images/raisin.jpg,ruler,x,sounds/greatgatsby_chinese.wav,,,,,,,,,0,0,0,0,0,157,157,218,445.97852333,8.98016151041e-06,447.037946586,1.0594325572,,,,,x,1,1.05050372228,2018_Nov_26_1107,59.9861096392,chinese_cond2,001,1042,
images/carrot02.jpg,corkscrew,x,sounds/greatgatsby_chinese.wav,,,,,,,,,0,0,0,0,0,158,158,161,448.142386051,8.98016151041e-06,448.955084817,0.812708387617,,,,,x,1,0.800417448743,2018_Nov_26_1107,59.9861096392,chinese_cond2,001,1042,
images/paintbrush03a.jpg,paint brush,z,sounds/greatgatsby_chinese.wav,,,,,,,,,0,0,0,0,0,159,159,0,450.058090345,8.65943729877e-06,450.938923755,0.880842710147,,,,,z,1,0.867139001144,2018_Nov_26_1107,59.9861096392,chinese_cond2,001,1042,
images/acousticguitar02.jpg,acoustic guitar,z,sounds/greatgatsby_chinese.wav,,,,,,,,,0,0,0,0,0,160,160,97,452.055172438,9.30088572204e-06,453.089426579,1.03426376241,,,,,z,1,1.01714182342,2018_Nov_26_1107,59.9861096392,chinese_cond2,001,1042,
images/cherry01.jpg,highlighter,x,sounds/greatgatsby_chinese.wav,,,,,,,,,0,0,0,0,0,161,161,187,454.200732652,9.30088572204e-06,455.073251725,0.872528374079,,,,,x,1,0.850425659097,2018_Nov_26_1107,59.9861096392,chinese_cond2,001,1042,
images/diaper01a.jpg,camera,x,sounds/greatgatsby_chinese.wav,,,,,,,,,0,0,0,0,0,162,162,143,456.198163046,8.98016151041e-06,457.607223633,1.40907052881,,,,,x,1,1.40059070149,2018_Nov_26_1107,59.9861096392,chinese_cond2,001,1042,
images/electricguitar02.jpg,electric guitar,z,sounds/greatgatsby_chinese.wav,,,,,,,,,0,0,0,0,0,163,163,100,458.711888885,8.65943729877e-06,459.507682198,0.79580261372,,,,,z,1,0.783749007387,2018_Nov_26_1107,59.9861096392,chinese_cond2,001,1042,
images/bus.jpg,microphone,x,sounds/greatgatsby_chinese.wav,,,,,,,,,0,0,0,0,0,164,164,203,460.628319609,8.98016151041e-06,461.54155372,0.91324341204,,,,,x,1,0.900491598994,2018_Nov_26_1107,59.9861096392,chinese_cond2,001,1042,
images/mushroom01.jpg,shower head,x,sounds/greatgatsby_chinese.wav,,,,,,,,,0,0,0,0,0,165,165,222,462.660201707,9.62160993367e-06,463.942116519,1.28192475403,,,,,x,1,1.2672187963,2018_Nov_26_1107,59.9861096392,chinese_cond2,001,1042,
images/apricot.jpg,apricot,z,sounds/greatgatsby_chinese.wav,,,,,,,,,0,0,0,0,0,166,166,32,465.061450846,8.98016151041e-06,466.242681178,1.1812399535,,,,,z,1,1.16719403665,2018_Nov_26_1107,59.9861096392,chinese_cond2,001,1042,
images/aloe02.jpg,broad sword,x,sounds/greatgatsby_chinese.wav,,,,,,,,,0,0,0,0,0,167,167,137,467.366356445,8.65932088345e-06,468.49327034,1.12692319532,,,,,x,1,1.11721116316,2018_Nov_26_1107,59.9861096392,chinese_cond2,001,1042,
images/printer03a.jpg,printer,z,sounds/greatgatsby_chinese.wav,,,,,,,,,0,0,0,0,0,168,168,72,469.605390079,8.65943729877e-06,470.543741028,0.938360891771,,,,,z,1,0.91712027113,2018_Nov_26_1107,59.9861096392,chinese_cond2,001,1042,
images/cauliflower01.jpg,glue stick,x,sounds/greatgatsby_chinese.wav,,,,,,,,,0,0,0,0,0,169,169,181,471.661909218,8.98016151041e-06,472.360849048,0.698949130019,,,,,x,1,0.683734190068,2018_Nov_26_1107,59.9861096392,chinese_cond2,001,1042,
images/graduationcap.jpg,graduation cap,z,sounds/greatgatsby_chinese.wav,,,,,,,,,0,0,0,0,0,170,170,35,473.46403482,8.98016151041e-06,474.261303764,0.797277603298,,,,,z,1,0.783734574914,2018_Nov_26_1107,59.9861096392,chinese_cond2,001,1042,
images/chessknight02b (1).jpg,cockroach,x,sounds/greatgatsby_chinese.wav,,,,,,,,,0,0,0,0,0,171,171,155,475.37279842,3.68828186765e-05,476.111765985,0.738993864041,,,,,x,1,0.717073959182,2018_Nov_26_1107,59.9861096392,chinese_cond2,001,1042,
images/tank.jpg,wallet,x,sounds/greatgatsby_chinese.wav,,,,,,,,,0,0,0,0,0,172,172,237,477.217754847,9.30076930672e-06,478.112270798,0.894525572192,,,,,x,1,0.883781143464,2018_Nov_26_1107,59.9861096392,chinese_cond2,001,1042,
images/volleyball.jpg,volley ball,z,sounds/greatgatsby_chinese.wav,,,,,,,,,0,0,0,0,0,173,173,2,479.243911138,8.65943729877e-06,480.262801845,1.01890000864,,,,,z,1,1.00048140017,2018_Nov_26_1107,59.9861096392,chinese_cond2,001,1042,
images/leek.jpg,donut,x,sounds/greatgatsby_chinese.wav,,,,,,,,,0,0,0,0,0,174,174,169,481.364585752,9.30088572204e-06,482.079908261,0.715332130902,,,,,x,1,0.70040102792,2018_Nov_26_1107,59.9861096392,chinese_cond2,001,1042,
images/grandpiano.jpg,tulip,x,sounds/greatgatsby_chinese.wav,,,,,,,,,0,0,0,0,0,175,175,236,483.195410951,8.65943729877e-06,484.347140528,1.15173887776,,,,,x,1,1.13383887301,2018_Nov_26_1107,59.9861096392,chinese_cond2,001,1042,
images/snowman.jpg,globe,x,sounds/greatgatsby_chinese.wav,,,,,,,,,0,0,0,0,0,176,176,180,485.459069118,9.30088572204e-06,486.414323596,0.955264099874,,,,,x,1,0.93380955921,2018_Nov_26_1107,59.9861096392,chinese_cond2,001,1042,
images/parkfountain.jpg,park fountain,z,sounds/greatgatsby_chinese.wav,,,,,,,,,0,0,0,0,0,177,177,93,487.536172365,8.98016151041e-06,488.481493194,0.945330771036,,,,,z,1,0.933794164681,2018_Nov_26_1107,59.9861096392,chinese_cond2,001,1042,
images/shotglass.jpg,shot glass,z,sounds/greatgatsby_chinese.wav,,,,,,,,,0,0,0,0,0,178,178,86,489.5910584,8.65943729877e-06,490.765398071,1.17434929183,,,,,x,0,1.1505281612,2018_Nov_26_1107,59.9861096392,chinese_cond2,001,1042,
images/notebook02b.jpg,notebook,z,sounds/greatgatsby_chinese.wav,,,,,,,,,0,0,0,0,0,179,179,7,491.872955573,8.98016151041e-06,492.865915456,0.99296918395,,,,,z,1,0.983809430967,2018_Nov_26_1107,59.9861096392,chinese_cond2,001,1042,
images/showerhead01.jpg,skateboard,x,sounds/greatgatsby_chinese.wav,,,,,,,,,0,0,0,0,0,180,180,223,493.974623058,9.30088572204e-06,494.716368697,0.7417571845,,,,,x,1,0.733748814906,2018_Nov_26_1107,59.9861096392,chinese_cond2,001,1042,
images/ceilingfan02.jpg,paper clip,x,sounds/greatgatsby_chinese.wav,,,,,,,,,0,0,0,0,0,181,181,208,495.815792107,8.98016151041e-06,496.500137909,0.684355424019,,,,,x,1,0.667054844438,2018_Nov_26_1107,59.9861096392,chinese_cond2,001,1042,
images/coin01b.jpg,arrow,x,sounds/greatgatsby_chinese.wav,,,,,,,,,0,0,0,0,0,182,182,124,497.603938181,9.62160993367e-06,498.25056607,0.646637190366,,,,,x,1,0.633723734645,2018_Nov_26_1107,59.9861096392,chinese_cond2,001,1042,
images/mitten01.jpg,mitten,z,sounds/greatgatsby_chinese.wav,,,,,,,,,0,0,0,0,0,183,183,102,499.373308685,9.30088572204e-06,500.051018798,0.677720055333,,,,,x,0,0.667076332495,2018_Nov_26_1107,59.9861096392,chinese_cond2,001,1042,
images/giraffe.jpg,lettuce,x,sounds/greatgatsby_chinese.wav,,,,,,,,,0,0,0,0,0,184,184,195,501.153666082,8.65943729877e-06,502.384916812,1.23125970981,,,,,x,1,1.21719422913,2018_Nov_26_1107,59.9861096392,chinese_cond2,001,1042,
images/belt02a.jpg,snowman,x,sounds/greatgatsby_chinese.wav,,,,,,,,,0,0,0,0,0,185,185,224,503.490226069,8.98016151041e-06,504.552113735,1.06189760834,,,,,x,1,1.05047710252,2018_Nov_26_1107,59.9861096392,chinese_cond2,001,1042,
images/atm.jpg,atm,z,sounds/greatgatsby_chinese.wav,,,,,,,,,0,0,0,0,0,186,186,96,505.691750578,8.98016151041e-06,506.619306745,0.927566109924,,,,,z,1,0.917129892739,2018_Nov_26_1107,59.9861096392,chinese_cond2,001,1042,
images/cola.jpg,comb,x,sounds/greatgatsby_chinese.wav,,,,,,,,,0,0,0,0,0,187,187,157,507.742384512,8.98016151041e-06,508.35305556,0.610680669779,,,,,x,1,0.600379154785,2018_Nov_26_1107,59.9861096392,chinese_cond2,001,1042,
images/cockroach02.jpg,belt,x,sounds/greatgatsby_chinese.wav,,,,,,,,,0,0,0,0,0,188,188,129,509.453179101,8.98016151041e-06,510.136825094,0.683655934525,,,,,x,1,0.667057410115,2018_Nov_26_1107,59.9861096392,chinese_cond2,001,1042,
images/nailclipper03a.jpg,aquarium,x,sounds/greatgatsby_chinese.wav,,,,,,,,,0,0,0,0,0,189,189,123,511.237293088,8.98016151041e-06,512.987556398,1.75027325319,,,,,x,1,1.73401276721,2018_Nov_26_1107,59.9861096392,chinese_cond2,001,1042,
images/ladybug03.jpg,giraffe,x,sounds/greatgatsby_chinese.wav,,,,,,,,,0,0,0,0,0,190,190,178,514.091951925,8.98016151041e-06,515.121237478,1.02929581515,,,,,x,1,1.01698916103,2018_Nov_26_1107,59.9861096392,chinese_cond2,001,1042,
images/plant01.jpg,plant,z,sounds/greatgatsby_chinese.wav,,,,,,,,,0,0,0,0,0,191,191,47,516.235820343,9.30088572204e-06,517.10523036,0.86941963865,,,,,z,1,0.850452278857,2018_Nov_26_1107,59.9861096392,chinese_cond2,001,1042,
images/lighter02b.jpg,stapler,x,sounds/greatgatsby_chinese.wav,,,,,,,,,0,0,0,0,0,192,192,227,518.209141921,9.30088572204e-06,519.255757559,1.04662525968,,,,,x,1,1.03382565931,2018_Nov_26_1107,59.9861096392,chinese_cond2,001,1042,
images/tent.jpg,tent,z,sounds/greatgatsby_chinese.wav,,,,,,,,,0,0,0,0,0,193,193,11,520.382860678,8.98016151041e-06,521.489628568,1.10677751165,,,,,z,1,1.08381494728,2018_Nov_26_1107,59.9861096392,chinese_cond2,001,1042,
images/dice05a.jpg,band aid,x,sounds/greatgatsby_chinese.wav,,,,,,,,,0,0,0,0,0,194,194,126,522.603840682,9.30088572204e-06,523.42344358,0.81961251935,,,,,x,1,0.800432843273,2018_Nov_26_1107,59.9861096392,chinese_cond2,001,1042,
images/desktopcomputer.jpg,desktop computer,z,sounds/greatgatsby_chinese.wav,,,,,,,,,0,0,0,0,0,195,195,16,524.562515314,8.98016151041e-06,525.34057668,0.778070986737,,,,,z,1,0.767078000354,2018_Nov_26_1107,59.9861096392,chinese_cond2,001,1042,
images/ant.jpg,ant,z,sounds/greatgatsby_chinese.wav,,,,,,,,,0,0,0,0,0,196,196,98,526.437956785,9.30088572204e-06,527.391080402,0.953133238479,,,,,z,1,0.933785825968,2018_Nov_26_1107,59.9861096392,chinese_cond2,001,1042,
images/calculator02b.jpg,dice,x,sounds/greatgatsby_chinese.wav,,,,,,,,,0,0,0,0,0,197,197,165,528.495042316,9.30088572204e-06,529.725010167,1.22997779341,,,,,x,1,1.21720930294,2018_Nov_26_1107,59.9861096392,chinese_cond2,001,1042,
images/beachumbrella01.jpg,beach umbrella,z,sounds/greatgatsby_chinese.wav,,,,,,,,,0,0,0,0,0,198,198,92,530.832998395,9.30088572204e-06,532.525715942,1.69272748963,,,,,z,1,1.68400968821,2018_Nov_26_1107,59.9861096392,chinese_cond2,001,1042,
images/corkscrew02a.jpg,masquerade mask,x,sounds/greatgatsby_chinese.wav,,,,,,,,,0,0,0,0,0,199,199,201,533.632644192,8.98016151041e-06,534.776235829,1.14360125817,,,,,x,1,1.13383406226,2018_Nov_26_1107,59.9861096392,chinese_cond2,001,1042,
images/dryingmachine01.jpg,drying machine,z,sounds/greatgatsby_chinese.wav,,,,,,,,,0,0,0,0,0,200,200,18,535.900158371,9.30088572204e-06,536.710080026,0.809931596857,,,,,z,1,0.800450482871,2018_Nov_26_1107,59.9861096392,chinese_cond2,001,1042,
images/cat.jpg,black olive,x,sounds/greatgatsby_chinese.wav,,,,,,,,,0,0,0,0,0,201,201,133,537.843934614,9.30088572204e-06,539.143983235,1.30005824263,,,,,x,1,1.28387312579,2018_Nov_26_1107,59.9861096392,chinese_cond2,001,1042,
images/cocktailshrimp01.jpg,cocktail shrimp,z,sounds/greatgatsby_chinese.wav,,,,,,,,,0,0,0,0,0,202,202,30,540.261361814,8.65943729877e-06,541.794639043,1.53328620899,,,,,z,1,1.51727363933,2018_Nov_26_1107,59.9861096392,chinese_cond2,001,1042,
images/lip.jpg,boxing glove,x,sounds/greatgatsby_chinese.wav,,,,,,,,,0,0,0,0,0,203,203,136,542.90039378,8.98016151041e-06,543.878486062,0.978101904155,,,,,x,1,0.967136178748,2018_Nov_26_1107,59.9861096392,chinese_cond2,001,1042,
images/pineapple01a.jpg,pineapple,z,sounds/greatgatsby_chinese.wav,,,,,,,,,0,0,0,0,0,204,204,51,544.993579513,8.98016151041e-06,546.012343858,1.01877428649,,,,,z,1,1.00046953349,2018_Nov_26_1107,59.9861096392,chinese_cond2,001,1042,
images/corn01.jpg,corn,z,sounds/greatgatsby_chinese.wav,,,,,,,,,0,0,0,0,0,205,205,22,547.114300953,8.65943729877e-06,548.079519228,0.965227255481,,,,,z,1,0.95045522938,2018_Nov_26_1107,59.9861096392,chinese_cond2,001,1042,
images/basketball01.jpg,basket ball,z,sounds/greatgatsby_chinese.wav,,,,,,,,,0,0,0,0,0,206,206,33,549.220511753,8.98016151041e-06,550.046681386,0.826179254102,,,,,z,1,0.81710769888,2018_Nov_26_1107,59.9861096392,chinese_cond2,001,1042,
images/swallow.jpg,mattress,x,sounds/greatgatsby_chinese.wav,,,,,,,,,0,0,0,0,0,207,207,202,551.15068371,8.98016151041e-06,552.230551561,1.07987747225,,,,,x,1,1.06716061768,2018_Nov_26_1107,59.9861096392,chinese_cond2,001,1042,
images/bullet (2).jpg,rubber glove,x,sounds/greatgatsby_chinese.wav,,,,,,,,,0,0,0,0,0,208,208,217,553.337520542,8.98004509509e-06,555.48134887,2.14383859071,,,,,x,1,2.13408967573,2018_Nov_26_1107,59.9861096392,chinese_cond2,001,1042,
images/candy.jpg,candy,z,sounds/greatgatsby_chinese.wav,,,,,,,,,0,0,0,0,0,209,209,31,556.586528235,9.30088572204e-06,557.348479212,0.761960918433,,,,,z,1,0.75040314463,2018_Nov_26_1107,59.9861096392,chinese_cond2,001,1042,
images/lipstick04.jpg,lipstick,z,sounds/greatgatsby_chinese.wav,,,,,,,,,0,0,0,0,0,210,210,56,558.450438552,8.65943729877e-06,559.532344255,1.08191564563,,,,,z,1,1.06715516548,2018_Nov_26_1107,59.9861096392,chinese_cond2,001,1042,
images/drink.jpg,drink,z,sounds/greatgatsby_chinese.wav,,,,,,,,,0,0,0,0,0,211,211,117,560.634566586,8.65932088345e-06,561.382817702,0.74826073728,,,,,z,1,0.733756191446,2018_Nov_26_1107,59.9861096392,chinese_cond2,001,1042,
images/tulip02.jpg,sport shorts,x,sounds/greatgatsby_chinese.wav,,,,,,,,,0,0,0,0,0,212,212,225,562.479939948,8.98016151041e-06,563.316724118,0.836795395007,,,,,x,1,0.817109623225,2018_Nov_26_1107,59.9861096392,chinese_cond2,001,1042,
,,,sounds/greatgatsby_chinese.wav,,,,,,,,,0,0,0,0,,,,,,,,,,,,,,,,2018_Nov_26_1107,59.9861096392,chinese_cond2,001,1042,
images/lychee02a.jpg,lychee,z,sounds/animalfarm_english.wav,,,,,,,,,0,1,1,1,0,0,0,62,584.46817499,9.30088572204e-06,586.072223498,1.60405877128,,,,574.319521756,z,1,1.58395061176,2018_Nov_26_1107,59.9861096392,chinese_cond2,001,1042,
images/mailbox01.jpg,mail box,z,sounds/animalfarm_english.wav,,,,,,,,,0,1,1,1,0,1,1,73,587.19270985,8.65943729877e-06,588.422805027,1.23010479833,,,,,z,1,1.21717979666,2018_Nov_26_1107,59.9861096392,chinese_cond2,001,1042,
images/djmixer01.jpg,light bulb,x,sounds/animalfarm_english.wav,,,,,,,,,0,1,1,1,0,2,2,196,589.54240074,8.65943729877e-06,590.456642874,0.914251113194,,,,,x,1,0.900451509049,2018_Nov_26_1107,59.9861096392,chinese_cond2,001,1042,
images/nailpolish02b.jpg,nail polish,z,sounds/animalfarm_english.wav,,,,,,,,,0,1,1,1,0,3,3,94,591.565176325,8.65943729877e-06,592.240414011,0.675247306935,,,,,z,1,0.667061579414,2018_Nov_26_1107,59.9861096392,chinese_cond2,001,1042,
images/cola.jpg,comb,x,sounds/animalfarm_english.wav,,,,,,,,,0,1,1,1,0,4,4,157,593.361390102,8.98016151041e-06,594.090874307,0.729494148167,,,,,x,1,0.717081977171,2018_Nov_26_1107,59.9861096392,chinese_cond2,001,1042,
images/hat05.jpg,hat,z,sounds/animalfarm_english.wav,,,,,,,,,0,1,1,1,0,5,5,15,595.196446875,9.30076930672e-06,596.008015105,0.811577530112,,,,,z,1,0.800428353134,2018_Nov_26_1107,59.9861096392,chinese_cond2,001,1042,
images/scissors04a.jpg,leek,x,sounds/animalfarm_english.wav,,,,,,,,,0,1,1,1,0,6,6,194,597.101779737,8.98016151041e-06,598.591996505,1.49022671033,,,,,x,1,1.46727729554,2018_Nov_26_1107,59.9861096392,chinese_cond2,001,1042,
images/arrow02.jpg,hammer,x,sounds/animalfarm_english.wav,,,,,,,,,0,1,1,1,0,7,7,184,599.688981805,8.98016151041e-06,600.509147566,0.820175382309,,,,,x,1,0.800455293618,2018_Nov_26_1107,59.9861096392,chinese_cond2,001,1042,
images/candycane01a.jpg,lip,x,sounds/animalfarm_english.wav,,,,,,,,,0,1,1,1,0,8,8,200,601.60287724,9.30088572204e-06,602.426257574,0.823390276055,,,,,x,1,0.800426428905,2018_Nov_26_1107,59.9861096392,chinese_cond2,001,1042,
images/razor04a.jpg,razor,z,sounds/animalfarm_english.wav,,,,,,,,,0,1,1,1,0,9,9,36,603.526557511,8.98016151041e-06,604.326728967,0.800180757651,,,,,z,1,0.783756063203,2018_Nov_26_1107,59.9861096392,chinese_cond2,001,1042,
images/parrot01.jpg,chameleon,x,sounds/animalfarm_english.wav,,,,,,,,,0,1,1,1,0,10,10,150,605.44031664,8.98016151041e-06,606.710670471,1.27036345226,,,,,z,0,1.25055805221,2018_Nov_26_1107,59.9861096392,chinese_cond2,001,1042,
images/safe.jpg,safe,z,sounds/animalfarm_english.wav,,,,,,,,,0,1,1,1,0,11,11,78,607.822007654,9.30076930672e-06,608.711157644,0.889159611892,,,,,z,1,0.867127455305,2018_Nov_26_1107,59.9861096392,chinese_cond2,001,1042,
images/diploma01.jpg,glasses,x,sounds/animalfarm_english.wav,,,,,,,,,0,1,1,1,0,12,12,179,609.842385859,8.65943729877e-06,610.711661174,0.869285577792,,,,,x,1,0.850465749041,2018_Nov_26_1107,59.9861096392,chinese_cond2,001,1042,
images/eyedrops.jpg,bicycle,x,sounds/animalfarm_english.wav,,,,,,,,,0,1,1,1,0,13,13,131,611.810626917,9.30088572204e-06,612.7287953,0.918178325286,,,,,x,1,0.900446698302,2018_Nov_26_1107,59.9861096392,chinese_cond2,001,1042,
images/magnifyingglass01b.jpg,magnifying glass,z,sounds/animalfarm_english.wav,,,,,,,,,0,1,1,1,0,14,14,64,613.834220337,9.94233414531e-06,614.712644179,0.878433784936,,,,,z,1,0.867128738202,2018_Nov_26_1107,59.9861096392,chinese_cond2,001,1042,
images/redfox.jpg,red fox,z,sounds/animalfarm_english.wav,,,,,,,,,0,1,1,1,0,15,15,1,615.824420428,8.65943729877e-06,616.479722821,0.655312015326,,,,,z,1,0.633721489576,2018_Nov_26_1107,59.9861096392,chinese_cond2,001,1042,
images/bull.jpg,button,x,sounds/animalfarm_english.wav,,,,,,,,,0,1,1,1,0,16,16,141,617.586483655,9.30088572204e-06,618.780289084,1.19381537067,,,,,x,1,1.18385413929,2018_Nov_26_1107,59.9861096392,chinese_cond2,001,1042,
images/kiwi03.jpg,backpack,x,sounds/animalfarm_english.wav,,,,,,,,,0,1,1,1,0,17,17,125,619.907270329,9.30088572204e-06,620.980833473,1.07357244473,,,,,x,1,1.05048704497,2018_Nov_26_1107,59.9861096392,chinese_cond2,001,1042,
images/thumbtack02a.jpg,thumb tack,z,sounds/animalfarm_english.wav,,,,,,,,,0,1,1,1,0,18,18,60,622.091524406,8.98016151041e-06,623.181380749,1.08986564411,,,,,z,1,1.06716254202,2018_Nov_26_1107,59.9861096392,chinese_cond2,001,1042,
images/chameleon.jpg,50 dollar bill,x,sounds/animalfarm_english.wav,,,,,,,,,0,1,1,1,0,19,19,120,624.291157952,9.30088572204e-06,625.265225844,0.974077834748,,,,,x,1,0.950442080037,2018_Nov_26_1107,59.9861096392,chinese_cond2,001,1042,
images/tissuebox03.jpg,tissue box,z,sounds/animalfarm_english.wav,,,,,,,,,0,1,1,1,0,20,20,58,626.39078566,8.98016151041e-06,627.132350734,0.741575336317,,,,,z,1,0.717064979137,2018_Nov_26_1107,59.9861096392,chinese_cond2,001,1042,
images/axe01.jpg,axe,z,sounds/animalfarm_english.wav,,,,,,,,,0,1,1,1,0,21,21,104,628.235451836,9.62160993367e-06,628.982809748,0.747368174605,,,,,z,1,0.733749777195,2018_Nov_26_1107,59.9861096392,chinese_cond2,001,1042,
images/microphone01.jpg,diaper,x,sounds/animalfarm_english.wav,,,,,,,,,0,1,1,1,0,22,22,164,630.08229217,8.65943729877e-06,630.866609172,0.784326623427,,,,,x,1,0.767083773273,2018_Nov_26_1107,59.9861096392,chinese_cond2,001,1042,
images/headphones02b.jpg,headphones,z,sounds/animalfarm_english.wav,,,,,,,,,0,1,1,1,0,23,23,101,631.975362958,8.98016151041e-06,632.767076717,0.79172305984,,,,,z,1,0.783759270445,2018_Nov_26_1107,59.9861096392,chinese_cond2,001,1042,
images/bowl02b (1).jpg,bowl,z,sounds/animalfarm_english.wav,,,,,,,,,0,1,1,1,0,24,24,24,633.886210595,8.65943729877e-06,634.634205776,0.748005123809,,,,,z,1,0.733744966332,2018_Nov_26_1107,59.9861096392,chinese_cond2,001,1042,
images/clothespin02a.jpg,clothes pin,z,sounds/animalfarm_english.wav,,,,,,,,,0,1,1,1,0,25,25,79,635.739805926,9.30088572204e-06,636.384636182,0.644839877496,,,,,x,0,0.633719565347,2018_Nov_26_1107,59.9861096392,chinese_cond2,001,1042,
images/lipstick04.jpg,lipstick,z,sounds/animalfarm_english.wav,,,,,,,,,0,1,1,1,0,26,26,56,637.485388975,8.98016151041e-06,638.268438493,0.783059460111,,,,,z,1,0.76709467778,2018_Nov_26_1107,59.9861096392,chinese_cond2,001,1042,
images/radio03a.jpg,radio,z,sounds/animalfarm_english.wav,,,,,,,,,0,1,1,1,0,27,27,37,639.382820588,9.30088572204e-06,639.952197379,0.569386732765,,,,,z,1,0.550290443702,2018_Nov_26_1107,59.9861096392,chinese_cond2,001,1042,
images/bandaid01.jpg,door handle,x,sounds/animalfarm_english.wav,,,,,,,,,0,1,1,1,0,28,28,170,641.05791427,9.30088572204e-06,642.919587247,1.86168291862,,,,,x,1,1.85069410142,2018_Nov_26_1107,59.9861096392,chinese_cond2,001,1042,
images/banana04a.jpg,banana,z,sounds/animalfarm_english.wav,,,,,,,,,0,1,1,1,0,29,29,118,644.025356416,9.94233414531e-06,644.603329776,0.57798298134,,,,,x,0,0.567039385671,2018_Nov_26_1107,59.9861096392,chinese_cond2,001,1042,
images/lip.jpg,boxing glove,x,sounds/animalfarm_english.wav,,,,,,,,,0,1,1,1,0,30,30,136,645.708345253,8.98016151041e-06,646.437119065,0.728783754166,,,,,x,1,0.717081335839,2018_Nov_26_1107,59.9861096392,chinese_cond2,001,1042,
images/grasshopper.jpg,cauliflower,x,sounds/animalfarm_english.wav,,,,,,,,,0,1,1,1,0,31,31,148,647.531045341,8.98016151041e-06,648.387600914,0.856564874528,,,,,x,1,0.833774215891,2018_Nov_26_1107,59.9861096392,chinese_cond2,001,1042,
images/worldmap.jpg,scooter,x,sounds/animalfarm_english.wav,,,,,,,,,0,1,1,1,0,32,32,220,649.516787108,8.98016151041e-06,650.621482187,1.10470470053,,,,,x,1,1.08383194543,2018_Nov_26_1107,59.9861096392,chinese_cond2,001,1042,
images/elbow.jpg,elbow,z,sounds/animalfarm_english.wav,,,,,,,,,0,1,1,1,0,33,33,105,651.733998976,9.30088572204e-06,652.455273401,0.721284046071,,,,,z,1,0.70041193231,2018_Nov_26_1107,59.9861096392,chinese_cond2,001,1042,
images/aquarium.jpg,computer mouse,x,sounds/animalfarm_english.wav,,,,,,,,,0,1,1,1,0,34,34,159,653.59182492,8.98016151041e-06,655.222619523,1.63080390298,,,,,x,1,1.61730160599,2018_Nov_26_1107,59.9861096392,chinese_cond2,001,1042,
images/8ball.jpg,nail clipper,x,sounds/animalfarm_english.wav,,,,,,,,,0,1,1,1,0,35,35,206,656.340439091,9.62160993367e-06,657.47316635,1.13273720106,,,,,x,1,1.117172356,2018_Nov_26_1107,59.9861096392,chinese_cond2,001,1042,
images/flamingo.jpg,flamingo,z,sounds/animalfarm_english.wav,,,,,,,,,0,1,1,1,0,36,36,52,658.572276096,9.62160993367e-06,659.223607981,0.651341826771,,,,,z,1,0.633727903944,2018_Nov_26_1107,59.9861096392,chinese_cond2,001,1042,
images/orange.jpg,bat,x,sounds/animalfarm_english.wav,,,,,,,,,0,1,1,1,0,37,37,128,660.348962536,8.98016151041e-06,661.257503236,0.908550321474,,,,,x,1,0.883844325203,2018_Nov_26_1107,59.9861096392,chinese_cond2,001,1042,
images/calculator02b.jpg,dice,x,sounds/animalfarm_english.wav,,,,,,,,,0,1,1,1,0,38,38,165,662.358434349,9.94233414531e-06,663.141229857,0.782805770868,,,,,x,1,0.767064209329,2018_Nov_26_1107,59.9861096392,chinese_cond2,001,1042,
images/puma.jpg,puma,z,sounds/animalfarm_english.wav,,,,,,,,,0,1,1,1,0,39,39,4,664.240746597,8.98016151041e-06,665.458478994,1.21774169744,,,,,x,0,1.20052418427,2018_Nov_26_1107,59.9861096392,chinese_cond2,001,1042,
images/hairband.jpg,hairband,z,sounds/animalfarm_english.wav,,,,,,,,,0,1,1,1,0,40,40,66,666.568756839,9.62160993367e-06,668.009119984,1.44037340744,,,,,z,1,1.4172639536,2018_Nov_26_1107,59.9861096392,chinese_cond2,001,1042,
images/flower01.jpg,bus,x,sounds/animalfarm_english.wav,,,,,,,,,0,1,1,1,0,41,41,140,669.124354552,9.30088572204e-06,669.876220178,0.751874927082,,,,,x,1,0.733740476309,2018_Nov_26_1107,59.9861096392,chinese_cond2,001,1042,
images/charcoalbarbecue.jpg,charcoal barbecue,z,sounds/animalfarm_english.wav,,,,,,,,,0,1,1,1,0,42,42,77,670.993762965,9.30076930672e-06,671.760046222,0.766293519991,,,,,z,1,0.750429443549,2018_Nov_26_1107,59.9861096392,chinese_cond2,001,1042,
images/gps.jpg,gps,z,sounds/animalfarm_english.wav,,,,,,,,,0,1,1,1,0,43,43,21,672.879608581,4.32970700786e-05,673.627151548,0.74756381358,,,,,z,1,0.733710649307,2018_Nov_26_1107,59.9861096392,chinese_cond2,001,1042,
images/blackolive.jpg,tank,x,sounds/animalfarm_english.wav,,,,,,,,,0,1,1,1,0,44,44,229,674.743070211,8.98016151041e-06,675.761021851,1.01796158298,,,,,x,1,1.00048428669,2018_Nov_26_1107,59.9861096392,chinese_cond2,001,1042,
images/bus.jpg,microphone,x,sounds/animalfarm_english.wav,,,,,,,,,0,1,1,1,0,45,45,203,676.880705442,9.30088572204e-06,678.144936414,1.26424091437,,,,,x,1,1.25054105406,2018_Nov_26_1107,59.9861096392,chinese_cond2,001,1042,
images/bottleofredwine02.jpg,pipe,x,sounds/animalfarm_english.wav,,,,,,,,,0,1,1,1,0,46,46,213,679.243986507,9.62160993367e-06,679.978723138,0.734747856623,,,,,x,1,0.717075883644,2018_Nov_26_1107,59.9861096392,chinese_cond2,001,1042,
images/cauliflower01.jpg,glue stick,x,sounds/animalfarm_english.wav,,,,,,,,,0,1,1,1,0,47,47,181,681.094331665,1.41116324812e-05,681.745826155,0.651508280309,,,,,x,1,0.633724055369,2018_Nov_26_1107,59.9861096392,chinese_cond2,001,1042,
images/hairpin.jpg,hair pin,z,sounds/animalfarm_english.wav,,,,,,,,,0,1,1,1,0,48,48,28,682.836939398,9.30076930672e-06,683.762985297,0.926055199699,,,,,z,1,0.91712411982,2018_Nov_26_1107,59.9861096392,chinese_cond2,001,1042,
images/cigar.jpg,crocodile,x,sounds/animalfarm_english.wav,,,,,,,,,0,1,1,1,0,49,49,162,684.861893631,2.21296213567e-05,686.113572919,1.2516889096,,,,,x,1,1.23387229198,2018_Nov_26_1107,59.9861096392,chinese_cond2,001,1042,
images/atm.jpg,atm,z,sounds/animalfarm_english.wav,,,,,,,,,0,1,1,1,0,50,50,96,687.251474348,9.62160993367e-06,687.99737042,0.745906013763,,,,,z,1,0.7337513807,2018_Nov_26_1107,59.9861096392,chinese_cond2,001,1042,
images/pineapple01a.jpg,pineapple,z,sounds/animalfarm_english.wav,,,,,,,,,0,1,1,1,0,51,51,51,689.11106874,9.30088572204e-06,690.064546432,0.953487313003,,,,,z,1,0.933801220497,2018_Nov_26_1107,59.9861096392,chinese_cond2,001,1042,
images/broadsword.jpg,teapot,x,sounds/animalfarm_english.wav,,,,,,,,,0,1,1,1,0,52,52,231,691.158293425,9.30076930672e-06,691.864988255,0.706704772427,,,,,x,1,0.683738359483,2018_Nov_26_1107,59.9861096392,chinese_cond2,001,1042,
images/drink.jpg,drink,z,sounds/animalfarm_english.wav,,,,,,,,,0,1,1,1,0,53,53,117,692.96539852,9.30088572204e-06,693.665433286,0.700044387602,,,,,z,1,0.683736755862,2018_Nov_26_1107,59.9861096392,chinese_cond2,001,1042,
images/scooter.jpg,pen,x,sounds/animalfarm_english.wav,,,,,,,,,0,1,1,1,0,54,54,212,694.759335507,9.62160993367e-06,696.066024949,1.3067000258,,,,,x,1,1.28388852032,2018_Nov_26_1107,59.9861096392,chinese_cond2,001,1042,
images/cherry01.jpg,highlighter,x,sounds/animalfarm_english.wav,,,,,,,,,0,1,1,1,0,55,55,187,697.175669053,8.98016151041e-06,698.08318345,0.907524339389,,,,,x,1,0.883782747085,2018_Nov_26_1107,59.9861096392,chinese_cond2,001,1042,
images/ruler02b.jpg,watermelon,x,sounds/animalfarm_english.wav,,,,,,,,,0,1,1,1,0,56,56,238,699.186701809,9.62160993367e-06,700.467107955,1.28041576815,,,,,x,1,1.2672107782,2018_Nov_26_1107,59.9861096392,chinese_cond2,001,1042,
images/teapot.jpg,light switch,x,sounds/animalfarm_english.wav,,,,,,,,,0,1,1,1,0,57,57,197,701.583447082,9.62160993367e-06,702.95106171,1.36762457073,,,,,x,1,1.35054175963,2018_Nov_26_1107,59.9861096392,chinese_cond2,001,1042,
images/corn01.jpg,corn,z,sounds/animalfarm_english.wav,,,,,,,,,0,1,1,1,0,58,58,22,704.051737851,8.98016151041e-06,704.768169409,0.716441179393,,,,,z,1,0.700402952265,2018_Nov_26_1107,59.9861096392,chinese_cond2,001,1042,
images/mitten01.jpg,mitten,z,sounds/animalfarm_english.wav,,,,,,,,,0,1,1,1,0,59,59,102,705.889428696,9.30088572204e-06,706.718667936,0.829248861759,,,,,x,0,0.817117961938,2018_Nov_26_1107,59.9861096392,chinese_cond2,001,1042,
images/binder03b.jpg,dj mixer,x,sounds/animalfarm_english.wav,,,,,,,,,0,1,1,1,0,60,60,167,707.831503842,9.30088572204e-06,708.685807322,0.854313422577,,,,,x,1,0.833766839351,2018_Nov_26_1107,59.9861096392,chinese_cond2,001,1042,
images/floorlamp.jpg,floor lamp,z,sounds/animalfarm_english.wav,,,,,,,,,0,1,1,1,0,61,61,26,709.779304475,9.30088572204e-06,710.436233558,0.656939026085,,,,,z,1,0.633718923898,2018_Nov_26_1107,59.9861096392,chinese_cond2,001,1042,
images/bat.jpg,hand,x,sounds/animalfarm_english.wav,,,,,,,,,0,1,1,1,0,62,62,185,711.533523862,9.30088572204e-06,712.420071213,0.886557292659,,,,,x,1,0.867122644559,2018_Nov_26_1107,59.9861096392,chinese_cond2,001,1042,
images/lantern03.jpg,lantern,z,sounds/animalfarm_english.wav,,,,,,,,,0,1,1,1,0,63,63,5,713.527897157,8.65943729877e-06,714.453899438,0.926011581905,,,,,z,1,0.917121233302,2018_Nov_26_1107,59.9861096392,chinese_cond2,001,1042,
images/nametag01a.jpg,name tag,z,sounds/animalfarm_english.wav,,,,,,,,,0,1,1,1,0,64,64,108,715.57436366,9.30088572204e-06,716.304350754,0.729996715905,,,,,z,1,0.717055998975,2018_Nov_26_1107,59.9861096392,chinese_cond2,001,1042,
images/dryingmachine01.jpg,drying machine,z,sounds/animalfarm_english.wav,,,,,,,,,0,1,1,1,0,65,65,18,717.426205297,8.98016151041e-06,718.054786612,0.628590616747,,,,,z,1,0.61705689691,2018_Nov_26_1107,59.9861096392,chinese_cond2,001,1042,
images/candy.jpg,candy,z,sounds/animalfarm_english.wav,,,,,,,,,0,1,1,1,0,66,66,31,719.156821643,8.98016151041e-06,719.738529783,0.581717440858,,,,,z,1,0.567040668568,2018_Nov_26_1107,59.9861096392,chinese_cond2,001,1042,
images/sportshorts02.jpg,tape,x,sounds/animalfarm_english.wav,,,,,,,,,0,1,1,1,0,67,67,230,720.847319489,9.30076930672e-06,721.622329849,0.775019980734,,,,,x,1,0.767097885022,2018_Nov_26_1107,59.9861096392,chinese_cond2,001,1042,
images/comb02a.jpg,diploma,x,sounds/animalfarm_english.wav,,,,,,,,,0,1,1,1,0,68,68,166,722.727805559,8.98016151041e-06,723.822863975,1.09506835823,,,,,x,1,1.08382841758,2018_Nov_26_1107,59.9861096392,chinese_cond2,001,1042,
images/marker01a.jpg,marker,z,sounds/animalfarm_english.wav,,,,,,,,,0,1,1,1,0,69,69,95,724.922086615,8.98016151041e-06,725.723343708,0.801266714348,,,,,z,1,0.783729443559,2018_Nov_26_1107,59.9861096392,chinese_cond2,001,1042,
images/table02.jpg,table,z,sounds/animalfarm_english.wav,,,,,,,,,0,1,1,1,0,70,70,49,726.839666156,9.30088572204e-06,727.80718752,0.967530984781,,,,,z,1,0.950462926761,2018_Nov_26_1107,59.9861096392,chinese_cond2,001,1042,
images/spoon02b.jpg,spoon,z,sounds/animalfarm_english.wav,,,,,,,,,0,1,1,1,0,71,71,38,728.898988707,8.65943729877e-06,729.490940632,0.59196122631,,,,,z,1,0.58371007198,2018_Nov_26_1107,59.9861096392,chinese_cond2,001,1042,
images/swallow.jpg,mattress,x,sounds/animalfarm_english.wav,,,,,,,,,0,1,1,1,0,72,72,202,730.593368544,8.98016151041e-06,731.45808515,0.864726227242,,,,,x,1,0.850436884328,2018_Nov_26_1107,59.9861096392,chinese_cond2,001,1042,
images/apple06.jpg,apple,z,sounds/animalfarm_english.wav,,,,,,,,,0,1,1,1,0,73,73,13,732.584038168,8.98004509509e-06,733.225190732,0.641161864623,,,,,z,1,0.617038936703,2018_Nov_26_1107,59.9861096392,chinese_cond2,001,1042,
images/candle08a.jpg,screw driver,x,sounds/animalfarm_english.wav,,,,,,,,,0,1,1,1,0,74,74,221,734.339356662,8.65943729877e-06,735.192336853,0.85298949189,,,,,x,1,0.833763311501,2018_Nov_26_1107,59.9861096392,chinese_cond2,001,1042,
images/lollipop03b.jpg,lollipop,z,sounds/animalfarm_english.wav,,,,,,,,,0,1,1,1,0,75,75,42,736.285803537,9.30088572204e-06,737.009458984,0.723665068625,,,,,z,1,0.700408404344,2018_Nov_26_1107,59.9861096392,chinese_cond2,001,1042,
images/radish01.jpg,raisin,x,sounds/animalfarm_english.wav,,,,,,,,,0,1,1,1,0,76,76,214,738.12076153,8.98004509509e-06,739.210002732,1.08925018308,,,,,x,1,1.06716927711,2018_Nov_26_1107,59.9861096392,chinese_cond2,001,1042,
images/electrictoothbrush01a.jpg,banjo,x,sounds/animalfarm_english.wav,,,,,,,,,0,1,1,1,0,77,77,127,740.304481929,8.98016151041e-06,741.343856359,1.03938405146,,,,,x,1,1.01715112431,2018_Nov_26_1107,59.9861096392,chinese_cond2,001,1042,
images/gamecontroller01.jpg,game controller,z,sounds/animalfarm_english.wav,,,,,,,,,0,1,1,1,0,78,78,112,742.465585499,9.30088572204e-06,743.711113385,1.24553782761,,,,,z,1,1.23387870635,2018_Nov_26_1107,59.9861096392,chinese_cond2,001,1042,
images/cactus.jpg,cactus,z,sounds/animalfarm_english.wav,,,,,,,,,0,1,1,1,0,79,79,70,744.823096176,9.62160993367e-06,745.478212552,0.655125997961,,,,,z,1,0.63372790406,2018_Nov_26_1107,59.9861096392,chinese_cond2,001,1042,
images/flipflop01b.jpg,flip flop,z,sounds/animalfarm_english.wav,,,,,,,,,0,1,1,1,0,80,80,27,746.594066751,8.98016151041e-06,747.328657775,0.734600325581,,,,,z,1,0.717067544814,2018_Nov_26_1107,59.9861096392,chinese_cond2,001,1042,
images/tank.jpg,wallet,x,sounds/animalfarm_english.wav,,,,,,,,,0,1,1,1,0,81,81,237,748.432416032,8.98016151041e-06,749.245808515,0.813402104191,,,,,x,1,0.80043316388,2018_Nov_26_1107,59.9861096392,chinese_cond2,001,1042,
images/beermug01b.jpg,beer mug,z,sounds/animalfarm_english.wav,,,,,,,,,0,1,1,1,0,82,82,111,750.363145079,8.65943729877e-06,751.179624489,0.816488710116,,,,,x,0,0.800427711685,2018_Nov_26_1107,59.9861096392,chinese_cond2,001,1042,
images/apricot.jpg,apricot,z,sounds/animalfarm_english.wav,,,,,,,,,0,1,1,1,0,83,83,32,752.296033853,8.98016151041e-06,753.030066825,0.734042273485,,,,,z,1,0.717063375516,2018_Nov_26_1107,59.9861096392,chinese_cond2,001,1042,
images/croissant02b.jpg,croissant,z,sounds/animalfarm_english.wav,,,,,,,,,0,1,1,1,0,84,84,39,754.141616645,9.30088572204e-06,754.7805014,0.638894376811,,,,,z,1,0.617053689784,2018_Nov_26_1107,59.9861096392,chinese_cond2,001,1042,
images/bicycle.jpg,hand bag,x,sounds/animalfarm_english.wav,,,,,,,,,0,1,1,1,0,85,85,186,755.88973819,8.98016151041e-06,756.730976514,0.841247625067,,,,,x,1,0.817092945799,2018_Nov_26_1107,59.9861096392,chinese_cond2,001,1042,
images/printer03a.jpg,printer,z,sounds/animalfarm_english.wav,,,,,,,,,0,1,1,1,0,86,86,72,757.839365642,8.98016151041e-06,758.531429563,0.692073542275,,,,,z,1,0.68373354862,2018_Nov_26_1107,59.9861096392,chinese_cond2,001,1042,
images/hand01a.jpg,cupcake,x,sounds/animalfarm_english.wav,,,,,,,,,0,1,1,1,0,87,87,163,759.641978738,9.30088572204e-06,760.348552336,0.706583540421,,,,,x,1,0.683743170346,2018_Nov_26_1107,59.9861096392,chinese_cond2,001,1042,
images/coffeepot03b.jpg,coffee pot,z,sounds/animalfarm_english.wav,,,,,,,,,0,1,1,1,0,88,88,107,761.468818995,8.98016151041e-06,762.149001856,0.680192803848,,,,,z,1,0.66707825684,2018_Nov_26_1107,59.9861096392,chinese_cond2,001,1042,
images/bed.jpg,bed,z,sounds/animalfarm_english.wav,,,,,,,,,0,1,1,1,0,89,89,103,763.268621624,8.98016151041e-06,764.166148491,0.89753648825,,,,,z,1,0.883783709141,2018_Nov_26_1107,59.9861096392,chinese_cond2,001,1042,
images/umbrella01.jpg,umbrella,z,sounds/animalfarm_english.wav,,,,,,,,,0,1,1,1,0,90,90,53,765.279384975,9.30088572204e-06,766.033281719,0.753906685975,,,,,z,1,0.733747852733,2018_Nov_26_1107,59.9861096392,chinese_cond2,001,1042,
images/button07.jpg,radish,x,sounds/animalfarm_english.wav,,,,,,,,,0,1,1,1,0,91,91,215,767.146749442,8.65943729877e-06,768.517221683,1.37048186199,,,,,x,1,1.35056004056,2018_Nov_26_1107,59.9861096392,chinese_cond2,001,1042,
images/knife04.jpg,tooth brush,x,sounds/animalfarm_english.wav,,,,,,,,,0,1,1,1,0,92,92,233,769.612829491,9.62160993367e-06,770.784299362,1.17147949256,,,,,x,1,1.15035785898,2018_Nov_26_1107,59.9861096392,chinese_cond2,001,1042,
images/leek.jpg,donut,x,sounds/animalfarm_english.wav,,,,,,,,,0,1,1,1,0,93,93,169,771.884994105,8.98016151041e-06,772.73493227,0.849947466166,,,,,x,1,0.83376170788,2018_Nov_26_1107,59.9861096392,chinese_cond2,001,1042,
images/dice05a.jpg,band aid,x,sounds/animalfarm_english.wav,,,,,,,,,0,1,1,1,0,94,94,126,773.846713971,8.98016151041e-06,774.618736826,0.772032477311,,,,,x,1,0.75042142556,2018_Nov_26_1107,59.9861096392,chinese_cond2,001,1042,
images/weight01.jpg,weight,z,sounds/animalfarm_english.wav,,,,,,,,,0,1,1,1,0,95,95,67,775.72325102,8.65943729877e-06,776.535883397,0.812641677912,,,,,z,1,0.80043540895,2018_Nov_26_1107,59.9861096392,chinese_cond2,001,1042,
images/pen03c.jpg,pepper,x,sounds/animalfarm_english.wav,,,,,,,,,0,1,1,1,0,96,96,211,777.629169516,8.98016151041e-06,778.503246645,0.874086750788,,,,,x,1,0.850663953694,2018_Nov_26_1107,59.9861096392,chinese_cond2,001,1042,
images/desktopcomputer.jpg,desktop computer,z,sounds/animalfarm_english.wav,,,,,,,,,0,1,1,1,0,97,97,16,779.638119839,9.30088572204e-06,780.370148634,0.732038096292,,,,,z,1,0.717068827711,2018_Nov_26_1107,59.9861096392,chinese_cond2,001,1042,
images/pingpongpaddle01c (1).jpg,ping pong paddle,z,sounds/animalfarm_english.wav,,,,,,,,,0,1,1,1,0,98,98,10,781.480063746,9.30088572204e-06,782.087244403,0.607190277777,,,,,z,1,0.58371231705,2018_Nov_26_1107,59.9861096392,chinese_cond2,001,1042,
images/dolphin01.jpg,dolphin,z,sounds/animalfarm_english.wav,,,,,,,,,0,1,1,1,0,99,99,99,783.186566145,8.98016151041e-06,783.871010408,0.684453885071,,,,,z,1,0.66706125869,2018_Nov_26_1107,59.9861096392,chinese_cond2,001,1042,
images/parkfountain.jpg,park fountain,z,sounds/animalfarm_english.wav,,,,,,,,,0,1,1,1,0,100,100,93,784.990585596,9.30088572204e-06,785.704802264,0.714226289536,,,,,z,1,0.700408404344,2018_Nov_26_1107,59.9861096392,chinese_cond2,001,1042,
images/eraser.jpg,eraser,z,sounds/animalfarm_english.wav,,,,,,,,,0,1,1,1,0,101,101,110,786.811051229,8.98016151041e-06,787.455069423,0.644027815317,,,,,z,1,0.633560809074,2018_Nov_26_1107,59.9861096392,chinese_cond2,001,1042,
images/broom02.jpg,broom,z,sounds/animalfarm_english.wav,,,,,,,,,0,1,1,1,0,102,102,116,788.549542205,8.98016151041e-06,789.489067309,0.939535046346,,,,,z,1,0.917128609843,2018_Nov_26_1107,59.9861096392,chinese_cond2,001,1042,
images/plant01.jpg,plant,z,sounds/animalfarm_english.wav,,,,,,,,,0,1,1,1,0,103,103,47,790.599470877,9.30088572204e-06,791.422874623,0.823413047125,,,,,z,1,0.800427711802,2018_Nov_26_1107,59.9861096392,chinese_cond2,001,1042,
images/rubberglove02a.jpg,lady bug,x,sounds/animalfarm_english.wav,,,,,,,,,0,1,1,1,0,104,104,192,792.527358027,8.98016151041e-06,793.923492008,1.39614328218,,,,,x,1,1.38389948907,2018_Nov_26_1107,59.9861096392,chinese_cond2,001,1042,
images/nailclipper03a.jpg,aquarium,x,sounds/animalfarm_english.wav,,,,,,,,,0,1,1,1,0,105,105,123,795.022208873,8.98016151041e-06,795.773947815,0.751748884213,,,,,z,0,0.73373823124,2018_Nov_26_1107,59.9861096392,chinese_cond2,001,1042,
images/boxingglove02a.jpg,bracelet,x,sounds/animalfarm_english.wav,,,,,,,,,0,1,1,1,0,106,106,135,796.885103471,8.65943729877e-06,798.124526457,1.23943260848,,,,,x,1,1.21719583275,2018_Nov_26_1107,59.9861096392,chinese_cond2,001,1042,
images/dreamcatcher.jpg,dream catcher,z,sounds/animalfarm_english.wav,,,,,,,,,0,1,1,1,0,107,107,48,799.222322536,8.98016151041e-06,799.958310936,0.735997701064,,,,,z,1,0.71706722409,2018_Nov_26_1107,59.9861096392,chinese_cond2,001,1042,
images/chessknight02b (1).jpg,cockroach,x,sounds/animalfarm_english.wav,,,,,,,,,0,1,1,1,0,108,108,155,801.066341179,8.33871308714e-06,801.942151477,0.875819599023,,,,,x,1,0.867128738086,2018_Nov_26_1107,59.9861096392,chinese_cond2,001,1042,
images/toucan.jpg,toucan,z,sounds/animalfarm_english.wav,,,,,,,,,0,1,1,1,0,109,109,81,803.042183613,9.30088572204e-06,803.825969183,0.78379583254,,,,,z,1,0.767119052471,2018_Nov_26_1107,59.9861096392,chinese_cond2,001,1042,
images/cat.jpg,black olive,x,sounds/animalfarm_english.wav,,,,,,,,,0,1,1,1,0,110,110,133,804.956180075,9.30088572204e-06,805.959794265,1.00362381118,,,,,x,1,0.983807506622,2018_Nov_26_1107,59.9861096392,chinese_cond2,001,1042,
images/ashtray02b.jpg,ashtray,z,sounds/animalfarm_english.wav,,,,,,,,,0,1,1,1,0,111,111,43,807.074073088,9.30088572204e-06,810.010797989,2.93673644669,,,,,z,1,2.91762283875,2018_Nov_26_1107,59.9861096392,chinese_cond2,001,1042,
images/carrot02.jpg,corkscrew,x,sounds/animalfarm_english.wav,,,,,,,,,0,1,1,1,0,112,112,161,811.112887862,8.98016151041e-06,812.311370024,1.19849242526,,,,,x,1,1.18386408163,2018_Nov_26_1107,59.9861096392,chinese_cond2,001,1042,
images/handbag02a.jpg,candle,x,sounds/animalfarm_english.wav,,,,,,,,,0,1,1,1,0,113,113,144,813.426841925,9.62160993367e-06,814.311860084,0.88502778078,,,,,x,1,0.867115267902,2018_Nov_26_1107,59.9861096392,chinese_cond2,001,1042,
images/lightswitch02a.jpg,fork,x,sounds/animalfarm_english.wav,,,,,,,,,0,1,1,1,0,114,114,177,815.423019909,8.65943729877e-06,816.162311401,0.739300471963,,,,,x,1,0.717078770045,2018_Nov_26_1107,59.9861096392,chinese_cond2,001,1042,
images/remotecontrol01c.jpg,remote control,z,sounds/animalfarm_english.wav,,,,,,,,,0,1,1,1,0,115,115,85,817.271420224,8.65943729877e-06,818.129458163,0.858046919922,,,,,z,1,0.833766518626,2018_Nov_26_1107,59.9861096392,chinese_cond2,001,1042,
images/skateboard.jpg,key,x,sounds/animalfarm_english.wav,,,,,,,,,0,1,1,1,0,116,116,189,819.221346266,9.30088572204e-06,820.079946106,0.858609141549,,,,,x,1,0.850442015799,2018_Nov_26_1107,59.9861096392,chinese_cond2,001,1042,
images/tie01.jpg,bench,x,sounds/animalfarm_english.wav,,,,,,,,,0,1,1,1,0,117,117,130,821.178120313,8.33871308714e-06,821.897068238,0.718957545701,,,,,x,1,0.700410970137,2018_Nov_26_1107,59.9861096392,chinese_cond2,001,1042,
images/acousticguitar02.jpg,acoustic guitar,z,sounds/animalfarm_english.wav,,,,,,,,,0,1,1,1,0,118,118,97,823.011292218,8.98016151041e-06,823.880884404,0.869601807324,,,,,z,1,0.850445864489,2018_Nov_26_1107,59.9861096392,chinese_cond2,001,1042,
images/diaper01a.jpg,camera,x,sounds/animalfarm_english.wav,,,,,,,,,0,1,1,1,0,119,119,143,825.001254976,8.98016151041e-06,825.864703135,0.86345810187,,,,,x,1,0.850442336523,2018_Nov_26_1107,59.9861096392,chinese_cond2,001,1042,
images/lemon02.jpg,lemon,z,sounds/animalfarm_english.wav,,,,,,,,,0,1,1,1,0,120,120,14,826.976173096,8.65943729877e-06,827.598469911,0.622306115343,,,,,z,1,0.600385889877,2018_Nov_26_1107,59.9861096392,chinese_cond2,001,1042,
images/watermelon01.jpg,orange,x,sounds/animalfarm_english.wav,,,,,,,,,0,1,1,1,0,121,121,207,828.727383492,8.65932088345e-06,829.448921548,0.721547356807,,,,,x,1,0.700399745023,2018_Nov_26_1107,59.9861096392,chinese_cond2,001,1042,
images/banjo.jpg,knife,x,sounds/animalfarm_english.wav,,,,,,,,,0,1,1,1,0,122,122,191,830.544900109,8.98016151041e-06,831.332724821,0.787834334187,,,,,x,1,0.767092111986,2018_Nov_26_1107,59.9861096392,chinese_cond2,001,1042,
images/ladybug03.jpg,giraffe,x,sounds/animalfarm_english.wav,,,,,,,,,0,1,1,1,0,123,123,178,832.435356069,8.98004509509e-06,833.49993329,1.06458652182,,,,,x,1,1.05049698718,2018_Nov_26_1107,59.9861096392,chinese_cond2,001,1042,
images/parkingmeter.jpg,ear,x,sounds/animalfarm_english.wav,,,,,,,,,0,1,1,1,0,124,124,171,834.600831049,8.98016151041e-06,835.283689995,0.682868888485,,,,,x,1,0.66705901362,2018_Nov_26_1107,59.9861096392,chinese_cond2,001,1042,
images/plate01b.jpg,plate,z,sounds/animalfarm_english.wav,,,,,,,,,0,1,1,1,0,125,125,3,836.382341433,8.98016151041e-06,837.084134384,0.701802572701,,,,,z,1,0.68373002077,2018_Nov_26_1107,59.9861096392,chinese_cond2,001,1042,
images/barrel01.jpg,barrel,z,sounds/animalfarm_english.wav,,,,,,,,,0,1,1,1,0,126,126,9,838.214000503,8.65943729877e-06,838.951259915,0.737269033794,,,,,z,1,0.717073959298,2018_Nov_26_1107,59.9861096392,chinese_cond2,001,1042,
images/hairdryer03a.jpg,hairdryer,z,sounds/animalfarm_english.wav,,,,,,,,,0,1,1,1,0,127,127,119,840.050034509,8.98016151041e-06,840.851742213,0.801717966795,,,,,z,1,0.783766646869,2018_Nov_26_1107,59.9861096392,chinese_cond2,001,1042,
images/puzzle.jpg,puzzle,z,sounds/animalfarm_english.wav,,,,,,,,,0,1,1,1,0,128,128,57,841.971757428,8.98016151041e-06,842.752207834,0.780459706672,,,,,z,1,0.767093074042,2018_Nov_26_1107,59.9861096392,chinese_cond2,001,1042,
images/lightbulb03b.jpg,treadmill,x,sounds/animalfarm_english.wav,,,,,,,,,0,1,1,1,0,129,129,234,843.855923114,8.98016151041e-06,845.302830543,1.4469170504,,,,,x,1,1.43390673737,2018_Nov_26_1107,59.9861096392,chinese_cond2,001,1042,
images/gorilla.jpg,gorilla,z,sounds/animalfarm_english.wav,,,,,,,,,0,1,1,1,0,130,130,80,846.414393513,8.98016151041e-06,847.136622719,0.72223818698,,,,,z,1,0.700415460276,2018_Nov_26_1107,59.9861096392,chinese_cond2,001,1042,
images/lamp04b.jpg,parking meter,x,sounds/animalfarm_english.wav,,,,,,,,,0,1,1,1,0,131,131,209,848.258559687,9.30088572204e-06,849.07042394,0.811873875093,,,,,x,1,0.800427711685,2018_Nov_26_1107,59.9861096392,chinese_cond2,001,1042,
images/sunglasses03a.jpg,sun glasses,z,sounds/animalfarm_english.wav,,,,,,,,,0,1,1,1,0,132,132,17,850.178677083,9.30088572204e-06,850.870867046,0.692200547201,,,,,z,1,0.683734831633,2018_Nov_26_1107,59.9861096392,chinese_cond2,001,1042,
images/computermouse02a.jpg,world map,x,sounds/animalfarm_english.wav,,,,,,,,,0,1,1,1,0,133,133,239,851.972191362,8.98016151041e-06,853.171446138,1.19926375593,,,,,x,1,1.18386568513,2018_Nov_26_1107,59.9861096392,chinese_cond2,001,1042,
images/cupcake.jpg,scissors,x,sounds/animalfarm_english.wav,,,,,,,,,0,1,1,1,0,134,134,219,854.29047097,9.30088572204e-06,855.08858052,0.798118851031,,,,,z,0,0.783764401916,2018_Nov_26_1107,59.9861096392,chinese_cond2,001,1042,
images/pouch01b.jpg,pouch,z,sounds/animalfarm_english.wav,,,,,,,,,0,1,1,1,0,135,135,25,856.200585762,8.98016151041e-06,856.839008681,0.638432219741,,,,,z,1,0.617051765323,2018_Nov_26_1107,59.9861096392,chinese_cond2,001,1042,
images/pictureframe04.jpg,picture frame,z,sounds/animalfarm_english.wav,,,,,,,,,0,1,1,1,0,136,136,41,857.960635833,8.98016151041e-06,858.989538767,1.02891223435,,,,,z,1,1.01715144503,2018_Nov_26_1107,59.9861096392,chinese_cond2,001,1042,
images/lettuce.jpg,mushroom,x,sounds/animalfarm_english.wav,,,,,,,,,0,1,1,1,0,137,137,205,860.112179072,9.30076930672e-06,860.823315548,0.71114609798,,,,,x,1,0.700394613435,2018_Nov_26_1107,59.9861096392,chinese_cond2,001,1042,
images/butterfly.jpg,butterfly,z,sounds/animalfarm_english.wav,,,,,,,,,0,1,1,1,0,138,138,91,861.930296717,8.65932088345e-06,863.674046853,1.74375975784,,,,,z,1,1.73401052214,2018_Nov_26_1107,59.9861096392,chinese_cond2,001,1042,
images/wallet01.jpg,lamp,x,sounds/animalfarm_english.wav,,,,,,,,,0,1,1,1,0,139,139,193,864.778967719,8.65943729877e-06,865.64117309,0.862214671797,,,,,x,1,0.850434318534,2018_Nov_26_1107,59.9861096392,chinese_cond2,001,1042,
images/lion.jpg,lion,z,sounds/animalfarm_english.wav,,,,,,,,,0,1,1,1,0,140,140,44,866.752955431,8.65943729877e-06,867.408288935,0.655343125109,,,,,z,1,0.63373143191,2018_Nov_26_1107,59.9861096392,chinese_cond2,001,1042,
images/daisy.jpg,daisy,z,sounds/animalfarm_english.wav,,,,,,,,,0,1,1,1,0,141,141,6,868.509847697,8.98016151041e-06,869.108705678,0.598867602996,,,,,z,1,0.58371231705,2018_Nov_26_1107,59.9861096392,chinese_cond2,001,1042,
images/mushroom01.jpg,shower head,x,sounds/animalfarm_english.wav,,,,,,,,,0,1,1,1,0,142,142,222,870.224644546,8.65943729877e-06,870.875808374,0.651173449005,,,,,x,1,0.633726300439,2018_Nov_26_1107,59.9861096392,chinese_cond2,001,1042,
images/screwdriver02b.jpg,cola,x,sounds/animalfarm_english.wav,,,,,,,,,0,1,1,1,0,143,143,158,871.968988335,8.98016151041e-06,873.576469505,1.60749079206,,,,,x,1,1.58394900814,2018_Nov_26_1107,59.9861096392,chinese_cond2,001,1042,
images/highheelshoe02a.jpg,high heel shoe,z,sounds/animalfarm_english.wav,,,,,,,,,0,1,1,1,0,144,144,75,874.682822384,8.98004509509e-06,875.343577653,0.660764890607,,,,,z,1,0.650393138058,2018_Nov_26_1107,59.9861096392,chinese_cond2,001,1042,
images/feather03b.jpg,feather,z,sounds/animalfarm_english.wav,,,,,,,,,0,1,1,1,0,145,145,114,876.443492085,9.62160993367e-06,877.610817296,1.16733547405,,,,,x,0,1.15053329256,2018_Nov_26_1107,59.9861096392,chinese_cond2,001,1042,
images/pepper05a.jpg,lighter,x,sounds/animalfarm_english.wav,,,,,,,,,0,1,1,1,0,146,146,198,878.731587806,8.65943729877e-06,879.377898825,0.646321281558,,,,,x,1,0.633722451748,2018_Nov_26_1107,59.9861096392,chinese_cond2,001,1042,
images/tent.jpg,tent,z,sounds/animalfarm_english.wav,,,,,,,,,0,1,1,1,0,147,147,11,880.504078912,9.94233414531e-06,881.128362585,0.62429329427,,,,,z,1,0.600405453821,2018_Nov_26_1107,59.9861096392,chinese_cond2,001,1042,
images/mattress.jpg,cat,x,sounds/animalfarm_english.wav,,,,,,,,,0,1,1,1,0,148,148,147,882.232212247,8.98016151041e-06,882.912107102,0.679904476856,,,,,x,1,0.667064465932,2018_Nov_26_1107,59.9861096392,chinese_cond2,001,1042,
images/battery03b.jpg,battery,z,sounds/animalfarm_english.wav,,,,,,,,,0,1,1,1,0,149,149,34,884.020764993,8.65943729877e-06,884.62920704,0.608451668173,,,,,z,1,0.600379475509,2018_Nov_26_1107,59.9861096392,chinese_cond2,001,1042,
images/computerkeyboard01a.jpg,computer keyboard,z,sounds/animalfarm_english.wav,,,,,,,,,0,1,1,1,0,150,150,61,885.74600223,9.30076930672e-06,887.096496202,1.35050359392,,,,,z,1,1.33391886041,2018_Nov_26_1107,59.9861096392,chinese_cond2,001,1042,
images/lily.jpg,kiwi,x,sounds/animalfarm_english.wav,,,,,,,,,0,1,1,1,0,151,151,190,888.195825321,9.30088572204e-06,888.896928404,0.701112704701,,,,,x,1,0.683746698196,2018_Nov_26_1107,59.9861096392,chinese_cond2,001,1042,
images/birthdaycandle.jpg,birthday candle,z,sounds/animalfarm_english.wav,,,,,,,,,0,1,1,1,0,152,152,55,889.992861101,8.98016151041e-06,890.99743296,1.00458148005,,,,,z,1,0.983804299496,2018_Nov_26_1107,59.9861096392,chinese_cond2,001,1042,
images/doorhandle.jpg,doll,x,sounds/animalfarm_english.wav,,,,,,,,,0,1,1,1,0,153,153,168,892.099348683,8.98016151041e-06,892.897904674,0.798565292731,,,,,x,1,0.783761836239,2018_Nov_26_1107,59.9861096392,chinese_cond2,001,1042,
images/corkscrew02a.jpg,masquerade mask,x,sounds/animalfarm_english.wav,,,,,,,,,0,1,1,1,0,154,154,201,894.002677688,8.98016151041e-06,895.148452464,1.14578439679,,,,,x,1,1.13382764778,2018_Nov_26_1107,59.9861096392,chinese_cond2,001,1042,
images/bracelet02a.jpg,chess knight,x,sounds/animalfarm_english.wav,,,,,,,,,0,1,1,1,0,155,155,152,896.257748587,8.98016151041e-06,897.465695185,1.20795589976,,,,,x,1,1.18385638436,2018_Nov_26_1107,59.9861096392,chinese_cond2,001,1042,
images/grandpiano.jpg,tulip,x,sounds/animalfarm_english.wav,,,,,,,,,0,1,1,1,0,156,156,236,898.579394789,9.30088572204e-06,899.616247401,1.03686191223,,,,,x,1,1.01716812258,2018_Nov_26_1107,59.9861096392,chinese_cond2,001,1042,
images/basketball01.jpg,basket ball,z,sounds/animalfarm_english.wav,,,,,,,,,0,1,1,1,0,157,157,33,900.755416313,8.65943729877e-06,901.61673297,0.861326278304,,,,,z,1,0.850450675236,2018_Nov_26_1107,59.9861096392,chinese_cond2,001,1042,
images/hanger02a.jpg,hanger,z,sounds/animalfarm_english.wav,,,,,,,,,0,1,1,1,0,158,158,88,902.710249366,9.30088572204e-06,903.333824248,0.623584824614,,,,,z,1,0.600395832211,2018_Nov_26_1107,59.9861096392,chinese_cond2,001,1042,
images/graduationcap.jpg,graduation cap,z,sounds/animalfarm_english.wav,,,,,,,,,0,1,1,1,0,159,159,35,904.435872107,9.62160993367e-06,905.050904943,0.615042456891,,,,,z,1,0.600385889877,2018_Nov_26_1107,59.9861096392,chinese_cond2,001,1042,
images/ear.jpg,bullet,x,sounds/animalfarm_english.wav,,,,,,,,,0,1,1,1,0,160,160,139,906.156482001,9.62160993367e-06,906.88468878,0.728216721793,,,,,x,1,0.717078769929,2018_Nov_26_1107,59.9861096392,chinese_cond2,001,1042,
images/coin01b.jpg,arrow,x,sounds/animalfarm_english.wav,,,,,,,,,0,1,1,1,0,161,161,124,907.987290843,8.98016151041e-06,908.668471463,0.681189921219,,,,,x,1,0.667070238851,2018_Nov_26_1107,59.9861096392,chinese_cond2,001,1042,
images/raisin.jpg,ruler,x,sounds/animalfarm_english.wav,,,,,,,,,0,1,1,1,0,162,162,218,909.773588609,3.59206460416e-05,910.985697828,1.21213904605,,,,,x,1,1.20052001474,2018_Nov_26_1107,59.9861096392,chinese_cond2,001,1042,
images/aloe02.jpg,broad sword,x,sounds/animalfarm_english.wav,,,,,,,,,0,1,1,1,0,163,163,137,912.107232613,8.98016151041e-06,912.952863513,0.845640521962,,,,,x,1,0.833782875445,2018_Nov_26_1107,59.9861096392,chinese_cond2,001,1042,
images/belt02a.jpg,snowman,x,sounds/animalfarm_english.wav,,,,,,,,,0,1,1,1,0,164,164,224,914.056144219,9.30088572204e-06,914.753289301,0.697155024391,,,,,x,1,0.683729379321,2018_Nov_26_1107,59.9861096392,chinese_cond2,001,1042,
images/hammer02a.jpg,flower,x,sounds/animalfarm_english.wav,,,,,,,,,0,1,1,1,0,165,165,176,915.848229692,8.98016151041e-06,916.937171663,1.08895159315,,,,,x,1,1.06716831494,2018_Nov_26_1107,59.9861096392,chinese_cond2,001,1042,
images/bullet (2).jpg,rubber glove,x,sounds/animalfarm_english.wav,,,,,,,,,0,1,1,1,0,166,166,217,918.042152183,9.30088572204e-06,919.221058259,1.17891633965,,,,,x,1,1.16716581327,2018_Nov_26_1107,59.9861096392,chinese_cond2,001,1042,
images/pipe.jpg,icecube,x,sounds/animalfarm_english.wav,,,,,,,,,0,1,1,1,0,167,167,188,920.329654572,9.30088572204e-06,921.338254669,1.00860971888,,,,,x,1,1.00048204162,2018_Nov_26_1107,59.9861096392,chinese_cond2,001,1042,
images/medal01.jpg,medal,z,sounds/animalfarm_english.wav,,,,,,,,,0,1,1,1,0,168,168,115,922.438561662,8.98016151041e-06,923.1553675,0.716815459193,,,,,z,1,0.700403272989,2018_Nov_26_1107,59.9861096392,chinese_cond2,001,1042,
images/highlighter03b.jpg,coin,x,sounds/animalfarm_english.wav,,,,,,,,,0,1,1,1,0,169,169,156,924.256745376,9.30088572204e-06,925.172522794,0.915787360282,,,,,x,1,0.900446698419,2018_Nov_26_1107,59.9861096392,chinese_cond2,001,1042,
images/beachumbrella01.jpg,beach umbrella,z,sounds/animalfarm_english.wav,,,,,,,,,0,1,1,1,0,170,170,92,926.278020955,9.30088572204e-06,926.939637035,0.661625381559,,,,,z,1,0.650399231818,2018_Nov_26_1107,59.9861096392,chinese_cond2,001,1042,
images/crocodile.jpg,triangle ruler,x,sounds/animalfarm_english.wav,,,,,,,,,0,1,1,1,0,171,171,235,928.037340426,8.98016151041e-06,929.590294126,1.55296364194,,,,,x,1,1.53395138145,2018_Nov_26_1107,59.9861096392,chinese_cond2,001,1042,
images/seagull.jpg,seagull,z,sounds/animalfarm_english.wav,,,,,,,,,0,1,1,1,0,172,172,50,930.698223983,9.30088572204e-06,931.357395538,0.659180856426,,,,,z,1,0.650398590369,2018_Nov_26_1107,59.9861096392,chinese_cond2,001,1042,
images/screw03c.jpg,screw,z,sounds/animalfarm_english.wav,,,,,,,,,0,1,1,1,0,173,173,84,932.452146384,9.30088572204e-06,933.858007471,1.40587070899,,,,,z,1,1.38390878995,2018_Nov_26_1107,59.9861096392,chinese_cond2,001,1042,
images/treadmill.jpg,lily,x,sounds/animalfarm_english.wav,,,,,,,,,0,1,1,1,0,174,174,199,934.964729499,9.62160993367e-06,935.891846601,0.927127044764,,,,,x,1,0.917131175636,2018_Nov_26_1107,59.9861096392,chinese_cond2,001,1042,
images/tulip02.jpg,sport shorts,x,sounds/animalfarm_english.wav,,,,,,,,,0,1,1,1,0,175,175,225,936.986262936,8.65943729877e-06,938.242427488,1.25617449463,,,,,x,1,1.23386940558,2018_Nov_26_1107,59.9861096392,chinese_cond2,001,1042,
images/donut.jpg,rhinoceros,x,sounds/animalfarm_english.wav,,,,,,,,,0,1,1,1,0,176,176,216,939.368157286,9.30088572204e-06,940.359612673,0.991464688093,,,,,x,1,0.967136820313,2018_Nov_26_1107,59.9861096392,chinese_cond2,001,1042,
images/egg01b (1).jpg,egg,z,sounds/animalfarm_english.wav,,,,,,,,,0,1,1,1,0,177,177,19,941.473065323,9.62160993367e-06,942.093388108,0.620332727325,,,,,z,1,0.600393266417,2018_Nov_26_1107,59.9861096392,chinese_cond2,001,1042,
images/blueberry02.jpg,blueberry,z,sounds/animalfarm_english.wav,,,,,,,,,0,1,1,1,0,178,178,46,943.206012659,9.30088572204e-06,943.777138655,0.571135937702,,,,,z,1,0.550390187535,2018_Nov_26_1107,59.9861096392,chinese_cond2,001,1042,
images/shotglass.jpg,shot glass,z,sounds/animalfarm_english.wav,,,,,,,,,0,1,1,1,0,179,179,86,944.885818355,8.98016151041e-06,945.844298631,0.958489577286,,,,,z,1,0.950472548255,2018_Nov_26_1107,59.9861096392,chinese_cond2,001,1042,
images/stapler03a.jpg,candy cane,x,sounds/animalfarm_english.wav,,,,,,,,,0,1,1,1,0,180,180,145,946.955323433,9.62149351835e-06,947.711509153,0.756195020629,,,,,x,1,0.73383925797,2018_Nov_26_1107,59.9861096392,chinese_cond2,001,1042,
images/ostrich.jpg,ostrich,z,sounds/animalfarm_english.wav,,,,,,,,,0,1,1,1,0,181,181,76,948.81174238,8.98016151041e-06,949.82845027,1.01671815291,,,,,z,1,1.00031430519,2018_Nov_26_1107,59.9861096392,chinese_cond2,001,1042,
images/fryingpan01.jpg,frying pan,z,sounds/animalfarm_english.wav,,,,,,,,,0,1,1,1,0,182,182,45,950.93057895,8.98016151041e-06,951.562382536,0.631813207758,,,,,z,1,0.617058821255,2018_Nov_26_1107,59.9861096392,chinese_cond2,001,1042,
images/lighter02b.jpg,stapler,x,sounds/animalfarm_english.wav,,,,,,,,,0,1,1,1,0,183,183,227,952.664698838,9.62160993367e-06,953.596211724,0.931523148902,,,,,x,1,0.917131175636,2018_Nov_26_1107,59.9861096392,chinese_cond2,001,1042,
images/doll.jpg,carrot,x,sounds/animalfarm_english.wav,,,,,,,,,0,1,1,1,0,184,184,146,954.708689386,8.98016151041e-06,955.613374073,0.90469462995,,,,,x,1,0.883785633487,2018_Nov_26_1107,59.9861096392,chinese_cond2,001,1042,
images/panda.jpg,panda,z,sounds/animalfarm_english.wav,,,,,,,,,0,1,1,1,0,185,185,83,956.723038703,8.98016151041e-06,957.830590753,1.10756167118,,,,,z,1,1.08384124632,2018_Nov_26_1107,59.9861096392,chinese_cond2,001,1042,
images/parkbench03.jpg,park bench,z,sounds/animalfarm_english.wav,,,,,,,,,0,1,1,1,0,186,186,71,958.936848699,8.98016151041e-06,959.714386008,0.777547251666,,,,,z,1,0.767092111986,2018_Nov_26_1107,59.9861096392,chinese_cond2,001,1042,
images/honeycomb.jpg,honey comb,z,sounds/animalfarm_english.wav,,,,,,,,,0,1,1,1,0,187,187,59,960.826820373,9.30088572204e-06,961.548172411,0.721361660166,,,,,z,1,0.700408083736,2018_Nov_26_1107,59.9861096392,chinese_cond2,001,1042,
images/backpack01b.jpg,swallow,x,sounds/animalfarm_english.wav,,,,,,,,,0,1,1,1,0,188,188,228,962.680277153,9.30088572204e-06,963.598676133,0.918408922618,,,,,x,1,0.900454716408,2018_Nov_26_1107,59.9861096392,chinese_cond2,001,1042,
images/flashlight05.jpg,flash light,z,sounds/animalfarm_english.wav,,,,,,,,,0,1,1,1,0,189,189,8,964.701172679,8.98016151041e-06,965.482473313,0.78131025529,,,,,z,1,0.767089225468,2018_Nov_26_1107,59.9861096392,chinese_cond2,001,1042,
images/cookingpot.jpg,grasshopper,x,sounds/animalfarm_english.wav,,,,,,,,,0,1,1,1,0,190,190,183,966.596100434,9.30088572204e-06,967.299583257,0.703493085923,,,,,x,1,0.683721682057,2018_Nov_26_1107,59.9861096392,chinese_cond2,001,1042,
images/paintbrush03a.jpg,paint brush,z,sounds/animalfarm_english.wav,,,,,,,,,0,1,1,1,0,191,191,0,968.399650993,9.62160993367e-06,969.116707954,0.717066582642,,,,,z,1,0.70041193231,2018_Nov_26_1107,59.9861096392,chinese_cond2,001,1042,
images/tape01a.jpg,tie,x,sounds/animalfarm_english.wav,,,,,,,,,0,1,1,1,0,192,192,232,970.242610619,9.30076930672e-06,970.967166647,0.724565649289,,,,,x,1,0.700410649413,2018_Nov_26_1107,59.9861096392,chinese_cond2,001,1042,
images/licenseplate.jpg,license plate,z,sounds/animalfarm_english.wav,,,,,,,,,0,1,1,1,0,193,193,40,972.084067995,9.30088572204e-06,973.067684353,0.983625979279,,,,,z,1,0.96714676253,2018_Nov_26_1107,59.9861096392,chinese_cond2,001,1042,
images/dresser02.jpg,dresser,z,sounds/animalfarm_english.wav,,,,,,,,,0,1,1,1,0,194,194,87,974.190097268,9.30088572204e-06,974.968159275,0.778070986853,,,,,x,0,0.76710173348,2018_Nov_26_1107,59.9861096392,chinese_cond2,001,1042,
images/bowtie.jpg,bowtie,z,sounds/animalfarm_english.wav,,,,,,,,,0,1,1,1,0,195,195,89,976.077937118,8.98016151041e-06,976.718572361,0.640645185253,,,,,z,1,0.617052727495,2018_Nov_26_1107,59.9861096392,chinese_cond2,001,1042,
images/peach01.jpg,peach,z,sounds/animalfarm_english.wav,,,,,,,,,0,1,1,1,0,196,196,106,977.847189277,8.65943729877e-06,978.569029772,0.721850757604,,,,,z,1,0.700398141402,2018_Nov_26_1107,59.9861096392,chinese_cond2,001,1042,
images/toothbrush03a.jpg,parrot,x,sounds/animalfarm_english.wav,,,,,,,,,0,1,1,1,0,197,197,210,979.662406013,9.94221772999e-06,980.469500203,0.807104132487,,,,,x,1,0.783759270445,2018_Nov_26_1107,59.9861096392,chinese_cond2,001,1042,
images/cockroach02.jpg,belt,x,sounds/animalfarm_english.wav,,,,,,,,,0,1,1,1,0,198,198,129,981.568710014,8.98016151041e-06,982.753402835,1.184702122,,,,,x,1,1.16718954663,2018_Nov_26_1107,59.9861096392,chinese_cond2,001,1042,
images/cloud.jpg,ceiling fan,x,sounds/animalfarm_english.wav,,,,,,,,,0,1,1,1,0,199,199,149,983.858184188,9.62160993367e-06,984.720547353,0.862372786622,,,,,x,1,0.850441053626,2018_Nov_26_1107,59.9861096392,chinese_cond2,001,1042,
images/snowman.jpg,globe,x,sounds/animalfarm_english.wav,,,,,,,,,0,1,1,1,0,200,200,180,985.831683124,9.62160993367e-06,987.471227599,1.63955441781,,,,,x,1,1.61730160611,2018_Nov_26_1107,59.9861096392,chinese_cond2,001,1042,
images/rhinoceros01.jpg,envelope,x,sounds/animalfarm_english.wav,,,,,,,,,0,1,1,1,0,201,201,173,988.583511867,8.98016151041e-06,989.421708807,0.838206240674,,,,,x,1,0.817100001615,2018_Nov_26_1107,59.9861096392,chinese_cond2,001,1042,
images/volleyball.jpg,volley ball,z,sounds/animalfarm_english.wav,,,,,,,,,0,1,1,1,0,202,202,2,990.553999566,9.62160993367e-06,991.305523626,0.751534643467,,,,,z,1,0.73376100231,2018_Nov_26_1107,59.9861096392,chinese_cond2,001,1042,
images/key03b.jpg,cigar,x,sounds/animalfarm_english.wav,,,,,,,,,0,1,1,1,0,203,203,153,992.407014716,9.30088572204e-06,993.322669619,0.915664524655,,,,,x,1,0.900448622531,2018_Nov_26_1107,59.9861096392,chinese_cond2,001,1042,
images/giraffe.jpg,lettuce,x,sounds/animalfarm_english.wav,,,,,,,,,0,1,1,1,0,204,204,195,994.423069941,8.98016151041e-06,995.323177639,0.900116357021,,,,,x,1,0.883796217269,2018_Nov_26_1107,59.9861096392,chinese_cond2,001,1042,
images/icecube02 (2).jpg,aloe,x,sounds/animalfarm_english.wav,,,,,,,,,0,1,1,1,0,205,205,122,996.433544966,9.30088572204e-06,997.790449482,1.35691477964,,,,,x,1,1.33390923881,2018_Nov_26_1107,59.9861096392,chinese_cond2,001,1042,
images/electricguitar02.jpg,electric guitar,z,sounds/animalfarm_english.wav,,,,,,,,,0,1,1,1,0,206,206,100,998.892225371,8.98016151041e-06,999.624229792,0.732014042442,,,,,z,1,0.717081977171,2018_Nov_26_1107,59.9861096392,chinese_cond2,001,1042,
images/lock02a.jpg,lock,z,sounds/animalfarm_english.wav,,,,,,,,,0,1,1,1,0,207,207,65,1000.73413496,8.65932088345e-06,1001.70807489,0.973949226202,,,,,z,1,0.950470303302,2018_Nov_26_1107,59.9861096392,chinese_cond2,001,1042,
images/fork01.jpg,cooking pot,x,sounds/animalfarm_english.wav,,,,,,,,,0,1,1,1,0,208,208,160,1002.80185171,9.30076930672e-06,1003.49186527,0.690022540162,,,,,x,1,0.667083709151,2018_Nov_26_1107,59.9861096392,chinese_cond2,001,1042,
images/leaf01a.jpg,leaf,z,sounds/animalfarm_english.wav,,,,,,,,,0,1,1,1,0,209,209,68,1004.59432782,9.30088572204e-06,1005.25894936,0.664631486638,,,,,x,0,0.650376140024,2018_Nov_26_1107,59.9861096392,chinese_cond2,001,1042,
images/ant.jpg,ant,z,sounds/animalfarm_english.wav,,,,,,,,,0,1,1,1,0,210,210,98,1006.35329931,9.62160993367e-06,1007.25944263,0.906152942218,,,,,z,1,0.883787237108,2018_Nov_26_1107,59.9861096392,chinese_cond2,001,1042,
images/fireextinguisher02.jpg,fire extinguisher,x,sounds/animalfarm_english.wav,,,,,,,,,0,1,1,1,0,211,211,175,1008.36993471,9.30088572204e-06,1009.24326232,0.873337229015,,,,,x,1,0.850439450121,2018_Nov_26_1107,59.9861096392,chinese_cond2,001,1042,
images/cocktailshrimp01.jpg,cocktail shrimp,z,sounds/animalfarm_english.wav,,,,,,,,,0,1,1,1,0,212,212,30,1010.35712838,8.98004509509e-06,1011.12710761,0.769988531014,,,,,z,1,0.750462798402,2018_Nov_26_1107,59.9861096392,chinese_cond2,001,1042,
images/ladder.jpg,ladder,z,sounds/animalfarm_english.wav,,,,,,,,,0,1,1,1,0,213,213,113,1012.21970611,8.98016151041e-06,1012.86082403,0.641127547598,,,,,z,1,0.617052086163,2018_Nov_26_1107,59.9861096392,chinese_cond2,001,1042,
images/masquerademask02b.jpg,mirror,x,sounds/animalfarm_english.wav,,,,,,,,,0,1,1,1,0,214,214,204,1013.96545529,8.65943729877e-06,1014.86131954,0.895873877686,,,,,x,1,0.883774408372,2018_Nov_26_1107,59.9861096392,chinese_cond2,001,1042,
images/antelope.jpg,antelope,z,sounds/animalfarm_english.wav,,,,,,,,,0,1,1,1,0,215,215,12,1015.96610795,8.65943729877e-06,1016.94516945,0.979070798261,,,,,x,0,0.967125274357,2018_Nov_26_1107,59.9861096392,chinese_cond2,001,1042,
images/glasses01b.jpg,calculator,x,sounds/animalfarm_english.wav,,,,,,,,,0,1,1,1,0,216,216,142,1018.03915955,9.30088572204e-06,1019.01233776,0.973188479315,,,,,x,1,0.950462926761,2018_Nov_26_1107,59.9861096392,chinese_cond2,001,1042,
images/saltshaker03c.jpg,salt shaker,z,sounds/animalfarm_english.wav,,,,,,,,,0,1,1,1,0,217,217,63,1020.12461915,9.30076930672e-06,1020.82946727,0.704857427278,,,,,z,1,0.683742849622,2018_Nov_26_1107,59.9861096392,chinese_cond2,001,1042,
images/paperclip04.jpg,eye drops,x,sounds/animalfarm_english.wav,,,,,,,,,0,1,1,1,0,218,218,174,1021.93580379,8.98016151041e-06,1022.87980486,0.944011009648,,,,,x,1,0.933625786798,2018_Nov_26_1107,59.9861096392,chinese_cond2,001,1042,
