images,name,corrAns,sounds,trials_3.thisRepN,trials_3.thisTrialN,trials_3.thisN,trials_3.thisIndex,trials_4.thisRepN,trials_4.thisTrialN,trials_4.thisN,trials_4.thisIndex,trials_2.thisRepN,trials_2.thisTrialN,trials_2.thisN,trials_2.thisIndex,trials.thisRepN,trials.thisTrialN,trials.thisN,trials.thisIndex,begin_global,begin_routine,end_global,end_routine,key_resp_2.keys,key_resp_2.corr,key_resp_2.rt,begin_book,key_resp_1.keys,key_resp_1.corr,key_resp_1.rt,date,frameRate,expName,session,participant,
images\volleyball.jpg,volley ball,z,,0,0,0,0,,,,,,,,,,,,,,,,,,,,,,,,2018_Nov_26_1107,59.9823013575,chinese_cond1,001,,
images\puma.jpg,puma,z,,,,,,0,0,0,0,,,,,,,,,48.1726735895,1.02630583569e-05,50.1620461212,1.98938343616,z,1,1.96741777798,,,,,2018_Nov_26_1107,59.9823013575,chinese_cond1,001,,
images\lamp04b.jpg,parking meter,x,sounds\animalfarm_chinese.wav,,,,,,,,,0,0,0,1,0,0,0,209,92.3619660689,9.94245056063e-06,93.5731809088,1.21122542385,,,,82.1587083598,x,1,1.20056139317,2018_Nov_26_1107,59.9823013575,chinese_cond1,001,,
images\watermelon01.jpg,orange,x,sounds\animalfarm_chinese.wav,,,,,,,,,0,0,0,1,0,1,1,207,94.7100884618,8.98027792573e-06,96.0903155206,1.38023700134,,,,,x,1,1.36709218018,2018_Nov_26_1107,59.9823013575,chinese_cond1,001,,
images\dryingmachine01.jpg,drying machine,z,sounds\animalfarm_chinese.wav,,,,,,,,,0,0,0,1,0,2,2,18,97.2124060042,9.30100213736e-06,99.6580563305,2.44565994793,,,,,z,1,2.43419539323,2018_Nov_26_1107,59.9823013575,chinese_cond1,001,,
images\cake.jpg,cake,z,sounds\animalfarm_chinese.wav,,,,,,,,,0,0,0,1,0,3,3,23,100.772198984,9.62160993367e-06,102.125358328,1.35316960642,,,,,z,1,1.33391662105,2018_Nov_26_1107,59.9823013575,chinese_cond1,001,,
images\fork01.jpg,cooking pot,x,sounds\animalfarm_chinese.wav,,,,,,,,,0,0,0,1,0,4,4,160,103.219812454,8.98027792573e-06,106.209588134,2.98978498112,,,,,None,0,,2018_Nov_26_1107,59.9823013575,chinese_cond1,001,,
images\aquarium.jpg,computer mouse,x,sounds\animalfarm_chinese.wav,,,,,,,,,0,0,0,1,0,5,5,159,107.345864184,8.98027792573e-06,108.493664123,1.14780988067,,,,,x,1,1.13387255371,2018_Nov_26_1107,59.9823013575,chinese_cond1,001,,
images\diaper01a.jpg,camera,x,sounds\animalfarm_chinese.wav,,,,,,,,,0,0,0,1,0,6,6,143,109.613454383,9.30100213736e-06,110.844249345,1.23080458434,,,,,x,1,1.2172081857,2018_Nov_26_1107,59.9823013575,chinese_cond1,001,,
images\ceilingfan02.jpg,paper clip,x,sounds\animalfarm_chinese.wav,,,,,,,,,0,0,0,1,0,7,7,208,111.943012061,9.30088572204e-06,113.128194799,1.18519268057,,,,,x,1,1.16721777525,2018_Nov_26_1107,59.9823013575,chinese_cond1,001,,
images\acousticguitar02.jpg,acoustic guitar,z,sounds\animalfarm_chinese.wav,,,,,,,,,0,0,0,1,0,8,8,97,114.241640522,8.98016151041e-06,115.578797085,1.33716586302,,,,,z,1,1.31724352925,2018_Nov_26_1107,59.9823013575,chinese_cond1,001,,
images\banjo.jpg,knife,x,sounds\animalfarm_chinese.wav,,,,,,,,,0,0,0,1,0,9,9,191,116.67542956,9.30100213736e-06,117.645996194,0.970576576074,,,,,x,1,0.950481372769,2018_Nov_26_1107,59.9823013575,chinese_cond1,001,,
images\swallow.jpg,mattress,x,sounds\animalfarm_chinese.wav,,,,,,,,,0,0,0,1,0,10,10,202,118.749087384,8.98027792573e-06,119.596493923,0.847415840719,,,,,x,1,0.833779351786,2018_Nov_26_1107,59.9823013575,chinese_cond1,001,,
images\egg01b (1).jpg,egg,z,sounds\animalfarm_chinese.wav,,,,,,,,,0,0,0,1,0,11,11,19,120.708948292,9.621726349e-06,121.713702366,1.00476337399,,,,,z,1,0.98382017971,2018_Nov_26_1107,59.9823013575,chinese_cond1,001,,
images\shotglass.jpg,shot glass,z,sounds\animalfarm_chinese.wav,,,,,,,,,0,0,0,1,0,12,12,86,122.822268934,8.98016151041e-06,123.897604779,1.0753454665,,,,,z,1,1.06717569637,2018_Nov_26_1107,59.9823013575,chinese_cond1,001,,
images\highlighter03b.jpg,coin,x,sounds\animalfarm_chinese.wav,,,,,,,,,0,0,0,1,0,13,13,156,124.998999345,9.30100213736e-06,125.881440353,0.882450950216,,,,,x,1,0.867130666855,2018_Nov_26_1107,59.9823013575,chinese_cond1,001,,
images\grandpiano.jpg,tulip,x,sounds\animalfarm_chinese.wav,,,,,,,,,0,0,0,1,0,14,14,236,126.997353396,8.98027792573e-06,128.332080483,1.33473670913,,,,,x,1,1.31725154736,2018_Nov_26_1107,59.9823013575,chinese_cond1,001,,
images\nailclipper03a.jpg,aquarium,x,sounds\animalfarm_chinese.wav,,,,,,,,,0,0,0,1,0,15,15,123,129.431043651,8.98016151041e-06,130.265908649,0.834874619846,,,,,x,1,0.817122296081,2018_Nov_26_1107,59.9823013575,chinese_cond1,001,,
images\saltshaker03c.jpg,salt shaker,z,sounds\animalfarm_chinese.wav,,,,,,,,,0,0,0,1,0,16,16,63,131.376475886,8.98027792573e-06,132.333088836,0.95662193012,,,,,z,1,0.933801866486,2018_Nov_26_1107,59.9823013575,chinese_cond1,001,,
images\puzzle.jpg,puzzle,z,sounds\animalfarm_chinese.wav,,,,,,,,,0,0,0,1,0,17,17,57,133.452931053,8.98016151041e-06,134.600354142,1.14743303147,,,,,z,1,1.13384882035,2018_Nov_26_1107,59.9823013575,chinese_cond1,001,,
images\nailpolish02b.jpg,nail polish,z,sounds\animalfarm_chinese.wav,,,,,,,,,0,0,0,1,0,18,18,94,135.710862686,9.621726349e-06,136.73421964,1.02336689597,,,,,z,1,1.0004929509,2018_Nov_26_1107,59.9823013575,chinese_cond1,001,,
images\graduationcap.jpg,graduation cap,z,sounds\animalfarm_chinese.wav,,,,,,,,,0,0,0,1,0,19,19,35,137.837564201,8.98016151041e-06,138.901440622,1.06388572266,,,,,z,1,1.05049683154,2018_Nov_26_1107,59.9823013575,chinese_cond1,001,,
images\candle08a.jpg,screw driver,x,sounds\animalfarm_chinese.wav,,,,,,,,,0,0,0,1,0,20,20,221,140.014325081,8.65943729877e-06,141.102020297,1.08770515828,,,,,x,1,1.06719077041,2018_Nov_26_1107,59.9823013575,chinese_cond1,001,,
images\remotecontrol01c.jpg,remote control,z,sounds\animalfarm_chinese.wav,,,,,,,,,0,0,0,1,0,21,21,85,142.21360679,9.30088572204e-06,143.385937848,1.17234100006,,,,,z,1,1.15053858969,2018_Nov_26_1107,59.9823013575,chinese_cond1,001,,
images\djmixer01.jpg,light bulb,x,sounds\animalfarm_chinese.wav,,,,,,,,,0,0,0,1,0,22,22,196,144.50903059,8.65943729877e-06,145.236397027,0.727375737508,,,,,x,1,0.717086631688,2018_Nov_26_1107,59.9823013575,chinese_cond1,001,,
images\calculator02b.jpg,dice,x,sounds\animalfarm_chinese.wav,,,,,,,,,0,0,0,1,0,23,23,165,146.338791607,8.98027792573e-06,147.236911786,0.898129801615,,,,,x,1,0.883798947907,2018_Nov_26_1107,59.9823013575,chinese_cond1,001,,
images\grasshopper.jpg,cauliflower,x,sounds\animalfarm_chinese.wav,,,,,,,,,0,0,0,1,0,24,24,148,148.329841839,9.30100213736e-06,149.454144988,1.12431341282,,,,,x,1,1.10051642777,2018_Nov_26_1107,59.9823013575,chinese_cond1,001,,
images\gorilla.jpg,gorilla,z,sounds\animalfarm_chinese.wav,,,,,,,,,0,0,0,1,0,25,25,80,150.566314877,8.98016151041e-06,151.45466937,0.888364435872,,,,,z,1,0.867132270476,2018_Nov_26_1107,59.9823013575,chinese_cond1,001,,
images\key03b.jpg,cigar,x,sounds\animalfarm_chinese.wav,,,,,,,,,0,0,0,1,0,26,26,153,152.557378579,8.98027792573e-06,153.57187685,1.01450725133,,,,,x,1,1.00049744092,2018_Nov_26_1107,59.9823013575,chinese_cond1,001,,
images\tie01.jpg,bench,x,sounds\animalfarm_chinese.wav,,,,,,,,,0,0,0,1,0,27,27,130,154.671225847,8.98027792573e-06,155.838959665,1.16774343979,,,,,x,1,1.15037021029,2018_Nov_26_1107,59.9823013575,chinese_cond1,001,,
images\button07.jpg,radish,x,sounds\animalfarm_chinese.wav,,,,,,,,,0,0,0,1,0,28,28,215,156.952340602,8.98027792573e-06,157.856304992,0.903973690467,,,,,x,1,0.88380375877,2018_Nov_26_1107,59.9823013575,chinese_cond1,001,,
images\teapot.jpg,light switch,x,sounds\animalfarm_chinese.wav,,,,,,,,,0,0,0,1,0,29,29,197,158.973651986,9.621726349e-06,159.956855096,0.983213051688,,,,,x,1,0.967169217765,2018_Nov_26_1107,59.9823013575,chinese_cond1,001,,
images\lip.jpg,boxing glove,x,sounds\animalfarm_chinese.wav,,,,,,,,,0,0,0,1,0,30,30,136,161.059621714,8.98027792573e-06,162.407478228,1.34786581481,,,,,x,1,1.33392239409,2018_Nov_26_1107,59.9823013575,chinese_cond1,001,,
images\treadmill.jpg,lily,x,sounds\animalfarm_chinese.wav,,,,,,,,,0,0,0,1,0,31,31,199,163.512703186,9.30100213736e-06,164.591366208,1.07867232338,,,,,x,1,1.06717120635,2018_Nov_26_1107,59.9823013575,chinese_cond1,001,,
images\pingpongpaddle01c (1).jpg,ping pong paddle,z,sounds\animalfarm_chinese.wav,,,,,,,,,0,0,0,1,0,32,32,10,165.70174486,8.6595537141e-06,167.192043318,1.49030807987,,,,,z,1,1.46729622397,2018_Nov_26_1107,59.9823013575,chinese_cond1,001,,
images\flipflop01b.jpg,flip flop,z,sounds\animalfarm_chinese.wav,,,,,,,,,0,0,0,1,0,33,33,27,168.308091385,9.62160993367e-06,169.44260314,1.13452137576,,,,,z,1,1.11718695378,2018_Nov_26_1107,59.9823013575,chinese_cond1,001,,
images\globe.jpg,cloud,x,sounds\animalfarm_chinese.wav,,,,,,,,,0,0,0,1,0,34,34,154,170.570114158,9.621726349e-06,171.476457669,0.906353132334,,,,,x,1,0.883796061389,2018_Nov_26_1107,59.9823013575,chinese_cond1,001,,
images\lighter02b.jpg,stapler,x,sounds\animalfarm_chinese.wav,,,,,,,,,0,0,0,1,0,35,35,227,172.57759694,9.30088572204e-06,174.093816851,1.51622953231,,,,,x,1,1.50064208684,2018_Nov_26_1107,59.9823013575,chinese_cond1,001,,
images\basketball01.jpg,basket ball,z,sounds\animalfarm_chinese.wav,,,,,,,,,0,0,0,1,0,36,36,33,175.232685302,8.98027792573e-06,176.244344215,1.01166821364,,,,,z,1,1.00048429135,2018_Nov_26_1107,59.9823013575,chinese_cond1,001,,
images\glasses01b.jpg,calculator,x,sounds\animalfarm_chinese.wav,,,,,,,,,0,0,0,1,0,37,37,142,177.337868567,9.94233414531e-06,178.261554517,0.923695251811,,,,,x,1,0.90049416956,2018_Nov_26_1107,59.9823013575,chinese_cond1,001,,
images\umbrella01.jpg,umbrella,z,sounds\animalfarm_chinese.wav,,,,,,,,,0,0,0,1,0,38,38,53,179.373996699,9.30100213736e-06,180.445435442,1.07144836464,,,,,z,1,1.0505215273,2018_Nov_26_1107,59.9823013575,chinese_cond1,001,,
images\floorlamp.jpg,floor lamp,z,sounds\animalfarm_chinese.wav,,,,,,,,,0,0,0,1,0,39,39,26,181.538191342,9.30100213736e-06,182.896053763,1.35787236388,,,,,z,1,1.33391565888,2018_Nov_26_1107,59.9823013575,chinese_cond1,001,,
images\plate01b.jpg,plate,z,sounds\animalfarm_chinese.wav,,,,,,,,,0,0,0,1,0,40,40,3,183.994915262,8.98027792573e-06,185.146636036,1.15173007466,,,,,z,1,1.13387287443,2018_Nov_26_1107,59.9823013575,chinese_cond1,001,,
images\mirror02.jpg,8 ball,x,sounds\animalfarm_chinese.wav,,,,,,,,,0,0,0,1,0,41,41,121,186.248483783,9.621726349e-06,187.080452334,0.831977852155,,,,,x,1,0.817104014917,2018_Nov_26_1107,59.9823013575,chinese_cond1,001,,
images\tent.jpg,tent,z,sounds\animalfarm_chinese.wav,,,,,,,,,0,0,0,1,0,42,42,11,188.206525553,9.30088572204e-06,189.21435247,1.00783718063,,,,,z,1,0.983837498701,2018_Nov_26_1107,59.9823013575,chinese_cond1,001,,
images\electricguitar02.jpg,electric guitar,z,sounds\animalfarm_chinese.wav,,,,,,,,,0,0,0,1,0,43,43,100,190.315999446,9.30088572204e-06,191.448245294,1.13225546968,,,,,z,1,1.11718086002,2018_Nov_26_1107,59.9823013575,chinese_cond1,001,,
images\razor04a.jpg,razor,z,sounds\animalfarm_chinese.wav,,,,,,,,,0,0,0,1,0,44,44,36,192.547611289,9.30100213736e-06,193.448753319,0.901151009719,,,,,z,1,0.883790929802,2018_Nov_26_1107,59.9823013575,chinese_cond1,001,,
images\paintbrush03a.jpg,paint brush,z,sounds\animalfarm_chinese.wav,,,,,,,,,0,0,0,1,0,45,45,0,194.548708161,8.98016151041e-06,195.482622601,0.933924703277,,,,,z,1,0.917152187321,2018_Nov_26_1107,59.9823013575,chinese_cond1,001,,
images\cat.jpg,black olive,x,sounds\animalfarm_chinese.wav,,,,,,,,,0,0,0,1,0,46,46,133,196.613636553,9.621726349e-06,197.333094929,0.719467998017,,,,,x,1,0.700427651638,2018_Nov_26_1107,59.9823013575,chinese_cond1,001,,
images\scissors04a.jpg,leek,x,sounds\animalfarm_chinese.wav,,,,,,,,,0,0,0,1,0,47,47,194,198.428093964,9.30088572204e-06,199.45029375,1.02221069043,,,,,x,1,1.0004958373,2018_Nov_26_1107,59.9823013575,chinese_cond1,001,,
images\ruler02b.jpg,watermelon,x,sounds\animalfarm_chinese.wav,,,,,,,,,0,0,0,1,0,48,48,238,200.553435935,1.02631747723e-05,201.750892732,1.1974673809,,,,,z,0,1.18388316978,2018_Nov_26_1107,59.9823013575,chinese_cond1,001,,
images\beachumbrella01.jpg,beach umbrella,z,sounds\animalfarm_chinese.wav,,,,,,,,,0,0,0,1,0,49,49,92,202.856837712,8.98016151041e-06,204.901713557,2.04488514597,,,,,z,1,2.03411655955,2018_Nov_26_1107,59.9823013575,chinese_cond1,001,,
images\sock03.jpg,sock,z,sounds\animalfarm_chinese.wav,,,,,,,,,0,0,0,1,0,50,50,90,206.008638987,8.98027792573e-06,207.202287523,1.19365783641,,,,,z,1,1.18388188677,2018_Nov_26_1107,59.9823013575,chinese_cond1,001,,
images\doorhandle.jpg,doll,x,sounds\animalfarm_chinese.wav,,,,,,,,,0,0,0,1,0,51,51,168,208.304812316,9.94233414531e-06,209.786297955,1.48149590206,,,,,x,1,1.4672939789,2018_Nov_26_1107,59.9823013575,chinese_cond1,001,,
images\atm.jpg,atm,z,sounds\animalfarm_chinese.wav,,,,,,,,,0,0,0,1,0,52,52,96,210.924738242,9.30100213736e-06,212.08686294,1.16213464073,,,,,z,1,1.15052800579,2018_Nov_26_1107,59.9823013575,chinese_cond1,001,,
images\cocktailshrimp01.jpg,cocktail shrimp,z,sounds\animalfarm_chinese.wav,,,,,,,,,0,0,0,1,0,53,53,30,213.200756713,9.30088572204e-06,214.28742273,1.08667563833,,,,,z,1,1.0671734513,2018_Nov_26_1107,59.9823013575,chinese_cond1,001,,
images\giraffe.jpg,lettuce,x,sounds\animalfarm_chinese.wav,,,,,,,,,0,0,0,1,0,54,54,195,215.388128063,9.30100213736e-06,216.221257631,0.833139509894,,,,,x,1,0.817110429285,2018_Nov_26_1107,59.9823013575,chinese_cond1,001,,
images\pen03c.jpg,pepper,x,sounds\animalfarm_chinese.wav,,,,,,,,,0,0,0,1,0,55,55,211,217.316557824,9.30088572204e-06,218.47184728,1.15529971849,,,,,x,1,1.13387832674,2018_Nov_26_1107,59.9823013575,chinese_cond1,001,,
images\feather03b.jpg,feather,z,sounds\animalfarm_chinese.wav,,,,,,,,,0,0,0,1,0,56,56,114,219.572601684,9.30100213736e-06,220.68906637,1.11647430784,,,,,z,1,1.10051386198,2018_Nov_26_1107,59.9823013575,chinese_cond1,001,,
images\boxingglove02a.jpg,bracelet,x,sounds\animalfarm_chinese.wav,,,,,,,,,0,0,0,1,0,57,57,135,221.800124954,9.621726349e-06,222.972990656,1.1728759656,,,,,x,1,1.15052094997,2018_Nov_26_1107,59.9823013575,chinese_cond1,001,,
images\mushroom01.jpg,shower head,x,sounds\animalfarm_chinese.wav,,,,,,,,,0,0,0,1,0,58,58,222,224.090359139,8.98027792573e-06,225.606991499,1.51664166106,,,,,x,1,1.50061995699,2018_Nov_26_1107,59.9823013575,chinese_cond1,001,,
images\cigar.jpg,crocodile,x,sounds\animalfarm_chinese.wav,,,,,,,,,0,0,0,1,0,59,59,162,226.705260943,9.62160993367e-06,227.840909339,1.13565801713,,,,,x,1,1.11719914118,2018_Nov_26_1107,59.9823013575,chinese_cond1,001,,
images\scooter.jpg,pen,x,sounds\animalfarm_chinese.wav,,,,,,,,,0,0,0,1,0,60,60,212,228.934826255,8.98016151041e-06,229.92478154,0.989964906476,,,,,x,1,0.967159275431,2018_Nov_26_1107,59.9823013575,chinese_cond1,001,,
images\raisin.jpg,ruler,x,sounds\animalfarm_chinese.wav,,,,,,,,,0,0,0,1,0,61,61,218,231.029760183,8.98016151041e-06,231.925288282,0.895537079079,,,,,x,1,0.883792212699,2018_Nov_26_1107,59.9823013575,chinese_cond1,001,,
images\blueberry02.jpg,blueberry,z,sounds\animalfarm_chinese.wav,,,,,,,,,0,0,0,1,0,62,62,46,233.037954969,8.98016151041e-06,234.109185242,1.071239574,,,,,z,1,1.0505151127,2018_Nov_26_1107,59.9823013575,chinese_cond1,001,,
images\carrot02.jpg,corkscrew,x,sounds\animalfarm_chinese.wav,,,,,,,,,0,0,0,1,0,63,63,161,235.211466928,8.6595537141e-06,236.243065494,1.03160786652,,,,,x,1,1.01717726793,2018_Nov_26_1107,59.9823013575,chinese_cond1,001,,
images\chessknight02b (1).jpg,cockroach,x,sounds\animalfarm_chinese.wav,,,,,,,,,0,0,0,1,0,64,64,155,237.351770293,8.98016151041e-06,239.260494529,1.90873353649,,,,,x,1,1.90071931691,2018_Nov_26_1107,59.9823013575,chinese_cond1,001,,
images\lightswitch02a.jpg,fork,x,sounds\animalfarm_chinese.wav,,,,,,,,,0,0,0,1,0,65,65,177,240.372106039,1.02631747723e-05,241.16097619,0.788880414679,,,,,x,1,0.767097247648,2018_Nov_26_1107,59.9823013575,chinese_cond1,001,,
images\bed.jpg,bed,z,sounds\animalfarm_chinese.wav,,,,,,,,,0,0,0,1,0,66,66,103,242.280627898,2.50163720921e-05,243.561607629,1.28100442654,,,,,z,1,1.2672383656,2018_Nov_26_1107,59.9823013575,chinese_cond1,001,,
images\barrel01.jpg,barrel,z,sounds\animalfarm_chinese.wav,,,,,,,,,0,0,0,1,0,67,67,9,244.691868203,9.30088572204e-06,245.712156161,1.02029757935,,,,,z,1,1.00050289324,2018_Nov_26_1107,59.9823013575,chinese_cond1,001,,
images\cola.jpg,comb,x,sounds\animalfarm_chinese.wav,,,,,,,,,0,0,0,1,0,68,68,157,246.832593961,9.621726349e-06,247.862710146,1.03012612741,,,,,x,1,1.0171782301,2018_Nov_26_1107,59.9823013575,chinese_cond1,001,,
images\hairband.jpg,hairband,z,sounds\animalfarm_chinese.wav,,,,,,,,,0,0,0,1,0,69,69,66,248.972179548,9.94233414531e-06,250.280232126,1.30806316179,,,,,z,1,1.28414462286,2018_Nov_26_1107,59.9823013575,chinese_cond1,001,,
images\dresser02.jpg,dresser,z,sounds\animalfarm_chinese.wav,,,,,,,,,0,0,0,1,0,70,70,87,251.401929724,8.98027792573e-06,252.497242747,1.09532264387,,,,,z,1,1.08386995585,2018_Nov_26_1107,59.9823013575,chinese_cond1,001,,
images\honeycomb.jpg,honey comb,z,sounds\animalfarm_chinese.wav,,,,,,,,,0,0,0,1,0,71,71,59,253.610154146,8.98027792573e-06,254.747819887,1.13767600467,,,,,z,1,1.11720748001,2018_Nov_26_1107,59.9823013575,chinese_cond1,001,,
images\baseball01a.jpg,baseball,z,sounds\animalfarm_chinese.wav,,,,,,,,,0,0,0,1,0,72,72,74,255.880828735,9.30100213736e-06,256.764984006,0.884164892603,,,,,z,1,0.867120083072,2018_Nov_26_1107,59.9823013575,chinese_cond1,001,,
images\daisy.jpg,daisy,z,sounds\animalfarm_chinese.wav,,,,,,,,,0,0,0,1,0,73,73,6,257.866715331,9.30100213736e-06,258.815513551,0.948807841633,,,,,z,1,0.93381790258,2018_Nov_26_1107,59.9823013575,chinese_cond1,001,,
images\lily.jpg,kiwi,x,sounds\animalfarm_chinese.wav,,,,,,,,,0,0,0,1,0,74,74,190,259.914649267,9.62160993367e-06,260.882701114,0.968061789055,,,,,x,1,0.950479769148,2018_Nov_26_1107,59.9823013575,chinese_cond1,001,,
images\hat05.jpg,hat,z,sounds\animalfarm_chinese.wav,,,,,,,,,0,0,0,1,0,75,75,15,262.062128162,9.30100213736e-06,263.016590666,0.954472125624,,,,,z,1,0.933818864753,2018_Nov_26_1107,59.9823013575,chinese_cond1,001,,
images\dice05a.jpg,band aid,x,sounds\animalfarm_chinese.wav,,,,,,,,,0,0,0,1,0,76,76,126,264.128827906,9.30100213736e-06,265.333857608,1.2050396445,,,,,x,1,1.18388701836,2018_Nov_26_1107,59.9823013575,chinese_cond1,001,,
images\ladybug03.jpg,giraffe,x,sounds\animalfarm_chinese.wav,,,,,,,,,0,0,0,1,0,77,77,178,266.437189661,9.30088572204e-06,268.317949119,1.88076908025,,,,,x,1,1.86738916952,2018_Nov_26_1107,59.9823013575,chinese_cond1,001,,
images\desktopcomputer.jpg,desktop computer,z,sounds\animalfarm_chinese.wav,,,,,,,,,0,0,0,1,0,78,78,16,269.453747292,9.30100213736e-06,271.118842845,1.66512121074,,,,,z,1,1.65077432082,2018_Nov_26_1107,59.9823013575,chinese_cond1,001,,
images\tank.jpg,wallet,x,sounds\animalfarm_chinese.wav,,,,,,,,,0,0,0,1,0,79,79,237,272.223366062,9.30100213736e-06,273.085852985,0.862496544258,,,,,x,1,0.85047970491,2018_Nov_26_1107,59.9823013575,chinese_cond1,001,,
images\ear.jpg,bullet,x,sounds\animalfarm_chinese.wav,,,,,,,,,0,0,0,1,0,80,80,139,274.191457678,9.30088572204e-06,275.069668033,0.878219975973,,,,,x,1,0.867117517279,2018_Nov_26_1107,59.9823013575,chinese_cond1,001,,
images\licenseplate.jpg,license plate,z,sounds\animalfarm_chinese.wav,,,,,,,,,0,0,0,1,0,81,81,40,276.188345385,9.621726349e-06,277.436949439,1.24861367606,,,,,z,1,1.23389154056,2018_Nov_26_1107,59.9823013575,chinese_cond1,001,,
images\plant01.jpg,plant,z,sounds\animalfarm_chinese.wav,,,,,,,,,0,0,0,1,0,82,82,47,278.549979506,8.98027792573e-06,279.904225458,1.35425525298,,,,,x,0,1.33388005872,2018_Nov_26_1107,59.9823013575,chinese_cond1,001,,
images\radio03a.jpg,radio,z,sounds\animalfarm_chinese.wav,,,,,,,,,0,0,0,1,0,83,83,37,281.019062797,9.30088572204e-06,282.10480866,1.08575580548,,,,,x,0,1.06718082796,2018_Nov_26_1107,59.9823013575,chinese_cond1,001,,
images\dreamcatcher.jpg,dream catcher,z,sounds\animalfarm_chinese.wav,,,,,,,,,0,0,0,1,0,84,84,48,283.204490567,9.94245056063e-06,284.522100683,1.31762005785,,,,,z,1,1.30058037979,2018_Nov_26_1107,59.9823013575,chinese_cond1,001,,
images\50dollarbill.jpg,cherry,x,sounds\animalfarm_chinese.wav,,,,,,,,,0,0,0,1,0,85,85,151,285.643399302,9.30088572204e-06,286.63930239,0.995913671679,,,,,x,1,0.983815368963,2018_Nov_26_1107,59.9823013575,chinese_cond1,001,,
images\corn01.jpg,corn,z,sounds\animalfarm_chinese.wav,,,,,,,,,0,0,0,1,0,86,86,22,287.739910223,9.30100213736e-06,288.723166573,0.98326597095,,,,,z,1,0.967151898774,2018_Nov_26_1107,59.9823013575,chinese_cond1,001,,
images\safe.jpg,safe,z,sounds\animalfarm_chinese.wav,,,,,,,,,0,0,0,1,0,87,87,78,289.835308237,9.621726349e-06,290.807059941,0.97176132584,,,,,z,1,0.950505426968,2018_Nov_26_1107,59.9823013575,chinese_cond1,001,,
images\broadsword.jpg,teapot,x,sounds\animalfarm_chinese.wav,,,,,,,,,0,0,0,1,0,88,88,231,291.901161914,8.98027792573e-06,292.774210236,0.873057622928,,,,,x,1,0.850458216621,2018_Nov_26_1107,59.9823013575,chinese_cond1,001,,
images\binder03b.jpg,dj mixer,x,sounds\animalfarm_chinese.wav,,,,,,,,,0,0,0,1,0,89,89,167,293.886923429,8.98027792573e-06,295.158152547,1.27123809885,,,,,x,1,1.25055565208,2018_Nov_26_1107,59.9823013575,chinese_cond1,001,,
images\headphones02b.jpg,headphones,z,sounds\animalfarm_chinese.wav,,,,,,,,,0,0,0,1,0,90,90,101,296.267687698,9.30088572204e-06,297.158693286,0.891015850706,,,,,z,1,0.867154079722,2018_Nov_26_1107,59.9823013575,chinese_cond1,001,,
images\bowl02b (1).jpg,bowl,z,sounds\animalfarm_chinese.wav,,,,,,,,,0,0,0,1,0,91,91,24,298.277882191,9.30100213736e-06,299.459253139,1.18138057017,,,,,z,1,1.16719756962,2018_Nov_26_1107,59.9823013575,chinese_cond1,001,,
images\charcoalbarbecue.jpg,charcoal barbecue,z,sounds\animalfarm_chinese.wav,,,,,,,,,0,0,0,1,0,92,92,77,300.577696685,9.94245056063e-06,302.009923161,1.43223673955,,,,,z,1,1.41728015582,2018_Nov_26_1107,59.9823013575,chinese_cond1,001,,
images\bench02.jpg,electric toothbrush,x,sounds\animalfarm_chinese.wav,,,,,,,,,0,0,0,1,0,93,93,172,303.119828426,9.30100213736e-06,303.843708607,0.723889481509,,,,,x,1,0.70041514351,2018_Nov_26_1107,59.9823013575,chinese_cond1,001,,
images\masquerademask02b.jpg,mirror,x,sounds\animalfarm_chinese.wav,,,,,,,,,0,0,0,1,0,94,94,204,304.949779311,9.621726349e-06,306.160969455,1.21119976602,,,,,x,1,1.2005392632,2018_Nov_26_1107,59.9823013575,chinese_cond1,001,,
images\lollipop03b.jpg,lollipop,z,sounds\animalfarm_chinese.wav,,,,,,,,,0,0,0,1,0,95,95,42,307.255510818,9.30100213736e-06,308.11146975,0.855968233082,,,,,z,1,0.833779030945,2018_Nov_26_1107,59.9823013575,chinese_cond1,001,,
images\knife04.jpg,tooth brush,x,sounds\animalfarm_chinese.wav,,,,,,,,,0,0,0,1,0,96,96,233,309.209943495,8.98027792573e-06,310.478745705,1.26881151064,,,,,x,1,1.25055950077,2018_Nov_26_1107,59.9823013575,chinese_cond1,001,,
images\candy.jpg,candy,z,sounds\animalfarm_chinese.wav,,,,,,,,,0,0,0,1,0,97,97,31,311.582683603,8.98027792573e-06,312.495919445,0.913245143136,,,,,z,1,0.900454720715,2018_Nov_26_1107,59.9823013575,chinese_cond1,001,,
images\bracelet02a.jpg,chess knight,x,sounds\animalfarm_chinese.wav,,,,,,,,,0,0,0,1,0,98,98,152,313.605758962,8.98027792573e-06,314.629829844,1.02408082469,,,,,x,1,1.00050930772,2018_Nov_26_1107,59.9823013575,chinese_cond1,001,,
images\ant.jpg,ant,z,sounds\animalfarm_chinese.wav,,,,,,,,,0,0,0,1,0,99,99,98,315.72579233,9.30088572204e-06,317.26384095,1.53805824195,,,,,x,0,1.51731517876,2018_Nov_26_1107,59.9823013575,chinese_cond1,001,,
images\tulip02.jpg,sport shorts,x,sounds\animalfarm_chinese.wav,,,,,,,,,0,0,0,1,0,100,100,225,318.359820434,8.98027792573e-06,319.46439208,1.10458094685,,,,,x,1,1.08385552338,2018_Nov_26_1107,59.9823013575,chinese_cond1,001,,
images\worldmap.jpg,scooter,x,sounds\animalfarm_chinese.wav,,,,,,,,,0,0,0,1,0,101,101,220,320.596907656,9.30100213736e-06,322.048375251,1.45147753763,,,,,x,1,1.43390802573,2018_Nov_26_1107,59.9823013575,chinese_cond1,001,,
images\skateboard.jpg,key,x,sounds\animalfarm_chinese.wav,,,,,,,,,0,0,0,1,0,102,102,189,323.140644935,8.98027792573e-06,324.499024361,1.35838904826,,,,,x,1,1.33391662105,2018_Nov_26_1107,59.9823013575,chinese_cond1,001,,
images\orange.jpg,bat,x,sounds\animalfarm_chinese.wav,,,,,,,,,0,0,0,1,0,103,103,128,325.625112654,9.62160993367e-06,326.499530141,0.874428712646,,,,,x,1,0.850469121127,2018_Nov_26_1107,59.9823013575,chinese_cond1,001,,
images\antelope.jpg,antelope,z,sounds\animalfarm_chinese.wav,,,,,,,,,0,0,0,1,0,104,104,12,327.604340084,8.98027792573e-06,328.483369885,0.87904102623,,,,,z,1,0.867124252487,2018_Nov_26_1107,59.9823013575,chinese_cond1,001,,
images\corkscrew02a.jpg,masquerade mask,x,sounds\animalfarm_chinese.wav,,,,,,,,,0,0,0,1,0,105,105,201,329.588950845,8.98027792573e-06,330.500542663,0.911601118394,,,,,x,1,0.900463700877,2018_Nov_26_1107,59.9823013575,chinese_cond1,001,,
images\arrow02.jpg,hammer,x,sounds\animalfarm_chinese.wav,,,,,,,,,0,0,0,1,0,106,106,184,331.598493309,8.98027792573e-06,332.834487508,1.23600414116,,,,,x,1,1.21722197672,2018_Nov_26_1107,59.9823013575,chinese_cond1,001,,
images\battery03b.jpg,battery,z,sounds\animalfarm_chinese.wav,,,,,,,,,0,0,0,1,0,107,107,34,333.944574622,9.30088572204e-06,334.951693705,1.00712870411,,,,,z,1,0.983829159988,2018_Nov_26_1107,59.9823013575,chinese_cond1,001,,
images\showerhead01.jpg,skateboard,x,sounds\animalfarm_chinese.wav,,,,,,,,,0,0,0,1,0,108,108,223,336.060485741,9.30100213736e-06,337.002217798,0.941741678398,,,,,x,1,0.917142245104,2018_Nov_26_1107,59.9823013575,chinese_cond1,001,,
images\notebook02b.jpg,notebook,z,sounds\animalfarm_chinese.wav,,,,,,,,,0,0,0,1,0,109,109,7,338.10855406,9.30100213736e-06,338.969391826,0.860847387929,,,,,z,1,0.850469121127,2018_Nov_26_1107,59.9823013575,chinese_cond1,001,,
images\triangleruler02.jpg,bottle of red wine,x,sounds\animalfarm_chinese.wav,,,,,,,,,0,0,0,1,0,110,110,134,340.08214126,9.621726349e-06,340.836524097,0.754392778967,,,,,x,1,0.733751063934,2018_Nov_26_1107,59.9823013575,chinese_cond1,001,,
images\lipstick04.jpg,lipstick,z,sounds\animalfarm_chinese.wav,,,,,,,,,0,0,0,1,0,111,111,56,341.93797928,8.98027792573e-06,343.420362943,1.48239360505,,,,,z,1,1.46712335444,2018_Nov_26_1107,59.9823013575,chinese_cond1,001,,
images\electrictoothbrush01a.jpg,banjo,x,sounds\animalfarm_chinese.wav,,,,,,,,,0,0,0,1,0,112,112,127,344.516971364,8.98016151041e-06,345.404360482,0.887398739811,,,,,x,1,0.867125856108,2018_Nov_26_1107,59.9823013575,chinese_cond1,001,,
images\cactus.jpg,cactus,z,sounds\animalfarm_chinese.wav,,,,,,,,,0,0,0,1,0,113,113,70,346.518037126,9.621726349e-06,347.405055488,0.887028946541,,,,,z,1,0.867308026645,2018_Nov_26_1107,59.9823013575,chinese_cond1,001,,
images\apricot.jpg,apricot,z,sounds\animalfarm_chinese.wav,,,,,,,,,0,0,0,1,0,114,114,32,348.523183122,8.98027792573e-06,349.488754499,0.965580998803,,,,,z,1,0.950490032206,2018_Nov_26_1107,59.9823013575,chinese_cond1,001,,
images\handbag02a.jpg,candle,x,sounds\animalfarm_chinese.wav,,,,,,,,,0,0,0,1,0,115,115,144,350.605980902,9.94245056063e-06,351.4059038,0.799932519905,,,,,x,1,0.783774508862,2018_Nov_26_1107,59.9823013575,chinese_cond1,001,,
images\diploma01.jpg,glasses,x,sounds\animalfarm_chinese.wav,,,,,,,,,0,0,0,1,0,116,116,179,352.538936381,9.62160993367e-06,353.856528856,1.3176024179,,,,,x,1,1.30057204107,2018_Nov_26_1107,59.9823013575,chinese_cond1,001,,
images\envelope02a.jpg,grand piano,x,sounds\animalfarm_chinese.wav,,,,,,,,,0,0,0,1,0,117,117,182,354.980670683,9.62160993367e-06,355.740342558,0.759681817377,,,,,x,1,0.750428966596,2018_Nov_26_1107,59.9823013575,chinese_cond1,001,,
images\toucan.jpg,toucan,z,sounds\animalfarm_chinese.wav,,,,,,,,,0,0,0,1,0,118,118,81,356.8419395,9.30100213736e-06,357.824585514,0.982656276901,,,,,z,1,0.967520409147,2018_Nov_26_1107,59.9823013575,chinese_cond1,001,,
images\leaf01a.jpg,leaf,z,sounds\animalfarm_chinese.wav,,,,,,,,,0,0,0,1,0,119,119,68,358.928820401,8.98027792573e-06,359.874732758,0.945921978448,,,,,z,1,0.93380571506,2018_Nov_26_1107,59.9823013575,chinese_cond1,001,,
images\dragonfly02.jpg,dragon fly,z,sounds\animalfarm_chinese.wav,,,,,,,,,0,0,0,1,0,120,120,29,360.973403106,9.30100213736e-06,362.275355858,1.30196237413,,,,,z,1,1.28390311869,2018_Nov_26_1107,59.9823013575,chinese_cond1,001,,
images\flamingo.jpg,flamingo,z,sounds\animalfarm_chinese.wav,,,,,,,,,0,0,0,1,0,121,121,52,363.374688177,9.30100213736e-06,364.509263755,1.13458519964,,,,,z,1,1.1171991413,2018_Nov_26_1107,59.9823013575,chinese_cond1,001,,
images\computerkeyboard01a.jpg,computer keyboard,z,sounds\animalfarm_chinese.wav,,,,,,,,,0,0,0,1,0,122,122,61,365.627509736,8.98027792573e-06,366.443164084,0.815691552009,,,,,z,1,0.800442469073,2018_Nov_26_1107,59.9823013575,chinese_cond1,001,,
images\rubberglove02a.jpg,lady bug,x,sounds\animalfarm_chinese.wav,,,,,,,,,0,0,0,1,0,123,123,192,367.549168719,8.98027792573e-06,368.29356008,0.744400982978,,,,,x,1,0.733755874913,2018_Nov_26_1107,59.9823013575,chinese_cond1,001,,
images\panda.jpg,panda,z,sounds\animalfarm_chinese.wav,,,,,,,,,0,0,0,1,0,124,124,83,369.403144943,9.94245056063e-06,370.244057168,0.840922167641,,,,,z,1,0.81710497709,2018_Nov_26_1107,59.9823013575,chinese_cond1,001,,
images\icecube02 (2).jpg,aloe,x,sounds\animalfarm_chinese.wav,,,,,,,,,0,0,0,1,0,125,125,122,371.355680545,8.6595537141e-06,372.261259453,0.905588850146,,,,,x,1,0.883807607344,2018_Nov_26_1107,59.9823013575,chinese_cond1,001,,
images\tissuebox03.jpg,tissue box,z,sounds\animalfarm_chinese.wav,,,,,,,,,0,0,0,1,0,126,126,58,373.387037285,9.30088572204e-06,374.628522257,1.24149459356,,,,,z,1,1.21721588296,2018_Nov_26_1107,59.9823013575,chinese_cond1,001,,
images\redfox.jpg,red fox,z,sounds\animalfarm_chinese.wav,,,,,,,,,0,0,0,1,0,127,127,1,375.742215258,8.98016151041e-06,376.66236973,0.920163773815,,,,,z,1,0.900464342441,2018_Nov_26_1107,59.9823013575,chinese_cond1,001,,
images\lion.jpg,lion,z,sounds\animalfarm_chinese.wav,,,,,,,,,0,0,0,1,0,128,128,44,377.776280502,8.98016151041e-06,379.146351554,1.37008067453,,,,,z,1,1.35059227864,2018_Nov_26_1107,59.9823013575,chinese_cond1,001,,
images\lychee02a.jpg,lychee,z,sounds\animalfarm_chinese.wav,,,,,,,,,0,0,0,1,0,129,129,62,380.271379217,9.621726349e-06,381.130190015,0.858820741065,,,,,z,1,0.850455009262,2018_Nov_26_1107,59.9823013575,chinese_cond1,001,,
images\ladder.jpg,ladder,z,sounds\animalfarm_chinese.wav,,,,,,,,,0,0,0,1,0,130,130,113,382.224182943,9.30088572204e-06,383.014000189,0.789827188128,,,,,z,1,0.767103020684,2018_Nov_26_1107,59.9823013575,chinese_cond1,001,,
images\camera01a.jpg,bull,x,sounds\animalfarm_chinese.wav,,,,,,,,,0,0,0,1,0,131,131,138,384.125917989,9.94233414531e-06,385.364599523,1.23869147687,,,,,x,1,1.21721748658,2018_Nov_26_1107,59.9823013575,chinese_cond1,001,,
images\peach01.jpg,peach,z,sounds\animalfarm_chinese.wav,,,,,,,,,0,0,0,1,0,132,132,106,386.495286338,9.30100213736e-06,387.482044017,0.986778846942,,,,,z,1,0.967320598895,2018_Nov_26_1107,59.9823013575,chinese_cond1,001,,
images\hairpin.jpg,hair pin,z,sounds\animalfarm_chinese.wav,,,,,,,,,0,0,0,1,0,133,133,28,388.574543018,8.98027792573e-06,389.46567914,0.89114574343,,,,,z,1,0.867150551756,2018_Nov_26_1107,59.9823013575,chinese_cond1,001,,
images\sportshorts02.jpg,tape,x,sounds\animalfarm_chinese.wav,,,,,,,,,0,0,0,1,0,134,134,230,390.573853144,8.98027792573e-06,391.399479403,0.82563588093,,,,,x,1,0.817101128399,2018_Nov_26_1107,59.9823013575,chinese_cond1,001,,
images\bottleofredwine02.jpg,pipe,x,sounds\animalfarm_chinese.wav,,,,,,,,,0,0,0,1,0,135,135,213,392.499267149,8.98027792573e-06,393.533357409,1.0340995614,,,,,x,1,1.01715610025,2018_Nov_26_1107,59.9823013575,chinese_cond1,001,,
images\snowman.jpg,globe,x,sounds\animalfarm_chinese.wav,,,,,,,,,0,0,0,1,0,136,136,180,394.645485924,9.30088572204e-06,396.617484264,1.97200796159,,,,,z,0,1.95073153649,2018_Nov_26_1107,59.9823013575,chinese_cond1,001,,
images\chameleon.jpg,50 dollar bill,x,sounds\animalfarm_chinese.wav,,,,,,,,,0,0,0,1,0,137,137,120,397.731049616,8.98027792573e-06,398.568000595,0.83696092118,,,,,x,1,0.81713031407,2018_Nov_26_1107,59.9823013575,chinese_cond1,001,,
images\rhinoceros01.jpg,envelope,x,sounds\animalfarm_chinese.wav,,,,,,,,,0,0,0,1,0,138,138,173,399.681248432,9.621726349e-06,400.501820422,0.820581290754,,,,,x,1,0.800449845614,2018_Nov_26_1107,59.9823013575,chinese_cond1,001,,
images\paperclip04.jpg,eye drops,x,sounds\animalfarm_chinese.wav,,,,,,,,,0,0,0,1,0,139,139,174,401.608520705,9.30100213736e-06,402.368976105,0.760465663741,,,,,x,1,0.750443399185,2018_Nov_26_1107,59.9823013575,chinese_cond1,001,,
images\banana04a.jpg,banana,z,sounds\animalfarm_chinese.wav,,,,,,,,,0,0,0,1,0,140,140,118,403.475617696,9.30100213736e-06,404.619539134,1.14393170143,,,,,z,1,1.13386100775,2018_Nov_26_1107,59.9823013575,chinese_cond1,001,,
images\toothbrush03a.jpg,parrot,x,sounds\animalfarm_chinese.wav,,,,,,,,,0,0,0,1,0,141,141,210,405.713954774,1.02630583569e-05,406.503348666,0.789403513423,,,,,x,1,0.767098851269,2018_Nov_26_1107,59.9823013575,chinese_cond1,001,,
images\crocodile.jpg,triangle ruler,x,sounds\animalfarm_chinese.wav,,,,,,,,,0,0,0,1,0,142,142,235,407.602392335,8.65943729877e-06,409.054003935,1.45162090054,,,,,x,1,1.43393592862,2018_Nov_26_1107,59.9823013575,chinese_cond1,001,,
images\printer03a.jpg,printer,z,sounds\animalfarm_chinese.wav,,,,,,,,,0,0,0,1,0,143,143,72,410.16469497,9.30100213736e-06,411.187885469,1.02320012008,,,,,z,1,1.00049519585,2018_Nov_26_1107,59.9823013575,chinese_cond1,001,,
images\radish01.jpg,raisin,x,sounds\animalfarm_chinese.wav,,,,,,,,,0,0,0,1,0,144,144,214,412.299761254,9.30100213736e-06,413.938600199,1.63884920836,,,,,x,1,1.61732646811,2018_Nov_26_1107,59.9823013575,chinese_cond1,001,,
images\croissant02b.jpg,croissant,z,sounds\animalfarm_chinese.wav,,,,,,,,,0,0,0,1,0,145,145,39,415.051288696,8.98027792573e-06,415.889099533,0.837820458109,,,,,z,1,0.817118126666,2018_Nov_26_1107,59.9823013575,chinese_cond1,001,,
images\fryingpan01.jpg,frying pan,z,sounds\animalfarm_chinese.wav,,,,,,,,,0,0,0,1,0,146,146,45,416.990730792,9.30100213736e-06,418.139677635,1.14895646449,,,,,z,1,1.13387127093,2018_Nov_26_1107,59.9823013575,chinese_cond1,001,,
images\parrot01.jpg,chameleon,x,sounds\animalfarm_chinese.wav,,,,,,,,,0,0,0,1,0,147,147,150,419.253271532,9.30100213736e-06,420.306919144,1.05365787481,,,,,x,1,1.03386511293,2018_Nov_26_1107,59.9823013575,chinese_cond1,001,,
images\bicycle.jpg,hand bag,x,sounds\animalfarm_chinese.wav,,,,,,,,,0,0,0,1,0,148,148,186,421.42004222,9.30100213736e-06,422.840873097,1.42084049887,,,,,x,1,1.40059904591,2018_Nov_26_1107,59.9823013575,chinese_cond1,001,,
images\donut.jpg,rhinoceros,x,sounds\animalfarm_chinese.wav,,,,,,,,,0,0,0,1,0,149,149,216,423.967514957,9.621726349e-06,425.124816627,1.157311933,,,,,x,1,1.13387704396,2018_Nov_26_1107,59.9823013575,chinese_cond1,001,,
images\gps.jpg,gps,z,sounds\animalfarm_chinese.wav,,,,,,,,,0,0,0,1,0,150,150,21,426.244556534,8.98027792573e-06,427.325348834,1.08080160152,,,,,z,1,1.06716447114,2018_Nov_26_1107,59.9823013575,chinese_cond1,001,,
images\flashlight05.jpg,flash light,z,sounds\animalfarm_chinese.wav,,,,,,,,,0,0,0,1,0,151,151,8,428.42885985,9.621726349e-06,429.876011479,1.44716157182,,,,,z,1,1.43394073949,2018_Nov_26_1107,59.9823013575,chinese_cond1,001,,
images\bandaid01.jpg,door handle,x,sounds\animalfarm_chinese.wav,,,,,,,,,0,0,0,1,0,152,152,170,430.984471247,9.62160993367e-06,432.293305747,1.30884476309,,,,,x,1,1.30057877628,2018_Nov_26_1107,59.9823013575,chinese_cond1,001,,
images\candycane01a.jpg,lip,x,sounds\animalfarm_chinese.wav,,,,,,,,,0,0,0,1,0,153,153,200,433.386985008,8.98016151041e-06,434.72726156,1.34028617444,,,,,x,1,1.31722043722,2018_Nov_26_1107,59.9823013575,chinese_cond1,001,,
images\coin01b.jpg,arrow,x,sounds\animalfarm_chinese.wav,,,,,,,,,0,0,0,1,0,154,154,124,435.884006456,9.621726349e-06,436.977827796,1.09383128316,,,,,x,1,1.08384461887,2018_Nov_26_1107,59.9823013575,chinese_cond1,001,,
images\straw.jpg,straw,z,sounds\animalfarm_chinese.wav,,,,,,,,,0,0,0,1,0,155,155,109,438.070857914,9.30100213736e-06,439.961923156,1.89107518445,,,,,z,1,1.86737666128,2018_Nov_26_1107,59.9823013575,chinese_cond1,001,,
images\bull.jpg,button,x,sounds\animalfarm_chinese.wav,,,,,,,,,0,0,0,1,0,156,156,141,441.068740182,8.6595537141e-06,442.129159854,1.06042897317,,,,,x,1,1.05050517037,2018_Nov_26_1107,59.9823013575,chinese_cond1,001,,
images\lettuce.jpg,mushroom,x,sounds\animalfarm_chinese.wav,,,,,,,,,0,0,0,1,0,157,157,205,443.25284433,9.30100213736e-06,444.313039496,1.06020478788,,,,,x,1,1.05049522803,2018_Nov_26_1107,59.9823013575,chinese_cond1,001,,
images\volleyball.jpg,volley ball,z,sounds\animalfarm_chinese.wav,,,,,,,,,0,0,0,1,0,158,158,2,445.444581037,9.621726349e-06,446.630307721,1.18573598494,,,,,z,1,1.16720719147,2018_Nov_26_1107,59.9823013575,chinese_cond1,001,,
images\doll.jpg,carrot,x,sounds\animalfarm_chinese.wav,,,,,,,,,0,0,0,1,0,159,159,146,447.814991735,9.30088572204e-06,448.764202404,0.94922029099,,,,,x,1,0.933825599961,2018_Nov_26_1107,59.9823013575,chinese_cond1,001,,
images\butterfly.jpg,butterfly,z,sounds\animalfarm_chinese.wav,,,,,,,,,0,0,0,1,0,160,160,91,449.872585198,8.98027792573e-06,451.314850617,1.44227439887,,,,,z,1,1.43394971965,2018_Nov_26_1107,59.9823013575,chinese_cond1,001,,
images\medal01.jpg,medal,z,sounds\animalfarm_chinese.wav,,,,,,,,,0,0,0,1,0,161,161,115,452.416941473,9.62160993367e-06,453.515400785,1.09846893384,,,,,z,1,1.08384205296,2018_Nov_26_1107,59.9823013575,chinese_cond1,001,,
images\leek.jpg,donut,x,sounds\animalfarm_chinese.wav,,,,,,,,,0,0,0,1,0,162,162,169,454.61770877,8.6595537141e-06,455.299196782,0.681497954763,,,,,x,1,0.667081147316,2018_Nov_26_1107,59.9823013575,chinese_cond1,001,,
images\eyedrops.jpg,bicycle,x,sounds\animalfarm_chinese.wav,,,,,,,,,0,0,0,1,0,163,163,131,456.401189176,9.30088572204e-06,457.766509042,1.36532948806,,,,,x,1,1.35059933458,2018_Nov_26_1107,59.9823013575,chinese_cond1,001,,
images\hairdryer03a.jpg,hairdryer,z,sounds\animalfarm_chinese.wav,,,,,,,,,0,0,0,1,0,164,164,119,458.867094746,9.30100213736e-06,459.917036727,1.04995192366,,,,,z,1,1.03383079567,2018_Nov_26_1107,59.9823013575,chinese_cond1,001,,
images\nametag01a.jpg,name tag,z,sounds\animalfarm_chinese.wav,,,,,,,,,0,0,0,1,0,165,165,108,461.038463635,9.621726349e-06,462.150941097,1.11248740368,,,,,z,1,1.10051193764,2018_Nov_26_1107,59.9823013575,chinese_cond1,001,,
images\cupcake.jpg,scissors,x,sounds\animalfarm_chinese.wav,,,,,,,,,0,0,0,1,0,166,166,219,463.271239382,8.98016151041e-06,464.734939983,1.46371022309,,,,,x,1,1.45059490856,2018_Nov_26_1107,59.9823013575,chinese_cond1,001,,
images\parkfountain.jpg,park fountain,z,sounds\animalfarm_chinese.wav,,,,,,,,,0,0,0,1,0,167,167,93,465.856263298,8.98027792573e-06,467.452314624,1.59606126836,,,,,z,1,1.58397868101,2018_Nov_26_1107,59.9823013575,chinese_cond1,001,,
images\8ball.jpg,nail clipper,x,sounds\animalfarm_chinese.wav,,,,,,,,,0,0,0,1,0,168,168,206,468.56882806,9.30100213736e-06,470.136319668,1.56750155066,,,,,x,1,1.55062095122,2018_Nov_26_1107,59.9823013575,chinese_cond1,001,,
images\pineapple01a.jpg,pineapple,z,sounds\animalfarm_chinese.wav,,,,,,,,,0,0,0,1,0,169,169,51,471.250003047,8.98016151041e-06,472.03681929,0.786825544084,,,,,z,1,0.767105907202,2018_Nov_26_1107,59.9823013575,chinese_cond1,001,,
images\parkingmeter.jpg,ear,x,sounds\animalfarm_chinese.wav,,,,,,,,,0,0,0,1,0,170,170,171,473.139683087,9.621726349e-06,475.087598999,1.94792553328,,,,,x,1,1.93407159427,2018_Nov_26_1107,59.9823013575,chinese_cond1,001,,
images\squirrel.jpg,binder,x,sounds\animalfarm_chinese.wav,,,,,,,,,0,0,0,1,0,171,171,132,476.192135686,9.621726349e-06,477.221490796,1.02936537308,,,,,x,1,1.01710606751,2018_Nov_26_1107,59.9823013575,chinese_cond1,001,,
images\kiwi03.jpg,backpack,x,sounds\animalfarm_chinese.wav,,,,,,,,,0,0,0,1,0,172,172,125,478.350068538,9.30100213736e-06,479.121972458,0.771913861623,,,,,x,1,0.750438909046,2018_Nov_26_1107,59.9823013575,chinese_cond1,001,,
images\highheelshoe02a.jpg,high heel shoe,z,sounds\animalfarm_chinese.wav,,,,,,,,,0,0,0,1,0,173,173,75,480.230068205,8.6595537141e-06,481.572607136,1.34254855267,,,,,z,1,1.33392720483,2018_Nov_26_1107,59.9823013575,chinese_cond1,001,,
images\gluestick.jpg,squirrel,x,sounds\animalfarm_chinese.wav,,,,,,,,,0,0,0,1,0,174,174,226,482.682100593,9.621726349e-06,483.97320554,1.29111585219,,,,,x,1,1.2672277817,2018_Nov_26_1107,59.9823013575,chinese_cond1,001,,
images\swan.jpg,swan,z,sounds\animalfarm_chinese.wav,,,,,,,,,0,0,0,1,0,175,175,54,485.066685311,9.94245056063e-06,486.423855934,1.35718120646,,,,,z,1,1.33392912918,2018_Nov_26_1107,59.9823013575,chinese_cond1,001,,
images\cauliflower01.jpg,glue stick,x,sounds\animalfarm_chinese.wav,,,,,,,,,0,0,0,1,0,176,176,181,487.541356875,9.30100213736e-06,488.374328006,0.832980752224,,,,,x,1,0.817029286409,2018_Nov_26_1107,59.9823013575,chinese_cond1,001,,
images\puma.jpg,puma,z,sounds\animalfarm_chinese.wav,,,,,,,,,0,0,0,1,0,177,177,4,489.473418821,9.30088572204e-06,490.624908995,1.15150011634,,,,,z,1,1.13386068703,2018_Nov_26_1107,59.9823013575,chinese_cond1,001,,
images\mailbox01.jpg,mail box,z,sounds\animalfarm_chinese.wav,,,,,,,,,0,0,0,1,0,178,178,73,491.745834293,8.98027792573e-06,493.05886128,1.31303692993,,,,,z,1,1.30056498514,2018_Nov_26_1107,59.9823013575,chinese_cond1,001,,
images\cloud.jpg,ceiling fan,x,sounds\animalfarm_chinese.wav,,,,,,,,,0,0,0,1,0,179,179,149,494.16544931,8.6595537141e-06,495.926276428,1.7608364193,,,,,x,1,1.75068811059,2018_Nov_26_1107,59.9823013575,chinese_cond1,001,,
images\hammer02a.jpg,flower,x,sounds\animalfarm_chinese.wav,,,,,,,,,0,0,0,1,0,180,180,176,497.02288934,9.30088572204e-06,498.093502222,1.07062250352,,,,,x,1,1.0505096605,2018_Nov_26_1107,59.9823013575,chinese_cond1,001,,
images\pepper05a.jpg,lighter,x,sounds\animalfarm_chinese.wav,,,,,,,,,0,0,0,1,0,181,181,198,499.215797647,9.30088572204e-06,501.110929333,1.8951419486,,,,,x,1,1.88403275481,2018_Nov_26_1107,59.9823013575,chinese_cond1,001,,
images\microphone01.jpg,diaper,x,sounds\animalfarm_chinese.wav,,,,,,,,,0,0,0,1,0,182,182,164,502.211080136,9.30088572204e-06,502.81136821,0.600297374069,,,,,x,1,0.58372370631,2018_Nov_26_1107,59.9823013575,chinese_cond1,001,,
images\sunglasses03a.jpg,sun glasses,z,sounds\animalfarm_chinese.wav,,,,,,,,,0,0,0,1,0,183,183,17,503.921081041,9.30100213736e-06,504.99526517,1.07419407193,,,,,z,1,1.05051607499,2018_Nov_26_1107,59.9823013575,chinese_cond1,001,,
images\screw03c.jpg,screw,z,sounds\animalfarm_chinese.wav,,,,,,,,,0,0,0,1,0,184,184,84,506.09066158,9.30100213736e-06,507.045914345,0.955262065749,,,,,z,1,0.933936570073,2018_Nov_26_1107,59.9823013575,chinese_cond1,001,,
images\backpack01b.jpg,swallow,x,sounds\animalfarm_chinese.wav,,,,,,,,,0,0,0,1,0,185,185,228,508.17834974,9.621726349e-06,509.112983562,0.934643442975,,,,,x,1,0.917125888169,2018_Nov_26_1107,59.9823013575,chinese_cond1,001,,
images\cockroach02.jpg,belt,x,sounds\animalfarm_chinese.wav,,,,,,,,,0,0,0,1,0,186,186,129,510.213162589,8.6595537141e-06,510.930123497,0.716970530106,,,,,x,1,0.700428293203,2018_Nov_26_1107,59.9823013575,chinese_cond1,001,,
images\blackolive.jpg,tank,x,sounds\animalfarm_chinese.wav,,,,,,,,,0,0,0,1,0,187,187,229,512.046232181,8.98027792573e-06,513.280723794,1.23450155521,,,,,x,1,1.21722710819,2018_Nov_26_1107,59.9823013575,chinese_cond1,001,,
images\weight01.jpg,weight,z,sounds\animalfarm_chinese.wav,,,,,,,,,0,0,0,1,0,188,188,67,514.387404192,9.94245056063e-06,515.614650999,1.22725674952,,,,,z,1,1.21721780731,2018_Nov_26_1107,59.9823013575,chinese_cond1,001,,
images\magnifyingglass01b.jpg,magnifying glass,z,sounds\animalfarm_chinese.wav,,,,,,,,,0,0,0,1,0,189,189,64,516.722719485,9.30088572204e-06,517.948575638,1.2258657749,,,,,z,1,1.21720690269,2018_Nov_26_1107,59.9823013575,chinese_cond1,001,,
images\bowlingball.jpg,bowling ball,z,sounds\animalfarm_chinese.wav,,,,,,,,,0,0,0,1,0,190,190,20,519.081328549,9.30088572204e-06,520.182494761,1.10117615433,,,,,z,1,1.08385231614,2018_Nov_26_1107,59.9823013575,chinese_cond1,001,,
images\cheetah.jpg,cheetah,z,sounds\animalfarm_chinese.wav,,,,,,,,,0,0,0,1,0,191,191,82,521.287014771,9.30100213736e-06,522.233008912,0.946004083497,,,,,z,1,0.933806998073,2018_Nov_26_1107,59.9823013575,chinese_cond1,001,,
images\lantern03.jpg,lantern,z,sounds\animalfarm_chinese.wav,,,,,,,,,0,0,0,1,0,192,192,5,523.340886247,8.65943729877e-06,524.150180342,0.809304038063,,,,,z,1,0.800453694421,2018_Nov_26_1107,59.9823013575,chinese_cond1,001,,
images\flower01.jpg,bus,x,sounds\animalfarm_chinese.wav,,,,,,,,,0,0,0,1,0,193,193,140,525.265671956,9.62160993367e-06,526.350732755,1.08507106255,,,,,x,1,1.06717986579,2018_Nov_26_1107,59.9823013575,chinese_cond1,001,,
images\clothespin02a.jpg,clothes pin,z,sounds\animalfarm_chinese.wav,,,,,,,,,0,0,0,1,0,194,194,79,527.456919882,8.98027792573e-06,528.768018043,1.31110778276,,,,,z,1,1.30056723021,2018_Nov_26_1107,59.9823013575,chinese_cond1,001,,
images\screwdriver02b.jpg,cola,x,sounds\animalfarm_chinese.wav,,,,,,,,,0,0,0,1,0,195,195,158,529.862964479,9.621726349e-06,530.935246081,1.07229122403,,,,,x,1,1.05049683154,2018_Nov_26_1107,59.9823013575,chinese_cond1,001,,
images\computermouse02a.jpg,world map,x,sounds\animalfarm_chinese.wav,,,,,,,,,0,0,0,1,0,196,196,239,532.037487676,8.98027792573e-06,532.919088711,0.881610336015,,,,,x,1,0.867133553489,2018_Nov_26_1107,59.9823013575,chinese_cond1,001,,
images\handfan01b.jpg,handfan,z,sounds\animalfarm_chinese.wav,,,,,,,,,0,0,0,1,0,197,197,69,534.035449483,9.30100213736e-06,535.519745616,1.48430575395,,,,,z,1,1.46727345267,2018_Nov_26_1107,59.9823013575,chinese_cond1,001,,
images\ostrich.jpg,ostrich,z,sounds\animalfarm_chinese.wav,,,,,,,,,0,0,0,1,0,198,198,76,536.619754981,9.621726349e-06,537.703868686,1.08412332693,,,,,z,1,1.06740565458,2018_Nov_26_1107,59.9823013575,chinese_cond1,001,,
images\table02.jpg,table,z,sounds\animalfarm_chinese.wav,,,,,,,,,0,0,0,1,0,199,199,49,538.819441121,9.621726349e-06,539.904321995,1.08489081636,,,,,z,1,1.06729340169,2018_Nov_26_1107,59.9823013575,chinese_cond1,001,,
images\apple06.jpg,apple,z,sounds\animalfarm_chinese.wav,,,,,,,,,0,0,0,1,0,200,200,13,541.032723661,8.98027792573e-06,541.921386369,0.888671688386,,,,,z,1,0.867125855992,2018_Nov_26_1107,59.9823013575,chinese_cond1,001,,
images\thumbtack02a.jpg,thumb tack,z,sounds\animalfarm_chinese.wav,,,,,,,,,0,0,0,1,0,201,201,60,543.032051747,9.621726349e-06,544.055278808,1.02323700313,,,,,z,1,1.00050128961,2018_Nov_26_1107,59.9823013575,chinese_cond1,001,,
images\fireextinguisher02.jpg,fire extinguisher,z,sounds\animalfarm_chinese.wav,,,,,,,,,0,0,0,1,0,202,202,175,545.167301163,9.30088572204e-06,545.972431636,0.805140415556,,,,,z,1,0.783776753931,2018_Nov_26_1107,59.9823013575,chinese_cond1,001,,
images\cherry01.jpg,highlighter,x,sounds\animalfarm_chinese.wav,,,,,,,,,0,0,0,1,0,203,203,187,547.082478981,9.30100213736e-06,547.889590238,0.807120878482,,,,,x,1,0.783772584517,2018_Nov_26_1107,59.9823013575,chinese_cond1,001,,
images\gamecontroller01.jpg,game controller,z,sounds\animalfarm_chinese.wav,,,,,,,,,0,0,0,1,0,204,204,112,549.009724955,9.30100213736e-06,550.173502016,1.16378668346,,,,,z,1,1.15052030853,2018_Nov_26_1107,59.9823013575,chinese_cond1,001,,
images\beermug01b.jpg,beer mug,z,sounds\animalfarm_chinese.wav,,,,,,,,,0,0,0,1,0,205,205,111,551.290196661,9.621726349e-06,552.490762865,1.20057614637,,,,,z,1,1.18387322722,2018_Nov_26_1107,59.9823013575,chinese_cond1,001,,
images\bullet (2).jpg,rubber glove,x,sounds\animalfarm_chinese.wav,,,,,,,,,0,0,0,1,0,206,206,217,553.596194368,9.30088572204e-06,554.924732469,1.32854740182,,,,,x,1,1.31725186808,2018_Nov_26_1107,59.9823013575,chinese_cond1,001,,
images\seagull.jpg,seagull,z,sounds\animalfarm_chinese.wav,,,,,,,,,0,0,0,1,0,207,207,50,556.034185194,9.621726349e-06,557.175300629,1.14112569834,,,,,z,1,1.11719817901,2018_Nov_26_1107,59.9823013575,chinese_cond1,001,,
images\mitten01.jpg,mitten,z,sounds\animalfarm_chinese.wav,,,,,,,,,0,0,0,1,0,208,208,102,558.295322451,9.62160993367e-06,559.325861028,1.03054851922,,,,,z,1,1.01717694721,2018_Nov_26_1107,59.9823013575,chinese_cond1,001,,
images\pouch01b.jpg,pouch,z,sounds\animalfarm_chinese.wav,,,,,,,,,0,0,0,1,0,209,209,25,560.437982167,9.94245056063e-06,561.843165302,1.40519339906,,,,,z,1,1.38392884063,2018_Nov_26_1107,59.9823013575,chinese_cond1,001,,
,,,sounds\animalfarm_chinese.wav,,,,,,,,,0,0,0,1,,,,,,,,,,,,,,,,2018_Nov_26_1107,59.9823013575,chinese_cond1,001,,
images\cockroach02.jpg,belt,x,sounds\greatgatsby_english.wav,,,,,,,,,0,1,1,0,0,0,0,129,582.967301997,9.621726349e-06,584.01551849,1.04822803906,,,,572.846127498,x,1,1.03383817233,2018_Nov_26_1107,59.9823013575,chinese_cond1,001,,
images\pineapple01a.jpg,pineapple,z,sounds\greatgatsby_english.wav,,,,,,,,,0,1,1,0,0,1,1,51,585.126156927,9.30100213736e-06,586.099391974,0.973245309899,,,,,z,1,0.950495163794,2018_Nov_26_1107,59.9823013575,chinese_cond1,001,,
images\cake.jpg,cake,z,sounds\greatgatsby_english.wav,,,,,,,,,0,1,1,0,0,2,2,23,587.212097148,9.30100213736e-06,588.066544193,0.854456666857,,,,,z,1,0.833783200476,2018_Nov_26_1107,59.9823013575,chinese_cond1,001,,
images\calculator02b.jpg,dice,x,sounds\greatgatsby_english.wav,,,,,,,,,0,1,1,0,0,3,3,165,589.16692239,8.98016151041e-06,589.950378741,0.783465973567,,,,,x,1,0.767117132316,2018_Nov_26_1107,59.9823013575,chinese_cond1,001,,
images\cocktailshrimp01.jpg,cocktail shrimp,z,sounds\greatgatsby_english.wav,,,,,,,,,0,1,1,0,0,4,4,30,591.063789185,9.30100213736e-06,592.034239717,0.970460795215,,,,,z,1,0.950488428585,2018_Nov_26_1107,59.9823013575,chinese_cond1,001,,
images\coffeepot03b.jpg,coffee pot,z,sounds\greatgatsby_english.wav,,,,,,,,,0,1,1,0,0,5,5,107,593.155228518,9.621726349e-06,594.034740686,0.879521789611,,,,,z,1,0.867123290198,2018_Nov_26_1107,59.9823013575,chinese_cond1,001,,
images\beermug01b.jpg,beer mug,z,sounds\greatgatsby_english.wav,,,,,,,,,0,1,1,0,0,6,6,111,595.150060392,8.98027792573e-06,596.201968083,1.05191763327,,,,,z,1,1.0338404174,2018_Nov_26_1107,59.9823013575,chinese_cond1,001,,
images\apricot.jpg,apricot,z,sounds\greatgatsby_english.wav,,,,,,,,,0,1,1,0,0,7,7,32,597.31796291,8.98016151041e-06,598.052435921,0.734482632484,,,,,z,1,0.717078613583,2018_Nov_26_1107,59.9823013575,chinese_cond1,001,,
images\leaf01a.jpg,leaf,z,sounds\greatgatsby_english.wav,,,,,,,,,0,1,1,0,0,8,8,68,599.152919314,9.30088572204e-06,600.036276306,0.883366934373,,,,,z,1,0.867124893819,2018_Nov_26_1107,59.9823013575,chinese_cond1,001,,
images\hat05.jpg,hat,z,sounds\greatgatsby_english.wav,,,,,,,,,0,1,1,0,0,9,9,15,601.13940919,9.30100213736e-06,601.920098026,0.780698457151,,,,,z,1,0.767103982856,2018_Nov_26_1107,59.9823013575,chinese_cond1,001,,
images\medal01.jpg,medal,z,sounds\greatgatsby_english.wav,,,,,,,,,0,1,1,0,0,10,10,115,603.0184608,8.6595537141e-06,603.903948353,0.885497174808,,,,,z,1,0.867134515662,2018_Nov_26_1107,59.9823013575,chinese_cond1,001,,
images\lemon02.jpg,lemon,z,sounds\greatgatsby_english.wav,,,,,,,,,0,1,1,0,0,11,11,14,605.015807141,9.30088572204e-06,607.138100321,2.12230280205,,,,,z,1,2.10077589238,2018_Nov_26_1107,59.9823013575,chinese_cond1,001,,
images\broadsword.jpg,teapot,x,sounds\greatgatsby_english.wav,,,,,,,,,0,1,1,0,0,12,12,231,608.229618872,9.62160993367e-06,609.355339617,1.12573036586,,,,,x,1,1.11719465104,2018_Nov_26_1107,59.9823013575,chinese_cond1,001,,
images\lion.jpg,lion,z,sounds\greatgatsby_english.wav,,,,,,,,,0,1,1,0,0,13,13,44,610.466741374,8.65943729877e-06,612.05602545,1.58929337724,,,,,z,1,1.56730558909,2018_Nov_26_1107,59.9823013575,chinese_cond1,001,,
images\grandpiano.jpg,tulip,x,sounds\greatgatsby_english.wav,,,,,,,,,0,1,1,0,0,14,14,236,613.167868842,9.30100213736e-06,614.006526387,0.838667166186,,,,,x,1,0.817112033023,2018_Nov_26_1107,59.9823013575,chinese_cond1,001,,
images\tie01.jpg,bench,x,sounds\greatgatsby_english.wav,,,,,,,,,0,1,1,0,0,15,15,130,615.104237453,9.621726349e-06,616.356971454,1.25274426409,,,,,x,1,1.23372380261,2018_Nov_26_1107,59.9823013575,chinese_cond1,001,,
images\skateboard.jpg,key,x,sounds\greatgatsby_english.wav,,,,,,,,,0,1,1,0,0,16,16,189,617.447345987,9.30088572204e-06,618.54086649,1.09353076597,,,,,z,0,1.08368008805,2018_Nov_26_1107,59.9823013575,chinese_cond1,001,,
images\electricguitar02.jpg,electric guitar,z,sounds\greatgatsby_english.wav,,,,,,,,,0,1,1,0,0,17,17,100,619.64090472,9.94233414531e-06,620.808267141,1.1673723635,,,,,z,1,1.15053057158,2018_Nov_26_1107,59.9823013575,chinese_cond1,001,,
images\button07.jpg,radish,x,sounds\greatgatsby_english.wav,,,,,,,,,0,1,1,0,0,18,18,215,621.919785,9.30088572204e-06,623.508808329,1.58903327107,,,,,x,1,1.56715003855,2018_Nov_26_1107,59.9823013575,chinese_cond1,001,,
images\camera01a.jpg,bull,x,sounds\greatgatsby_english.wav,,,,,,,,,0,1,1,0,0,19,19,138,624.618735403,9.62160993367e-06,626.042942849,1.42421738838,,,,,x,1,1.4005935936,2018_Nov_26_1107,59.9823013575,chinese_cond1,001,,
images\croissant02b.jpg,croissant,z,sounds\greatgatsby_english.wav,,,,,,,,,0,1,1,0,0,20,20,39,627.153179741,9.621726349e-06,628.326862645,1.17369220499,,,,,z,1,1.15052640229,2018_Nov_26_1107,59.9823013575,chinese_cond1,001,,
images\spoon02b.jpg,spoon,z,sounds\greatgatsby_english.wav,,,,,,,,,0,1,1,0,0,21,21,38,629.418610193,9.30100213736e-06,630.527449375,1.10884912498,,,,,z,1,1.10054176487,2018_Nov_26_1107,59.9823013575,chinese_cond1,001,,
images\charcoalbarbecue.jpg,charcoal barbecue,z,sounds\greatgatsby_english.wav,,,,,,,,,0,1,1,0,0,22,22,77,631.643482369,9.30100213736e-06,633.128090885,1.48461877939,,,,,z,1,1.46727794281,2018_Nov_26_1107,59.9823013575,chinese_cond1,001,,
images\banjo.jpg,knife,x,sounds\greatgatsby_english.wav,,,,,,,,,0,1,1,0,0,23,23,191,634.222568425,9.30088572204e-06,635.345338199,1.12278003746,,,,,x,1,1.10052476649,2018_Nov_26_1107,59.9823013575,chinese_cond1,001,,
images\candy.jpg,candy,z,sounds\greatgatsby_english.wav,,,,,,,,,0,1,1,0,0,24,24,31,636.446606401,9.30100213736e-06,637.929327464,1.48273100529,,,,,z,1,1.46728531946,2018_Nov_26_1107,59.9823013575,chinese_cond1,001,,
images\mushroom01.jpg,shower head,x,sounds\greatgatsby_english.wav,,,,,,,,,0,1,1,0,0,25,25,222,639.04529086,9.30100213736e-06,640.129887574,1.08460633538,,,,,x,1,1.06717729999,2018_Nov_26_1107,59.9823013575,chinese_cond1,001,,
images\dryingmachine01.jpg,drying machine,z,sounds\greatgatsby_english.wav,,,,,,,,,0,1,1,0,0,26,26,18,641.252370943,1.05837825686e-05,642.73055859,1.47819855169,,,,,z,1,1.46726254816,2018_Nov_26_1107,59.9823013575,chinese_cond1,001,,
images\fork01.jpg,cooking pot,x,sounds\greatgatsby_english.wav,,,,,,,,,0,1,1,0,0,27,27,160,643.823760294,8.98016151041e-06,644.731067898,0.90731722489,,,,,x,1,0.883791250642,2018_Nov_26_1107,59.9823013575,chinese_cond1,001,,
images\flower01.jpg,bus,x,sounds\greatgatsby_english.wav,,,,,,,,,0,1,1,0,0,28,28,140,645.84490362,9.30100213736e-06,646.681569476,0.836675798753,,,,,x,1,0.817107863608,2018_Nov_26_1107,59.9823013575,chinese_cond1,001,,
images\ceilingfan02.jpg,paper clip,x,sounds\greatgatsby_english.wav,,,,,,,,,0,1,1,0,0,29,29,208,647.778092585,9.30088572204e-06,649.115378719,1.33729607647,,,,,x,1,1.31708413002,2018_Nov_26_1107,59.9823013575,chinese_cond1,001,,
images\gamecontroller01.jpg,game controller,z,sounds\greatgatsby_english.wav,,,,,,,,,0,1,1,0,0,30,30,112,650.234679877,8.98027792573e-06,651.66617703,1.43150677462,,,,,z,1,1.41726315755,2018_Nov_26_1107,59.9823013575,chinese_cond1,001,,
images\tent.jpg,tent,z,sounds\greatgatsby_english.wav,,,,,,,,,0,1,1,0,0,31,31,11,652.792410289,9.621726349e-06,653.783385472,0.990985125536,,,,,z,1,0.967147408635,2018_Nov_26_1107,59.9823013575,chinese_cond1,001,,
images\bat.jpg,hand,x,sounds\greatgatsby_english.wav,,,,,,,,,0,1,1,0,0,32,32,185,654.880686013,9.30088572204e-06,656.150670727,1.26999433606,,,,,x,1,1.25056559453,2018_Nov_26_1107,59.9823013575,chinese_cond1,001,,
images\carrot02.jpg,corkscrew,x,sounds\greatgatsby_english.wav,,,,,,,,,0,1,1,0,0,33,33,161,657.252213789,9.621726349e-06,658.067818746,0.815614899271,,,,,x,1,0.800427074311,2018_Nov_26_1107,59.9823013575,chinese_cond1,001,,
images\tape01a.jpg,tie,x,sounds\greatgatsby_english.wav,,,,,,,,,0,1,1,0,0,34,34,232,659.1937393,8.98027792573e-06,660.818538287,1.62480860879,,,,,x,1,1.60065016907,2018_Nov_26_1107,59.9823013575,chinese_cond1,001,,
images\toothbrush03a.jpg,parrot,x,sounds\greatgatsby_english.wav,,,,,,,,,0,1,1,0,0,35,35,210,661.909116159,9.30100213736e-06,662.835705612,0.926599075436,,,,,x,1,0.917138396413,2018_Nov_26_1107,59.9823013575,chinese_cond1,001,,
images\pingpongpaddle01c (1).jpg,ping pong paddle,z,sounds\greatgatsby_english.wav,,,,,,,,,0,1,1,0,0,36,36,10,663.945955334,9.62160993367e-06,665.13630716,1.1903614481,,,,,z,1,1.16721232294,2018_Nov_26_1107,59.9823013575,chinese_cond1,001,,
images\boxingglove02a.jpg,bracelet,x,sounds\greatgatsby_english.wav,,,,,,,,,0,1,1,0,0,37,37,135,666.246667531,8.98027792573e-06,667.503569965,1.25691141444,,,,,x,1,1.23388897476,2018_Nov_26_1107,59.9823013575,chinese_cond1,001,,
images\beachumbrella01.jpg,beach umbrella,z,sounds\greatgatsby_english.wav,,,,,,,,,0,1,1,0,0,38,38,92,668.607006573,9.30100213736e-06,669.687483924,1.08048729331,,,,,z,1,1.06719782623,2018_Nov_26_1107,59.9823013575,chinese_cond1,001,,
images\triangleruler02.jpg,bottle of red wine,x,sounds\greatgatsby_english.wav,,,,,,,,,0,1,1,0,0,39,39,134,670.797526458,9.30100213736e-06,672.254796889,1.45728005318,,,,,x,1,1.43394843675,2018_Nov_26_1107,59.9823013575,chinese_cond1,001,,
images\acousticguitar02.jpg,acoustic guitar,z,sounds\greatgatsby_english.wav,,,,,,,,,0,1,1,0,0,40,40,97,673.367296801,8.98027792573e-06,675.155545071,1.78825789189,,,,,z,1,1.76737082412,2018_Nov_26_1107,59.9823013575,chinese_cond1,001,,
images\worldmap.jpg,scooter,x,sounds\greatgatsby_english.wav,,,,,,,,,0,1,1,0,0,41,41,220,676.28379728,9.621726349e-06,678.072944536,1.78915687767,,,,,x,1,1.76735639165,2018_Nov_26_1107,59.9823013575,chinese_cond1,001,,
images\bowl02b (1).jpg,bowl,z,sounds\greatgatsby_english.wav,,,,,,,,,0,1,1,0,0,42,42,24,679.189949319,9.62160993367e-06,680.240195025,1.05025564809,,,,,z,1,1.0338538877,2018_Nov_26_1107,59.9823013575,chinese_cond1,001,,
images\feather03b.jpg,feather,z,sounds\greatgatsby_english.wav,,,,,,,,,0,1,1,0,0,43,43,114,681.340080271,9.62160993367e-06,682.807495803,1.46742547525,,,,,z,1,1.45061126549,2018_Nov_26_1107,59.9823013575,chinese_cond1,001,,
images\straw.jpg,straw,z,sounds\greatgatsby_english.wav,,,,,,,,,0,1,1,0,0,44,44,109,683.897040627,9.62160993367e-06,685.124755048,1.22772500454,,,,,z,1,1.21721588296,2018_Nov_26_1107,59.9823013575,chinese_cond1,001,,
images\gps.jpg,gps,z,sounds\greatgatsby_english.wav,,,,,,,,,0,1,1,0,0,45,45,21,686.242584089,8.98027792573e-06,687.425495469,1.18292100157,,,,,z,1,1.16735215799,2018_Nov_26_1107,59.9823013575,chinese_cond1,001,,
images\pepper05a.jpg,lighter,x,sounds\greatgatsby_english.wav,,,,,,,,,0,1,1,0,0,46,46,198,688.546217107,8.98016151041e-06,689.442538033,0.896330226329,,,,,x,1,0.88380985253,2018_Nov_26_1107,59.9823013575,chinese_cond1,001,,
images\sunglasses03a.jpg,sun glasses,z,sounds\greatgatsby_english.wav,,,,,,,,,0,1,1,0,0,47,47,17,690.550783878,8.98027792573e-06,691.826477137,1.2757032006,,,,,x,0,1.26723483764,2018_Nov_26_1107,59.9823013575,chinese_cond1,001,,
images\lipstick04.jpg,lipstick,z,sounds\greatgatsby_english.wav,,,,,,,,,0,1,1,0,0,48,48,56,692.9259355,9.30100213736e-06,694.127057196,1.20113131742,,,,,z,1,1.18387226516,2018_Nov_26_1107,59.9823013575,chinese_cond1,001,,
images\mitten01.jpg,mitten,z,sounds\greatgatsby_english.wav,,,,,,,,,0,1,1,0,0,49,49,102,695.247175555,9.30100213736e-06,696.511000148,1.26383389381,,,,,z,1,1.25054987916,2018_Nov_26_1107,59.9823013575,chinese_cond1,001,,
images\tissuebox03.jpg,tissue box,z,sounds\greatgatsby_english.wav,,,,,,,,,0,1,1,0,0,50,50,58,697.637289534,8.98027792573e-06,698.761578251,1.12429801817,,,,,z,1,1.10051065462,2018_Nov_26_1107,59.9823013575,chinese_cond1,001,,
images\teapot.jpg,light switch,x,sounds\greatgatsby_english.wav,,,,,,,,,0,1,1,0,0,51,51,197,699.876492563,9.30100213736e-06,700.728769278,0.852286656853,,,,,x,1,0.833793784259,2018_Nov_26_1107,59.9823013575,chinese_cond1,001,,
images\paperclip04.jpg,eye drops,x,sounds\greatgatsby_english.wav,,,,,,,,,0,1,1,0,0,52,52,174,701.833681852,8.98016151041e-06,702.845959118,1.01228656701,,,,,x,1,1.00046216149,2018_Nov_26_1107,59.9823013575,chinese_cond1,001,,
images\nailclipper03a.jpg,aquarium,x,sounds\greatgatsby_english.wav,,,,,,,,,0,1,1,0,0,53,53,123,703.944741398,9.30100213736e-06,705.229921635,1.28519082034,,,,,x,1,1.2672383656,2018_Nov_26_1107,59.9823013575,chinese_cond1,001,,
images\nametag01a.jpg,name tag,z,sounds\greatgatsby_english.wav,,,,,,,,,0,1,1,0,0,54,54,108,706.34923049,8.98016151041e-06,707.563834407,1.21461321798,,,,,z,1,1.20053701813,2018_Nov_26_1107,59.9823013575,chinese_cond1,001,,
images\cherry01.jpg,highlighter,x,sounds\greatgatsby_english.wav,,,,,,,,,0,1,1,0,0,55,55,187,708.672056519,8.6595537141e-06,709.564351412,0.892304835375,,,,,x,1,0.883796061389,2018_Nov_26_1107,59.9823013575,chinese_cond1,001,,
images\bench02.jpg,electric toothbrush,x,sounds\greatgatsby_english.wav,,,,,,,,,0,1,1,0,0,56,56,172,710.672872758,8.98016151041e-06,711.831607417,1.15874492214,,,,,x,1,1.15054436261,2018_Nov_26_1107,59.9823013575,chinese_cond1,001,,
images\notebook02b.jpg,notebook,z,sounds\greatgatsby_english.wav,,,,,,,,,0,1,1,0,0,57,57,7,712.937873121,9.94233414531e-06,713.898796264,0.960933726397,,,,,z,1,0.950484580011,2018_Nov_26_1107,59.9823013575,chinese_cond1,001,,
images\plate01b.jpg,plate,z,sounds\greatgatsby_english.wav,,,,,,,,,0,1,1,0,0,58,58,3,714.996348892,9.621726349e-06,716.099371448,1.1030328183,,,,,z,1,1.083857127,2018_Nov_26_1107,59.9823013575,chinese_cond1,001,,
images\hanger02a.jpg,hanger,z,sounds\greatgatsby_english.wav,,,,,,,,,0,1,1,0,0,59,59,88,717.192343515,8.98016151041e-06,718.299911031,1.10757713858,,,,,z,1,1.08383788366,2018_Nov_26_1107,59.9823013575,chinese_cond1,001,,
images\magnifyingglass01b.jpg,magnifying glass,z,sounds\greatgatsby_english.wav,,,,,,,,,0,1,1,0,0,60,60,64,719.406056785,9.30088572204e-06,720.300436375,0.894389212364,,,,,z,1,0.883799589355,2018_Nov_26_1107,59.9823013575,chinese_cond1,001,,
images\birthdaycandle.jpg,birthday candle,z,sounds\greatgatsby_english.wav,,,,,,,,,0,1,1,0,0,61,61,55,721.396338244,9.30100213736e-06,723.117833531,1.72150522878,,,,,z,1,1.70068487129,2018_Nov_26_1107,59.9823013575,chinese_cond1,001,,
images\paintbrush03a.jpg,paint brush,z,sounds\greatgatsby_english.wav,,,,,,,,,0,1,1,0,0,62,62,0,724.216245697,9.62160993367e-06,726.118590436,1.90235436137,,,,,z,1,1.88405231887,2018_Nov_26_1107,59.9823013575,chinese_cond1,001,,
images\cupcake.jpg,scissors,x,sounds\greatgatsby_english.wav,,,,,,,,,0,1,1,0,0,63,63,219,727.236116715,8.98027792573e-06,728.185794356,0.949687583954,,,,,x,1,0.933814054006,2018_Nov_26_1107,59.9823013575,chinese_cond1,001,,
images\coin01b.jpg,arrow,x,sounds\greatgatsby_english.wav,,,,,,,,,0,1,1,0,0,64,64,124,729.288050384,9.621726349e-06,730.06960004,0.781559918425,,,,,x,1,0.767091474612,2018_Nov_26_1107,59.9823013575,chinese_cond1,001,,
images\flipflop01b.jpg,flip flop,z,sounds\greatgatsby_english.wav,,,,,,,,,0,1,1,0,0,65,65,27,731.186070499,9.30088572204e-06,732.386864736,1.20080385939,,,,,z,1,1.1838674543,2018_Nov_26_1107,59.9823013575,chinese_cond1,001,,
images\desktopcomputer.jpg,desktop computer,z,sounds\greatgatsby_english.wav,,,,,,,,,0,1,1,0,0,66,66,16,733.521081105,8.6595537141e-06,734.720821448,1.19974964391,,,,,z,1,1.18390016793,2018_Nov_26_1107,59.9823013575,chinese_cond1,001,,
images\drink.jpg,drink,z,sounds\greatgatsby_english.wav,,,,,,,,,0,1,1,0,0,67,67,117,735.821826016,9.621726349e-06,737.271446889,1.44963049539,,,,,z,1,1.43393721152,2018_Nov_26_1107,59.9823013575,chinese_cond1,001,,
images\corn01.jpg,corn,z,sounds\greatgatsby_english.wav,,,,,,,,,0,1,1,0,0,68,68,22,738.370641939,9.62160993367e-06,739.171935927,0.801303609507,,,,,x,0,0.783766490757,2018_Nov_26_1107,59.9823013575,chinese_cond1,001,,
images\clothespin02a.jpg,clothes pin,z,sounds\greatgatsby_english.wav,,,,,,,,,0,1,1,0,0,69,69,79,740.275456886,8.98027792573e-06,741.805942222,1.53049431718,,,,,z,1,1.51729016227,2018_Nov_26_1107,59.9823013575,chinese_cond1,001,,
images\umbrella01.jpg,umbrella,z,sounds\greatgatsby_english.wav,,,,,,,,,0,1,1,0,0,70,70,53,742.919597057,9.94245056063e-06,744.473301436,1.55371432204,,,,,z,1,1.53396902711,2018_Nov_26_1107,59.9823013575,chinese_cond1,001,,
images\marker01a.jpg,marker,z,sounds\greatgatsby_english.wav,,,,,,,,,0,1,1,0,0,71,71,95,745.572793155,9.62160993367e-06,746.773889834,1.20110630093,,,,,z,1,1.18387835892,2018_Nov_26_1107,59.9823013575,chinese_cond1,001,,
images\gorilla.jpg,gorilla,z,sounds\greatgatsby_english.wav,,,,,,,,,0,1,1,0,0,72,72,80,747.883624795,9.30100213736e-06,748.757729578,0.874114083708,,,,,z,1,0.850463348092,2018_Nov_26_1107,59.9823013575,chinese_cond1,001,,
images\cookingpot.jpg,grasshopper,x,sounds\greatgatsby_english.wav,,,,,,,,,0,1,1,0,0,73,73,183,749.872511753,9.621726349e-06,750.624868584,0.752366773435,,,,,x,1,0.733754271292,2018_Nov_26_1107,59.9823013575,chinese_cond1,001,,
images\battery03b.jpg,battery,z,sounds\greatgatsby_english.wav,,,,,,,,,0,1,1,0,0,74,74,34,751.733146822,9.30088572204e-06,753.175551114,1.44241423393,,,,,x,0,1.43395645486,2018_Nov_26_1107,59.9823013575,chinese_cond1,001,,
images\baseball01a.jpg,baseball,z,sounds\greatgatsby_english.wav,,,,,,,,,0,1,1,0,0,75,75,74,754.307252696,9.30100213736e-06,755.059337233,0.752094159019,,,,,z,1,0.733756195521,2018_Nov_26_1107,59.9823013575,chinese_cond1,001,,
images\masquerademask02b.jpg,mirror,x,sounds\greatgatsby_english.wav,,,,,,,,,0,1,1,0,0,76,76,204,756.16255607,9.30100213736e-06,757.243242212,1.08069544239,,,,,x,1,1.06718050723,2018_Nov_26_1107,59.9823013575,chinese_cond1,001,,
images\atm.jpg,atm,z,sounds\greatgatsby_english.wav,,,,,,,,,0,1,1,0,0,77,77,96,758.379967594,9.30100213736e-06,759.410455497,1.03049752442,,,,,z,1,1.017160911,2018_Nov_26_1107,59.9823013575,chinese_cond1,001,,
images\ashtray02b.jpg,ashtray,z,sounds\greatgatsby_english.wav,,,,,,,,,0,1,1,0,0,78,78,43,760.524289615,9.30100213736e-06,761.861091779,1.3368114644,,,,,z,1,1.31724994374,2018_Nov_26_1107,59.9823013575,chinese_cond1,001,,
images\tank.jpg,wallet,x,sounds\greatgatsby_english.wav,,,,,,,,,0,1,1,0,0,79,79,237,762.965450785,8.98016151041e-06,763.778238193,0.812796708546,,,,,x,1,0.800437978934,2018_Nov_26_1107,59.9823013575,chinese_cond1,001,,
images\doll.jpg,carrot,x,sounds\greatgatsby_english.wav,,,,,,,,,0,1,1,0,0,80,80,146,764.889224935,8.98016151041e-06,766.028815334,1.13960034098,,,,,x,1,1.11718599161,2018_Nov_26_1107,59.9823013575,chinese_cond1,001,,
images\lock02a.jpg,lock,z,sounds\greatgatsby_english.wav,,,,,,,,,0,1,1,0,0,81,81,65,767.198317296,9.30100213736e-06,768.929559346,1.73125199252,,,,,z,1,1.71734000265,2018_Nov_26_1107,59.9823013575,chinese_cond1,001,,
images\bracelet02a.jpg,chess knight,x,sounds\greatgatsby_english.wav,,,,,,,,,0,1,1,0,0,82,82,152,770.037502429,8.98016151041e-06,771.246822119,1.20932931104,,,,,x,1,1.20054824336,2018_Nov_26_1107,59.9823013575,chinese_cond1,001,,
images\handbag02a.jpg,candle,x,sounds\greatgatsby_english.wav,,,,,,,,,0,1,1,0,0,83,83,144,772.36132751,8.98027792573e-06,773.797485085,1.43616751733,,,,,x,1,1.41727374133,2018_Nov_26_1107,59.9823013575,chinese_cond1,001,,
images\seagull.jpg,seagull,z,sounds\greatgatsby_english.wav,,,,,,,,,0,1,1,0,0,84,84,50,774.904524692,9.30100213736e-06,775.964697729,1.06018265802,,,,,z,1,1.05050998123,2018_Nov_26_1107,59.9823013575,chinese_cond1,001,,
images\arrow02.jpg,hammer,x,sounds\greatgatsby_english.wav,,,,,,,,,0,1,1,0,0,85,85,184,777.06141712,9.30100213736e-06,779.148845494,2.08743831702,,,,,x,1,2.06741880428,2018_Nov_26_1107,59.9823013575,chinese_cond1,001,,
images\aloe02.jpg,broad sword,x,sounds\greatgatsby_english.wav,,,,,,,,,0,1,1,0,0,86,86,137,780.270696398,8.98027792573e-06,781.232710639,0.962023863103,,,,,x,1,0.950476241182,2018_Nov_26_1107,59.9823013575,chinese_cond1,001,,
images\candle08a.jpg,screw driver,x,sounds\greatgatsby_english.wav,,,,,,,,,0,1,1,0,0,87,87,221,782.346665991,9.30100213736e-06,783.466618858,1.1199624883,,,,,x,1,1.10051161691,2018_Nov_26_1107,59.9823013575,chinese_cond1,001,,
images\lychee02a.jpg,lychee,z,sounds\greatgatsby_english.wav,,,,,,,,,0,1,1,0,0,88,88,62,784.589644248,9.62160993367e-06,786.267331696,1.67769739032,,,,,z,1,1.66727454308,2018_Nov_26_1107,59.9823013575,chinese_cond1,001,,
images\dresser02.jpg,dresser,z,sounds\greatgatsby_english.wav,,,,,,,,,0,1,1,0,0,89,89,87,787.387299957,9.30100213736e-06,788.70129232,1.31400198466,,,,,z,1,1.30056274019,2018_Nov_26_1107,59.9823013575,chinese_cond1,001,,
images\eyedrops.jpg,bicycle,x,sounds\greatgatsby_english.wav,,,,,,,,,0,1,1,0,0,90,90,131,789.801666026,9.30088572204e-06,790.768488864,0.966832458857,,,,,x,1,0.9504791277,2018_Nov_26_1107,59.9823013575,chinese_cond1,001,,
images\elbow.jpg,elbow,z,sounds\greatgatsby_english.wav,,,,,,,,,0,1,1,0,0,91,91,105,791.881663576,9.621726349e-06,793.602561677,1.72090804297,,,,,z,1,1.70068455057,2018_Nov_26_1107,59.9823013575,chinese_cond1,001,,
images\highlighter03b.jpg,coin,x,sounds\greatgatsby_english.wav,,,,,,,,,0,1,1,0,0,92,92,156,794.70420769,8.98016151041e-06,796.169874322,1.4656759327,,,,,x,1,1.45060324739,2018_Nov_26_1107,59.9823013575,chinese_cond1,001,,
images\parkfountain.jpg,park fountain,z,sounds\greatgatsby_english.wav,,,,,,,,,0,1,1,0,0,93,93,93,797.290089219,9.30100213736e-06,798.620499699,1.33042010188,,,,,z,1,1.3172348697,2018_Nov_26_1107,59.9823013575,chinese_cond1,001,,
images\toucan.jpg,toucan,z,sounds\greatgatsby_english.wav,,,,,,,,,0,1,1,0,0,94,94,81,799.720926004,8.98027792573e-06,800.804393452,1.08347674983,,,,,z,1,1.06717762072,2018_Nov_26_1107,59.9823013575,chinese_cond1,001,,
images\hand01a.jpg,cupcake,x,sounds\greatgatsby_english.wav,,,,,,,,,0,1,1,0,0,95,95,163,801.91546262,8.98027792573e-06,802.654868988,0.739415989607,,,,,x,1,0.717085028184,2018_Nov_26_1107,59.9823013575,chinese_cond1,001,,
images\puma.jpg,puma,z,sounds\greatgatsby_english.wav,,,,,,,,,0,1,1,0,0,96,96,4,803.753357165,9.30088572204e-06,804.688745006,0.935397782712,,,,,z,1,0.917155715404,2018_Nov_26_1107,59.9823013575,chinese_cond1,001,,
images\panda.jpg,panda,z,sounds\greatgatsby_english.wav,,,,,,,,,0,1,1,0,0,97,97,83,805.797758661,8.98016151041e-06,807.189367528,1.39161816798,,,,,z,1,1.36725606956,2018_Nov_26_1107,59.9823013575,chinese_cond1,001,,
images\cactus.jpg,cactus,z,sounds\greatgatsby_english.wav,,,,,,,,,0,1,1,0,0,98,98,70,808.299477414,9.94233414531e-06,810.173480207,1.87401369738,,,,,z,1,1.85072185064,2018_Nov_26_1107,59.9823013575,chinese_cond1,001,,
images\axe01.jpg,axe,z,sounds\greatgatsby_english.wav,,,,,,,,,0,1,1,0,0,99,99,104,811.277073649,9.621726349e-06,812.707456932,1.43039386673,,,,,z,1,1.4172785522,2018_Nov_26_1107,59.9823013575,chinese_cond1,001,,
images\remotecontrol01c.jpg,remote control,z,sounds\greatgatsby_english.wav,,,,,,,,,0,1,1,0,0,100,100,85,813.816744485,9.621726349e-06,814.924704246,1.10797002399,,,,,z,1,1.08386354148,2018_Nov_26_1107,59.9823013575,chinese_cond1,001,,
images\ear.jpg,bullet,x,sounds\greatgatsby_english.wav,,,,,,,,,0,1,1,0,0,101,101,139,816.027953552,8.98016151041e-06,817.641885491,1.61394156038,,,,,x,1,1.60048756271,2018_Nov_26_1107,59.9823013575,chinese_cond1,001,,
images\screwdriver02b.jpg,cola,x,sounds\greatgatsby_english.wav,,,,,,,,,0,1,1,0,0,102,102,158,818.73548874,9.30088572204e-06,819.742581523,1.00710240484,,,,,x,1,0.98381665186,2018_Nov_26_1107,59.9823013575,chinese_cond1,001,,
images\knife04.jpg,tooth brush,x,sounds\greatgatsby_english.wav,,,,,,,,,0,1,1,0,0,103,103,233,820.838990455,9.621726349e-06,822.326590672,1.48761016026,,,,,x,1,1.46729205467,2018_Nov_26_1107,59.9823013575,chinese_cond1,001,,
images\hairdryer03a.jpg,hairdryer,z,sounds\greatgatsby_english.wav,,,,,,,,,0,1,1,0,0,104,104,119,823.425702335,9.30088572204e-06,825.210649406,1.78495637211,,,,,z,1,1.76735350501,2018_Nov_26_1107,59.9823013575,chinese_cond1,001,,
images\table02.jpg,table,z,sounds\greatgatsby_english.wav,,,,,,,,,0,1,1,0,0,105,105,49,826.324679165,9.30100213736e-06,828.3781863,2.05351675686,,,,,z,1,2.0341467075,2018_Nov_26_1107,59.9823013575,chinese_cond1,001,,
images\chessknight02b (1).jpg,cockroach,x,sounds\greatgatsby_english.wav,,,,,,,,,0,1,1,0,0,106,106,155,829.486115592,9.30100213736e-06,831.912386248,2.42628027708,,,,,x,1,2.41754058271,2018_Nov_26_1107,59.9823013575,chinese_cond1,001,,
images\ant.jpg,ant,z,sounds\greatgatsby_english.wav,,,,,,,,,0,1,1,0,0,107,107,98,833.005244137,9.30100213736e-06,834.229627532,1.22439333692,,,,,z,1,1.20054407406,2018_Nov_26_1107,59.9823013575,chinese_cond1,001,,
images\barrel01.jpg,barrel,z,sounds\greatgatsby_english.wav,,,,,,,,,0,1,1,0,0,108,108,9,835.359715557,8.98027792573e-06,836.596903165,1.23719722976,,,,,z,1,1.21721812803,2018_Nov_26_1107,59.9823013575,chinese_cond1,001,,
images\puzzle.jpg,puzzle,z,sounds\greatgatsby_english.wav,,,,,,,,,0,1,1,0,0,109,109,57,837.716367892,9.621726349e-06,838.897490922,1.18113329296,,,,,z,1,1.16720173904,2018_Nov_26_1107,59.9823013575,chinese_cond1,001,,
images\lollipop03b.jpg,lollipop,z,sounds\greatgatsby_english.wav,,,,,,,,,0,1,1,0,0,110,110,42,839.990119495,9.94233414531e-06,840.914701866,0.924593596137,,,,,z,1,0.900498980423,2018_Nov_26_1107,59.9823013575,chinese_cond1,001,,
images\radish01.jpg,raisin,x,sounds\greatgatsby_english.wav,,,,,,,,,0,1,1,0,0,111,111,214,842.025147869,9.621726349e-06,842.881844784,0.856706857448,,,,,x,1,0.833784483257,2018_Nov_26_1107,59.9823013575,chinese_cond1,001,,
images\lamp04b.jpg,parking meter,x,sounds\greatgatsby_english.wav,,,,,,,,,0,1,1,0,0,112,112,209,844.00161548,9.30100213736e-06,845.649225551,1.64762001287,,,,,x,1,1.63399186265,2018_Nov_26_1107,59.9823013575,chinese_cond1,001,,
images\cheetah.jpg,cheetah,z,sounds\greatgatsby_english.wav,,,,,,,,,0,1,1,0,0,113,113,82,846.749998236,9.30088572204e-06,847.66656318,0.916575207259,,,,,z,1,0.900618289248,2018_Nov_26_1107,59.9823013575,chinese_cond1,001,,
images\watermelon01.jpg,orange,x,sounds\greatgatsby_english.wav,,,,,,,,,0,1,1,0,0,114,114,207,848.795177485,9.94245056063e-06,850.00018185,1.20501462824,,,,,x,1,1.18371511099,2018_Nov_26_1107,59.9823013575,chinese_cond1,001,,
images\dreamcatcher.jpg,dream catcher,z,sounds\greatgatsby_english.wav,,,,,,,,,0,1,1,0,0,115,115,48,851.096742163,8.98016151041e-06,851.917493116,0.820760253933,,,,,z,1,0.800435733865,2018_Nov_26_1107,59.9823013575,chinese_cond1,001,,
images\daisy.jpg,daisy,z,sounds\greatgatsby_english.wav,,,,,,,,,0,1,1,0,0,116,116,6,853.01780396,8.6595537141e-06,854.251420321,1.23362534074,,,,,z,1,1.21721395862,2018_Nov_26_1107,59.9823013575,chinese_cond1,001,,
images\saltshaker03c.jpg,salt shaker,z,sounds\greatgatsby_english.wav,,,,,,,,,0,1,1,0,0,117,117,63,855.361149509,9.30100213736e-06,856.902102915,1.54096302774,,,,,z,1,1.5172837479,2018_Nov_26_1107,59.9823013575,chinese_cond1,001,,
images\blackolive.jpg,tank,x,sounds\greatgatsby_english.wav,,,,,,,,,0,1,1,0,0,118,118,229,858.01540303,9.62160993367e-06,859.886434006,1.87104059767,,,,,x,1,1.85093865916,2018_Nov_26_1107,59.9823013575,chinese_cond1,001,,
images\butterfly.jpg,butterfly,z,sounds\greatgatsby_english.wav,,,,,,,,,0,1,1,0,0,119,119,91,860.992176611,9.30088572204e-06,863.47045855,2.47829188209,,,,,z,1,2.46753259667,2018_Nov_26_1107,59.9823013575,chinese_cond1,001,,
images\screw03c.jpg,screw,z,sounds\greatgatsby_english.wav,,,,,,,,,0,1,1,0,0,120,120,84,864.562560817,8.98016151041e-06,865.637698135,1.07514693914,,,,,z,1,1.05052505515,2018_Nov_26_1107,59.9823013575,chinese_cond1,001,,
images\blueberry02.jpg,blueberry,z,sounds\greatgatsby_english.wav,,,,,,,,,0,1,1,0,0,121,121,46,866.749400409,8.98016151041e-06,867.838253755,1.08886296733,,,,,z,1,1.06718467665,2018_Nov_26_1107,59.9823013575,chinese_cond1,001,,
images\shotglass.jpg,shot glass,z,sounds\greatgatsby_english.wav,,,,,,,,,0,1,1,0,0,122,122,86,868.944769942,8.98016151041e-06,870.072150427,1.12739010598,,,,,z,1,1.11709618918,2018_Nov_26_1107,59.9823013575,chinese_cond1,001,,
images\8ball.jpg,nail clipper,x,sounds\greatgatsby_english.wav,,,,,,,,,0,1,1,0,0,123,123,206,871.187945444,9.30100213736e-06,872.25603969,1.06810418877,,,,,x,1,1.05049811443,2018_Nov_26_1107,59.9823013575,chinese_cond1,001,,
images\grasshopper.jpg,cauliflower,x,sounds\greatgatsby_english.wav,,,,,,,,,0,1,1,0,0,124,124,148,873.348222458,9.30088572204e-06,874.423274784,1.07506194757,,,,,x,1,1.05052473443,2018_Nov_26_1107,59.9823013575,chinese_cond1,001,,
images\lettuce.jpg,mushroom,x,sounds\greatgatsby_english.wav,,,,,,,,,0,1,1,0,0,125,125,205,875.545433261,9.30088572204e-06,876.357090763,0.811667443835,,,,,x,1,0.80043990328,2018_Nov_26_1107,59.9823013575,chinese_cond1,001,,
images\mirror02.jpg,8 ball,x,sounds\greatgatsby_english.wav,,,,,,,,,0,1,1,0,0,126,126,121,877.456923089,9.30100213736e-06,878.457628679,1.00071521173,,,,,x,1,0.983823707793,2018_Nov_26_1107,59.9823013575,chinese_cond1,001,,
images\leek.jpg,donut,x,sounds\greatgatsby_english.wav,,,,,,,,,0,1,1,0,0,127,127,169,879.556993391,9.30088572204e-06,880.641519546,1.08453545556,,,,,x,1,1.06717345142,2018_Nov_26_1107,59.9823013575,chinese_cond1,001,,
images\envelope02a.jpg,grand piano,x,sounds\greatgatsby_english.wav,,,,,,,,,0,1,1,0,0,128,128,182,881.762613544,8.98027792573e-06,882.908781966,1.14617836417,,,,,x,1,1.13385908341,2018_Nov_26_1107,59.9823013575,chinese_cond1,001,,
images\belt02a.jpg,snowman,x,sounds\greatgatsby_english.wav,,,,,,,,,0,1,1,0,0,129,129,224,884.011563017,9.30100213736e-06,885.176021293,1.16446821927,,,,,x,1,1.15052608156,2018_Nov_26_1107,59.9823013575,chinese_cond1,001,,
images\bed.jpg,bed,z,sounds\greatgatsby_english.wav,,,,,,,,,0,1,1,0,0,130,130,103,886.293653731,8.65943729877e-06,887.726674638,1.43303084897,,,,,z,1,1.41727053409,2018_Nov_26_1107,59.9823013575,chinese_cond1,001,,
images\snowman.jpg,globe,x,sounds\greatgatsby_english.wav,,,,,,,,,0,1,1,0,0,131,131,180,888.836475989,9.30088572204e-06,890.460706655,1.62424092949,,,,,x,1,1.60065016907,2018_Nov_26_1107,59.9823013575,chinese_cond1,001,,
images\headphones02b.jpg,headphones,z,sounds\greatgatsby_english.wav,,,,,,,,,0,1,1,0,0,132,132,101,891.567009883,9.621726349e-06,893.028026356,1.46102641535,,,,,z,1,1.45059587073,2018_Nov_26_1107,59.9823013575,chinese_cond1,001,,
images\mattress.jpg,cat,x,sounds\greatgatsby_english.wav,,,,,,,,,0,1,1,0,0,133,133,147,894.131994722,9.30100213736e-06,895.111895349,0.979910569731,,,,,x,1,0.967149333097,2018_Nov_26_1107,59.9823013575,chinese_cond1,001,,
images\ladder.jpg,ladder,z,sounds\greatgatsby_english.wav,,,,,,,,,0,1,1,0,0,134,134,113,896.202813508,9.30100213736e-06,897.262457673,1.05965378624,,,,,z,1,1.05051543354,2018_Nov_26_1107,59.9823013575,chinese_cond1,001,,
images\treadmill.jpg,lily,x,sounds\greatgatsby_english.wav,,,,,,,,,0,1,1,0,0,135,135,199,898.366440472,9.621726349e-06,899.09624825,0.729818041204,,,,,x,1,0.717084065895,2018_Nov_26_1107,59.9823013575,chinese_cond1,001,,
images\egg01b (1).jpg,egg,z,sounds\greatgatsby_english.wav,,,,,,,,,0,1,1,0,0,136,136,19,900.207065329,9.94245056063e-06,901.130114966,0.923059258726,,,,,z,1,0.900479416247,2018_Nov_26_1107,59.9823013575,chinese_cond1,001,,
images\tulip02.jpg,sport shorts,x,sounds\greatgatsby_english.wav,,,,,,,,,0,1,1,0,0,137,137,225,902.223079336,9.30100213736e-06,904.31425728,2.09118788654,,,,,x,1,2.06743419892,2018_Nov_26_1107,59.9823013575,chinese_cond1,001,,
images\hammer02a.jpg,flower,x,sounds\greatgatsby_english.wav,,,,,,,,,0,1,1,0,0,138,138,176,905.407731919,9.30100213736e-06,906.281425536,0.87370355858,,,,,x,1,0.850454047206,2018_Nov_26_1107,59.9823013575,chinese_cond1,001,,
images\dragonfly02.jpg,dragon fly,z,sounds\greatgatsby_english.wav,,,,,,,,,0,1,1,0,0,139,139,29,907.377010851,9.30088572204e-06,908.265270411,0.888269501971,,,,,z,1,0.867128742626,2018_Nov_26_1107,59.9823013575,chinese_cond1,001,,
images\stapler03a.jpg,candy cane,x,sounds\greatgatsby_english.wav,,,,,,,,,0,1,1,0,0,140,140,145,909.375946373,9.94245056063e-06,910.682556019,1.30661926814,,,,,x,1,1.28390055278,2018_Nov_26_1107,59.9823013575,chinese_cond1,001,,
images\ostrich.jpg,ostrich,z,sounds\greatgatsby_english.wav,,,,,,,,,0,1,1,0,0,141,141,76,911.781124056,9.30100213736e-06,912.766433352,0.985318917083,,,,,z,1,0.967159596155,2018_Nov_26_1107,59.9823013575,chinese_cond1,001,,
images\plant01.jpg,plant,z,sounds\greatgatsby_english.wav,,,,,,,,,0,1,1,0,0,142,142,47,913.876412383,9.621726349e-06,914.950310107,1.07390766649,,,,,z,1,1.05050356674,2018_Nov_26_1107,59.9823013575,chinese_cond1,001,,
images\scissors04a.jpg,leek,x,sounds\greatgatsby_english.wav,,,,,,,,,0,1,1,0,0,143,143,194,916.043192051,9.30088572204e-06,917.467624003,1.42444157356,,,,,x,1,1.40059038647,2018_Nov_26_1107,59.9823013575,chinese_cond1,001,,
images\microphone01.jpg,diaper,x,sounds\greatgatsby_english.wav,,,,,,,,,0,1,1,0,0,144,144,164,918.565103507,8.98016151041e-06,920.518405957,1.95331239223,,,,,x,1,1.93406261411,2018_Nov_26_1107,59.9823013575,chinese_cond1,001,,
images\fryingpan01.jpg,frying pan,z,sounds\greatgatsby_english.wav,,,,,,,,,0,1,1,0,0,145,145,45,921.617046157,8.98016151041e-06,922.985707633,1.36867077742,,,,,z,1,1.35058586416,2018_Nov_26_1107,59.9823013575,chinese_cond1,001,,
images\cauliflower01.jpg,glue stick,x,sounds\greatgatsby_english.wav,,,,,,,,,0,1,1,0,0,146,146,181,924.100090508,9.621726349e-06,926.019824193,1.91974362708,,,,,x,1,1.90073214588,2018_Nov_26_1107,59.9823013575,chinese_cond1,001,,
images\djmixer01.jpg,light bulb,x,sounds\greatgatsby_english.wav,,,,,,,,,0,1,1,0,0,147,147,196,927.139385457,9.30100213736e-06,928.270387542,1.13101170701,,,,,x,1,1.11718470871,2018_Nov_26_1107,59.9823013575,chinese_cond1,001,,
images\honeycomb.jpg,honey comb,z,sounds\greatgatsby_english.wav,,,,,,,,,0,1,1,0,0,148,148,59,929.382440046,8.98027792573e-06,930.354261026,0.971830281196,,,,,z,1,0.950480089872,2018_Nov_26_1107,59.9823013575,chinese_cond1,001,,
images\cigar.jpg,crocodile,x,sounds\greatgatsby_english.wav,,,,,,,,,0,1,1,0,0,149,149,162,931.452584672,1.05837825686e-05,932.33811841,0.88554528309,,,,,x,1,0.867134515545,2018_Nov_26_1107,59.9823013575,chinese_cond1,001,,
images\dolphin01.jpg,dolphin,z,sounds\greatgatsby_english.wav,,,,,,,,,0,1,1,0,0,150,150,99,933.437741945,8.98016151041e-06,935.255517874,1.81778522988,,,,,z,1,1.8007006509,2018_Nov_26_1107,59.9823013575,chinese_cond1,001,,
images\pen03c.jpg,pepper,x,sounds\greatgatsby_english.wav,,,,,,,,,0,1,1,0,0,151,151,211,936.34744214,9.62160993367e-06,938.75642552,2.4089930011,,,,,x,1,2.40086268005,2018_Nov_26_1107,59.9823013575,chinese_cond1,001,,
images\50dollarbill.jpg,cherry,x,sounds\greatgatsby_english.wav,,,,,,,,,0,1,1,0,0,152,152,151,939.875874531,8.98016151041e-06,941.140367189,1.26450260077,,,,,x,1,1.25056848105,2018_Nov_26_1107,59.9823013575,chinese_cond1,001,,
images\parkbench03.jpg,park bench,z,sounds\greatgatsby_english.wav,,,,,,,,,0,1,1,0,0,153,153,71,942.24550042,9.30100213736e-06,943.841115884,1.59562508541,,,,,z,1,1.58403544885,2018_Nov_26_1107,59.9823013575,chinese_cond1,001,,
images\hairpin.jpg,hair pin,z,sounds\greatgatsby_english.wav,,,,,,,,,0,1,1,0,0,154,154,28,944.930802468,9.30100213736e-06,945.79157641,0.86078356416,,,,,z,1,0.850470724748,2018_Nov_26_1107,59.9823013575,chinese_cond1,001,,
images\cloud.jpg,ceiling fan,x,sounds\greatgatsby_english.wav,,,,,,,,,0,1,1,0,0,155,155,149,946.895201924,9.30088572204e-06,947.758720611,0.863528309157,,,,,x,1,0.850454688654,2018_Nov_26_1107,59.9823013575,chinese_cond1,001,,
images\floorlamp.jpg,floor lamp,z,sounds\greatgatsby_english.wav,,,,,,,,,0,1,1,0,0,156,156,26,948.850057313,8.98016151041e-06,950.292701826,1.44265477592,,,,,z,1,1.43393207993,2018_Nov_26_1107,59.9823013575,chinese_cond1,001,,
images\flamingo.jpg,flamingo,z,sounds\greatgatsby_english.wav,,,,,,,,,0,1,1,0,0,157,157,52,951.389289721,9.30100213736e-06,952.393241666,1.00396188791,,,,,z,1,0.983823066344,2018_Nov_26_1107,59.9823013575,chinese_cond1,001,,
images\parrot01.jpg,chameleon,x,sounds\greatgatsby_english.wav,,,,,,,,,0,1,1,0,0,158,158,150,953.504820142,9.621726349e-06,954.527134105,1.02232390561,,,,,x,1,1.00050513819,2018_Nov_26_1107,59.9823013575,chinese_cond1,001,,
images\binder03b.jpg,dj mixer,x,sounds\greatgatsby_english.wav,,,,,,,,,0,1,1,0,0,159,159,167,955.63813111,8.65943729877e-06,956.461078372,0.822956563206,,,,,x,1,0.800561136566,2018_Nov_26_1107,59.9823013575,chinese_cond1,001,,
images\basketball01.jpg,basket ball,z,sounds\greatgatsby_english.wav,,,,,,,,,0,1,1,0,0,160,160,33,957.598621598,8.6595537141e-06,958.57817392,0.979561302694,,,,,z,1,0.96716119966,2018_Nov_26_1107,59.9823013575,chinese_cond1,001,,
images\handfan01b.jpg,handfan,z,sounds\greatgatsby_english.wav,,,,,,,,,0,1,1,0,0,161,161,69,959.691283847,9.94233414531e-06,960.645357955,0.95408373035,,,,,z,1,0.933811488096,2018_Nov_26_1107,59.9823013575,chinese_cond1,001,,
images\glasses01b.jpg,calculator,x,sounds\greatgatsby_english.wav,,,,,,,,,0,1,1,0,0,162,162,142,961.736507034,8.98027792573e-06,962.495833491,0.759336078307,,,,,x,1,0.750427363091,2018_Nov_26_1107,59.9823013575,chinese_cond1,001,,
images\key03b.jpg,cigar,x,sounds\greatgatsby_english.wav,,,,,,,,,0,1,1,0,0,163,163,153,963.597084374,8.98027792573e-06,964.546358546,0.949283794151,,,,,x,1,0.933811167371,2018_Nov_26_1107,59.9823013575,chinese_cond1,001,,
images\cat.jpg,black olive,x,sounds\greatgatsby_english.wav,,,,,,,,,0,1,1,0,0,164,164,133,965.675431484,8.98027792573e-06,966.796934725,1.12151350337,,,,,x,1,1.10051931429,2018_Nov_26_1107,59.9823013575,chinese_cond1,001,,
images\lily.jpg,kiwi,x,sounds\greatgatsby_english.wav,,,,,,,,,0,1,1,0,0,165,165,190,967.894933479,9.621726349e-06,969.330926202,1.43600362807,,,,,x,1,1.41727406217,2018_Nov_26_1107,59.9823013575,chinese_cond1,001,,
images\ladybug03.jpg,giraffe,x,sounds\greatgatsby_english.wav,,,,,,,,,0,1,1,0,0,166,166,178,970.432712371,9.30100213736e-06,971.814888142,1.38218635402,,,,,x,1,1.36725671089,2018_Nov_26_1107,59.9823013575,chinese_cond1,001,,
images\candycane01a.jpg,lip,x,sounds\greatgatsby_english.wav,,,,,,,,,0,1,1,0,0,167,167,200,972.907153977,8.98027792573e-06,974.098812107,1.19166807248,,,,,x,1,1.16721488873,2018_Nov_26_1107,59.9823013575,chinese_cond1,001,,
images\scooter.jpg,pen,x,sounds\greatgatsby_english.wav,,,,,,,,,0,1,1,0,0,168,168,212,975.19049519,9.621726349e-06,977.082903618,1.89241837128,,,,,x,1,1.88405328093,2018_Nov_26_1107,59.9823013575,chinese_cond1,001,,
images\apple06.jpg,apple,z,sounds\greatgatsby_english.wav,,,,,,,,,0,1,1,0,0,169,169,13,978.208270926,9.30100213736e-06,979.383505487,1.17524482368,,,,,z,1,1.15054660768,2018_Nov_26_1107,59.9823013575,chinese_cond1,001,,
images\giraffe.jpg,lettuce,x,sounds\greatgatsby_english.wav,,,,,,,,,0,1,1,0,0,170,170,195,980.482735816,9.30088572204e-06,981.717422428,1.23469623388,,,,,x,1,1.21721427934,2018_Nov_26_1107,59.9823013575,chinese_cond1,001,,
images\banana04a.jpg,banana,z,sounds\greatgatsby_english.wav,,,,,,,,,0,1,1,0,0,171,171,118,982.822553415,9.30088572204e-06,983.701264417,0.87872062414,,,,,z,1,0.867121365969,2018_Nov_26_1107,59.9823013575,chinese_cond1,001,,
images\bicycle.jpg,hand bag,x,sounds\greatgatsby_english.wav,,,,,,,,,0,1,1,0,0,172,172,186,984.80975305,8.65943729877e-06,985.7184481,0.908704350702,,,,,x,1,0.900465304614,2018_Nov_26_1107,59.9823013575,chinese_cond1,001,,
images\licenseplate.jpg,license plate,z,sounds\greatgatsby_english.wav,,,,,,,,,0,1,1,0,0,173,173,40,986.834370123,9.30100213736e-06,988.002381687,1.16802118567,,,,,x,0,1.15054307983,2018_Nov_26_1107,59.9823013575,chinese_cond1,001,,
images\redfox.jpg,red fox,z,sounds\greatgatsby_english.wav,,,,,,,,,0,1,1,0,0,174,174,1,989.11331583,9.30100213736e-06,990.553018674,1.43971310707,,,,,z,1,1.4172612332,2018_Nov_26_1107,59.9823013575,chinese_cond1,001,,
images\cola.jpg,comb,x,sounds\greatgatsby_english.wav,,,,,,,,,0,1,1,0,0,175,175,157,991.672234199,9.621726349e-06,993.58714229,1.91491835366,,,,,x,1,1.90072958008,2018_Nov_26_1107,59.9823013575,chinese_cond1,001,,
images\parkingmeter.jpg,ear,x,sounds\greatgatsby_english.wav,,,,,,,,,0,1,1,0,0,176,176,171,994.687102264,9.30088572204e-06,995.637656761,0.95056411915,,,,,x,1,0.933809563867,2018_Nov_26_1107,59.9823013575,chinese_cond1,001,,
images\razor04a.jpg,razor,z,sounds\greatgatsby_english.wav,,,,,,,,,0,1,1,0,0,177,177,36,996.736270341,9.30088572204e-06,998.355017932,1.61875785363,,,,,z,1,1.60064407543,2018_Nov_26_1107,59.9823013575,chinese_cond1,001,,
images\pipe.jpg,icecube,x,sounds\greatgatsby_english.wav,,,,,,,,,0,1,1,0,0,178,178,188,999.46327372,8.6595537141e-06,1001.30577641,1.84251199022,,,,,x,1,1.83404106146,2018_Nov_26_1107,59.9823013575,chinese_cond1,001,,
images\crocodile.jpg,triangle ruler,x,sounds\greatgatsby_english.wav,,,,,,,,,0,1,1,0,0,179,179,235,1002.40179823,8.65943729877e-06,1004.75667183,2.35488290736,,,,,x,1,2.33417480288,2018_Nov_26_1107,59.9823013575,chinese_cond1,001,,
images\diaper01a.jpg,camera,x,sounds\greatgatsby_english.wav,,,,,,,,,0,1,1,0,0,180,180,143,1005.8766959,9.621726349e-06,1006.90720946,1.03052382369,,,,,x,1,1.01716026966,2018_Nov_26_1107,59.9823013575,chinese_cond1,001,,
images\nailpolish02b.jpg,nail polish,z,sounds\greatgatsby_english.wav,,,,,,,,,0,1,1,0,0,181,181,94,1008.01383887,9.621726349e-06,1009.09110354,1.07727429294,,,,,z,1,1.06717248913,2018_Nov_26_1107,59.9823013575,chinese_cond1,001,,
images\rubberglove02a.jpg,lady bug,x,sounds\greatgatsby_english.wav,,,,,,,,,0,1,1,0,0,182,182,192,1010.19372358,8.98016151041e-06,1011.54174816,1.34803483565,,,,,x,1,1.33388358657,2018_Nov_26_1107,59.9823013575,chinese_cond1,001,,
images\computermouse02a.jpg,world map,x,sounds\greatgatsby_english.wav,,,,,,,,,0,1,1,0,0,183,183,239,1012.6413919,9.621726349e-06,1013.99237482,1.35099318216,,,,,x,1,1.33392752556,2018_Nov_26_1107,59.9823013575,chinese_cond1,001,,
images\lightswitch02a.jpg,fork,x,sounds\greatgatsby_english.wav,,,,,,,,,0,1,1,0,0,184,184,177,1015.10196417,8.98027792573e-06,1016.72641357,1.6244587003,,,,,x,1,1.60066075285,2018_Nov_26_1107,59.9823013575,chinese_cond1,001,,
images\hairband.jpg,hairband,z,sounds\greatgatsby_english.wav,,,,,,,,,0,1,1,0,0,185,185,66,1017.83469662,9.30100213736e-06,1019.57730123,1.74261423666,,,,,z,1,1.73418692616,2018_Nov_26_1107,59.9823013575,chinese_cond1,001,,
images\doorhandle.jpg,doll,x,sounds\greatgatsby_english.wav,,,,,,,,,0,1,1,0,0,186,186,168,1020.67840041,9.621726349e-06,1021.7776981,1.09930730308,,,,,x,1,1.08385616494,2018_Nov_26_1107,59.9823013575,chinese_cond1,001,,
images\aquarium.jpg,computer mouse,x,sounds\greatgatsby_english.wav,,,,,,,,,0,1,1,0,0,187,187,159,1022.91271178,9.621726349e-06,1023.9615957,1.04889385938,,,,,x,1,1.03383528581,2018_Nov_26_1107,59.9823013575,chinese_cond1,001,,
images\printer03a.jpg,printer,z,sounds\greatgatsby_english.wav,,,,,,,,,0,1,1,0,0,188,188,72,1025.06938804,9.62160993367e-06,1026.01210857,0.94273078721,,,,,z,1,0.933802828658,2018_Nov_26_1107,59.9823013575,chinese_cond1,001,,
images\weight01.jpg,weight,z,sounds\greatgatsby_english.wav,,,,,,,,,0,1,1,0,0,189,189,67,1027.11523022,1.02630583569e-05,1028.16265934,1.04743938183,,,,,z,1,1.03383688931,2018_Nov_26_1107,59.9823013575,chinese_cond1,001,,
images\raisin.jpg,ruler,x,sounds\greatgatsby_english.wav,,,,,,,,,0,1,1,0,0,190,190,218,1029.26638236,9.94245056063e-06,1030.01313199,0.746759578004,,,,,x,1,0.733753309003,2018_Nov_26_1107,59.9823013575,chinese_cond1,001,,
images\squirrel.jpg,binder,x,sounds\greatgatsby_english.wav,,,,,,,,,0,1,1,0,0,191,191,132,1031.11465004,9.30100213736e-06,1032.36373229,1.24909187353,,,,,x,1,1.23388256028,2018_Nov_26_1107,59.9823013575,chinese_cond1,001,,
images\electrictoothbrush01a.jpg,banjo,x,sounds\greatgatsby_english.wav,,,,,,,,,0,1,1,0,0,192,192,127,1033.4573102,9.30100213736e-06,1034.31424541,0.856944833766,,,,,x,1,0.833787049167,2018_Nov_26_1107,59.9823013575,chinese_cond1,001,,
images\swallow.jpg,mattress,x,sounds\greatgatsby_english.wav,,,,,,,,,0,1,1,0,0,193,193,202,1035.41428076,9.30100213736e-06,1036.11469333,0.700421878719,,,,,x,1,0.683741089422,2018_Nov_26_1107,59.9823013575,chinese_cond1,001,,
images\lip.jpg,boxing glove,x,sounds\greatgatsby_english.wav,,,,,,,,,0,1,1,0,0,194,194,136,1037.21616391,8.98027792573e-06,1038.44862631,1.23247234244,,,,,x,1,1.2172097892,2018_Nov_26_1107,59.9823013575,chinese_cond1,001,,
images\volleyball.jpg,volley ball,z,sounds\greatgatsby_english.wav,,,,,,,,,0,1,1,0,0,195,195,2,1039.57961621,9.30088572204e-06,1040.56607818,0.98647127382,,,,,z,1,0.967389874975,2018_Nov_26_1107,59.9823013575,chinese_cond1,001,,
images\ruler02b.jpg,watermelon,x,sounds\greatgatsby_english.wav,,,,,,,,,0,1,1,0,0,196,196,238,1041.66661353,9.30100213736e-06,1042.39964586,0.733041946078,,,,,x,1,0.717093046056,2018_Nov_26_1107,59.9823013575,chinese_cond1,001,,
images\peach01.jpg,peach,z,sounds\greatgatsby_english.wav,,,,,,,,,0,1,1,0,0,197,197,106,1043.52775182,9.30088572204e-06,1044.55018894,1.0224467424,,,,,z,1,1.00049166789,2018_Nov_26_1107,59.9823013575,chinese_cond1,001,,
images\kiwi03.jpg,backpack,x,sounds\greatgatsby_english.wav,,,,,,,,,0,1,1,0,0,198,198,125,1045.67769418,9.30100213736e-06,1046.63407333,0.956388764665,,,,,x,1,0.933820147649,2018_Nov_26_1107,59.9823013575,chinese_cond1,001,,
images\sportshorts02.jpg,tape,x,sounds\greatgatsby_english.wav,,,,,,,,,0,1,1,0,0,199,199,230,1047.74055007,8.98027792573e-06,1049.6515123,1.91097153968,,,,,z,0,1.90073631529,2018_Nov_26_1107,59.9823013575,chinese_cond1,001,,
images\diploma01.jpg,glasses,x,sounds\greatgatsby_english.wav,,,,,,,,,0,1,1,0,0,200,200,179,1050.78071129,9.30088572204e-06,1051.9187558,1.13805445738,,,,,x,1,1.11720106564,2018_Nov_26_1107,59.9823013575,chinese_cond1,001,,
,,,sounds\greatgatsby_english.wav,,,,,,,,,0,1,1,0,,,,,,,,,,,,,,,,2018_Nov_26_1107,59.9823013575,chinese_cond1,001,,
