images,name,corrAns,sounds,trials_3.thisRepN,trials_3.thisTrialN,trials_3.thisN,trials_3.thisIndex,trials_4.thisRepN,trials_4.thisTrialN,trials_4.thisN,trials_4.thisIndex,trials_2.thisRepN,trials_2.thisTrialN,trials_2.thisN,trials_2.thisIndex,trials.thisRepN,trials.thisTrialN,trials.thisN,trials.thisIndex,begin_global,begin_routine,end_global,end_routine,key_resp_2.keys,key_resp_2.corr,begin_book,key_resp_1.keys,key_resp_1.corr,key_resp_1.rt,date,frameRate,expName,session,participant,
images/volleyball.jpg,volley ball,z,,0,0,0,0,,,,,,,,,,,,,,,,,,,,,,,2018_Nov_26_1107,59.9881485422,spanish_cond2,001,1044,
images/puma.jpg,puma,z,,,,,,0,0,0,0,,,,,,,,,48.1823840169,9.94233414531e-06,51.0029397069,2.82056691509,None,0,,,,,2018_Nov_26_1107,59.9881485422,spanish_cond2,001,1044,
images/envelope02a.jpg,grand piano,x,sounds/greatgatsby_spanish.wav,,,,,,,,,0,0,0,0,0,0,0,182,93.2048304714,9.62160993367e-06,94.4804153178,1.27559543017,,,82.9992193709,x,1,1.26721665636,2018_Nov_26_1107,59.9881485422,spanish_cond2,001,1044,
images/toothbrush03a.jpg,parrot,x,sounds/greatgatsby_spanish.wav,,,,,,,,,0,0,0,0,0,1,1,210,95.5811325088,8.98016151041e-06,96.4308793655,0.849757119897,,,,x,1,0.833773786901,2018_Nov_26_1107,59.9881485422,spanish_cond2,001,1044,
images/hanger02a.jpg,hanger,z,sounds/greatgatsby_spanish.wav,,,,,,,,,0,0,0,0,0,2,2,88,97.5256664694,9.94221772999e-06,98.2980162271,0.772359379334,,,,z,1,0.750433451147,2018_Nov_26_1107,59.9881485422,spanish_cond2,001,1044,
images/nailclipper03a.jpg,aquarium,x,sounds/greatgatsby_spanish.wav,,,,,,,,,0,0,0,0,0,3,3,123,99.3987783187,8.98016151041e-06,100.298493777,0.899724759278,,,,x,1,0.883797872812,2018_Nov_26_1107,59.9881485422,spanish_cond2,001,1044,
images/banjo.jpg,knife,x,sounds/greatgatsby_spanish.wav,,,,,,,,,0,0,0,0,0,4,4,191,101.395168631,9.30088572204e-06,102.298979987,0.903821298154,,,,x,1,0.883793062065,2018_Nov_26_1107,59.9881485422,spanish_cond2,001,1044,
images/lion.jpg,lion,z,sounds/greatgatsby_spanish.wav,,,,,,,,,0,0,0,0,0,5,5,44,103.412267423,8.65943729877e-06,104.049400609,0.637143128435,,,,z,1,0.61706101161,2018_Nov_26_1107,59.9881485422,spanish_cond2,001,1044,
images/globe.jpg,cloud,x,sounds/greatgatsby_spanish.wav,,,,,,,,,0,0,0,0,0,6,6,154,105.178473816,9.30088572204e-06,106.049908627,0.871444753953,,,,x,1,0.850469756522,2018_Nov_26_1107,59.9881485422,spanish_cond2,001,1044,
images/lemon02.jpg,lemon,z,sounds/greatgatsby_spanish.wav,,,,,,,,,0,0,0,0,0,7,7,14,107.162845518,8.98016151041e-06,107.850325433,0.687489857315,,,,z,1,0.667067458038,2018_Nov_26_1107,59.9881485422,spanish_cond2,001,1044,
images/dryingmachine01.jpg,drying machine,z,sounds/greatgatsby_spanish.wav,,,,,,,,,0,0,0,0,0,8,8,18,108.972228013,9.30088572204e-06,110.584345147,1.61212771782,,,,z,1,1.60064150137,2018_Nov_26_1107,59.9881485422,spanish_cond2,001,1044,
images/butterfly.jpg,butterfly,z,sounds/greatgatsby_spanish.wav,,,,,,,,,0,0,0,0,0,9,9,91,111.692896211,8.98016151041e-06,112.418232468,0.725346199702,,,,z,1,0.700540539226,2018_Nov_26_1107,59.9881485422,spanish_cond2,001,1044,
images/axe01.jpg,axe,z,sounds/greatgatsby_spanish.wav,,,,,,,,,0,0,0,0,0,10,10,104,113.521711367,9.62149351835e-06,114.585300889,1.06359978416,,,,z,1,1.05050067382,2018_Nov_26_1107,59.9881485422,spanish_cond2,001,1044,
images/cake.jpg,cake,z,sounds/greatgatsby_spanish.wav,,,,,,,,,0,0,0,0,0,11,11,23,115.700002694,8.98016151041e-06,116.668994015,0.969000942307,,,,z,1,0.950316196424,2018_Nov_26_1107,59.9881485422,spanish_cond2,001,1044,
images/floorlamp.jpg,floor lamp,z,sounds/greatgatsby_spanish.wav,,,,,,,,,0,0,0,0,0,12,12,26,117.762401708,9.30076930672e-06,118.969708127,1.20731796487,,,,z,1,1.18386060547,2018_Nov_26_1107,59.9881485422,spanish_cond2,001,1044,
images/cauliflower01.jpg,glue stick,x,sounds/greatgatsby_spanish.wav,,,,,,,,,0,0,0,0,0,13,13,181,120.168721404,8.98016151041e-06,120.986863686,0.818151903921,,,,x,1,0.800436049001,2018_Nov_26_1107,59.9881485422,spanish_cond2,001,1044,
images/razor04a.jpg,razor,z,sounds/greatgatsby_spanish.wav,,,,,,,,,0,0,0,0,0,14,14,36,122.087724239,9.62160993367e-06,123.054027296,0.966312358156,,,,z,1,0.950470462092,2018_Nov_26_1107,59.9881485422,spanish_cond2,001,1044,
images/bed.jpg,bed,z,sounds/greatgatsby_spanish.wav,,,,,,,,,0,0,0,0,0,15,15,103,124.174252838,9.30088572204e-06,125.104528932,0.930285715382,,,,z,1,0.917093917262,2018_Nov_26_1107,59.9881485422,spanish_cond2,001,1044,
images/pingpongpaddle01c (1).jpg,ping pong paddle,z,sounds/greatgatsby_spanish.wav,,,,,,,,,0,0,0,0,0,16,16,10,126.216578394,9.62160993367e-06,127.221712779,1.0051443266,,,,z,1,0.983816859429,2018_Nov_26_1107,59.9881485422,spanish_cond2,001,1044,
images/electrictoothbrush01a.jpg,banjo,x,sounds/greatgatsby_spanish.wav,,,,,,,,,0,0,0,0,0,17,17,127,128.317703539,8.65943729877e-06,129.322221502,1.0045269432,,,,x,1,0.983812048682,2018_Nov_26_1107,59.9881485422,spanish_cond2,001,1044,
images/gorilla.jpg,gorilla,z,sounds/greatgatsby_spanish.wav,,,,,,,,,0,0,0,0,0,18,18,80,130.505857284,9.94233414531e-06,131.222692895,0.716846194235,,,,z,1,0.700416100328,2018_Nov_26_1107,59.9881485422,spanish_cond2,001,1044,
images/lightswitch02a.jpg,fork,x,sounds/greatgatsby_spanish.wav,,,,,,,,,0,0,0,0,0,19,19,177,132.335440241,9.62160993367e-06,133.05647053,0.721039590193,,,,x,1,0.700409365236,2018_Nov_26_1107,59.9881485422,spanish_cond2,001,1044,
images/parrot01.jpg,chameleon,x,sounds/greatgatsby_spanish.wav,,,,,,,,,0,0,0,0,0,20,20,150,134.171052066,8.65932088345e-06,134.956929414,0.785886649042,,,,x,1,0.767093821079,2018_Nov_26_1107,59.9881485422,spanish_cond2,001,1044,
images/puzzle.jpg,puzzle,z,sounds/greatgatsby_spanish.wav,,,,,,,,,0,0,0,0,0,21,21,57,136.077789979,9.30076930672e-06,137.024100721,0.946320363204,,,,z,1,0.933808488655,2018_Nov_26_1107,59.9881485422,spanish_cond2,001,1044,
images/bull.jpg,button,x,sounds/greatgatsby_spanish.wav,,,,,,,,,0,0,0,0,0,22,22,141,138.131569039,8.65943729877e-06,139.007914694,0.876354955952,,,,x,1,0.867118259775,2018_Nov_26_1107,59.9881485422,spanish_cond2,001,1044,
images/lighter02b.jpg,stapler,x,sounds/greatgatsby_spanish.wav,,,,,,,,,0,0,0,0,0,23,23,227,140.110592759,9.30088572204e-06,141.291814491,1.18123167497,,,,x,1,1.16719991481,2018_Nov_26_1107,59.9881485422,spanish_cond2,001,1044,
images/aloe02.jpg,broad sword,x,sounds/greatgatsby_spanish.wav,,,,,,,,,0,0,0,0,0,24,24,137,142.413093915,8.65943729877e-06,143.976023076,1.56293846248,,,,x,1,1.55083454191,2018_Nov_26_1107,59.9881485422,spanish_cond2,001,1044,
images/wallet01.jpg,lamp,x,sounds/greatgatsby_spanish.wav,,,,,,,,,0,0,0,0,0,25,25,193,145.083690881,8.98016151041e-06,145.909589102,0.825907521416,,,,x,1,0.817093853257,2018_Nov_26_1107,59.9881485422,spanish_cond2,001,1044,
images/eyedrops.jpg,bicycle,x,sounds/greatgatsby_spanish.wav,,,,,,,,,0,0,0,0,0,26,26,131,147.011386152,8.98016151041e-06,147.943423953,0.932047422742,,,,x,1,0.917122461251,2018_Nov_26_1107,59.9881485422,spanish_cond2,001,1044,
images/bench02.jpg,electric toothbrush,x,sounds/greatgatsby_spanish.wav,,,,,,,,,0,0,0,0,0,27,27,172,149.053274569,8.98016151041e-06,150.577389723,1.52412509569,,,,x,1,1.5005984609,2018_Nov_26_1107,59.9881485422,spanish_cond2,001,1044,
images/cactus.jpg,cactus,z,sounds/greatgatsby_spanish.wav,,,,,,,,,0,0,0,0,0,28,28,70,151.690464843,8.98004509509e-06,152.51122002,0.820764798438,,,,z,1,0.80044983991,2018_Nov_26_1107,59.9881485422,spanish_cond2,001,1044,
images/icecube02 (2).jpg,aloe,x,sounds/greatgatsby_spanish.wav,,,,,,,,,0,0,0,0,0,29,29,122,153.622932087,8.98004509509e-06,154.461675408,0.838752943324,,,,x,1,0.81710924767,2018_Nov_26_1107,59.9881485422,spanish_cond2,001,1044,
images/hammer02a.jpg,flower,x,sounds/greatgatsby_spanish.wav,,,,,,,,,0,0,0,0,0,30,30,176,155.558439422,9.62160993367e-06,157.012290258,1.45386109932,,,,x,1,1.43391881592,2018_Nov_26_1107,59.9881485422,spanish_cond2,001,1044,
images/mattress.jpg,cat,x,sounds/greatgatsby_spanish.wav,,,,,,,,,0,0,0,0,0,31,31,147,158.117572558,9.30088572204e-06,159.379587479,1.26202486339,,,,z,0,1.25059381058,2018_Nov_26_1107,59.9881485422,spanish_cond2,001,1044,
images/daisy.jpg,daisy,z,sounds/greatgatsby_spanish.wav,,,,,,,,,0,0,0,0,0,32,32,6,160.482604543,9.30076930672e-06,161.213317648,0.730722726556,,,,z,1,0.717078394489,2018_Nov_26_1107,59.9881485422,spanish_cond2,001,1044,
images/bracelet02a.jpg,chess knight,x,sounds/greatgatsby_spanish.wav,,,,,,,,,0,0,0,0,0,33,33,152,162.322915217,9.62149351835e-06,163.363893113,1.04099425336,,,,x,1,1.0171555595,2018_Nov_26_1107,59.9881485422,spanish_cond2,001,1044,
images/hairpin.jpg,hair pin,z,sounds/greatgatsby_spanish.wav,,,,,,,,,0,0,0,0,0,34,34,28,164.45625366,9.62149351835e-06,165.531036903,1.07479318453,,,,z,1,1.05049073161,2018_Nov_26_1107,59.9881485422,spanish_cond2,001,1044,
images/croissant02b.jpg,croissant,z,sounds/greatgatsby_spanish.wav,,,,,,,,,0,0,0,0,0,35,35,39,166.643069688,8.98016151041e-06,167.598218793,0.95515840617,,,,z,1,0.933817147976,2018_Nov_26_1107,59.9881485422,spanish_cond2,001,1044,
images/dresser02.jpg,dresser,z,sounds/greatgatsby_spanish.wav,,,,,,,,,0,0,0,0,0,36,36,87,168.799899166,9.30076930672e-06,170.16549722,1.36560799589,,,,z,1,1.35056116129,2018_Nov_26_1107,59.9881485422,spanish_cond2,001,1044,
images/ladybug03.jpg,giraffe,x,sounds/greatgatsby_spanish.wav,,,,,,,,,0,0,0,0,0,37,37,178,171.269633592,9.62149351835e-06,172.882824813,1.61320116301,,,,x,1,1.60061937175,2018_Nov_26_1107,59.9881485422,spanish_cond2,001,1044,
images/pipe.jpg,icecube,x,sounds/greatgatsby_spanish.wav,,,,,,,,,0,0,0,0,0,38,38,188,173.992586269,8.98016151041e-06,175.433452812,1.44087616482,,,,x,1,1.41726197384,2018_Nov_26_1107,59.9881485422,spanish_cond2,001,1044,
images/rubberglove02a.jpg,lady bug,x,sounds/greatgatsby_spanish.wav,,,,,,,,,0,0,0,0,0,39,39,192,176.538862758,9.30076930672e-06,177.467285098,0.928432923858,,,,x,1,0.91714138363,2018_Nov_26_1107,59.9881485422,spanish_cond2,001,1044,
images/cocktailshrimp01.jpg,cocktail shrimp,z,sounds/greatgatsby_spanish.wav,,,,,,,,,0,0,0,0,0,40,40,30,178.583601401,8.98016151041e-06,179.76783404,1.18424193992,,,,z,1,1.16718419956,2018_Nov_26_1107,59.9881485422,spanish_cond2,001,1044,
images/barrel01.jpg,barrel,z,sounds/greatgatsby_spanish.wav,,,,,,,,,0,0,0,0,0,41,41,9,180.897528799,9.30088572204e-06,181.86835014,0.97083096276,,,,z,1,0.950470462092,2018_Nov_26_1107,59.9881485422,spanish_cond2,001,1044,
images/hat05.jpg,hat,z,sounds/greatgatsby_spanish.wav,,,,,,,,,0,0,0,0,0,42,42,15,182.973527565,9.30088572204e-06,184.268928973,1.29541135055,,,,z,1,1.28388760996,2018_Nov_26_1107,59.9881485422,spanish_cond2,001,1044,
images/squirrel.jpg,binder,x,sounds/greatgatsby_spanish.wav,,,,,,,,,0,0,0,0,0,43,43,132,185.373254569,9.62160993367e-06,186.352791439,0.979546491057,,,,x,1,0.967160979519,2018_Nov_26_1107,59.9881485422,spanish_cond2,001,1044,
images/bus.jpg,microphone,x,sounds/greatgatsby_spanish.wav,,,,,,,,,0,0,0,0,0,44,44,203,187.472154568,9.30088572204e-06,188.970075991,1.49793136492,,,,x,1,1.48393071443,2018_Nov_26_1107,59.9881485422,spanish_cond2,001,1044,
images/plate01b.jpg,plate,z,sounds/greatgatsby_spanish.wav,,,,,,,,,0,0,0,0,0,45,45,3,190.070088563,8.98016151041e-06,191.103776205,1.03369726345,,,,z,1,1.01700097311,2018_Nov_26_1107,59.9881485422,spanish_cond2,001,1044,
images/nametag01a.jpg,name tag,z,sounds/greatgatsby_spanish.wav,,,,,,,,,0,0,0,0,0,46,46,108,192.224985071,9.30088572204e-06,194.404761966,2.17978651694,,,,z,1,2.16746803559,2018_Nov_26_1107,59.9881485422,spanish_cond2,001,1044,
images/tulip02.jpg,sport shorts,x,sounds/greatgatsby_spanish.wav,,,,,,,,,0,0,0,0,0,47,47,225,195.500860488,9.30088572204e-06,196.471915633,0.971065087244,,,,x,1,0.950488743139,2018_Nov_26_1107,59.9881485422,spanish_cond2,001,1044,
images/skateboard.jpg,key,x,sounds/greatgatsby_spanish.wav,,,,,,,,,0,0,0,0,0,48,48,189,197.563904467,8.33871308714e-06,199.272589335,1.70869448921,,,,x,1,1.68398953427,2018_Nov_26_1107,59.9881485422,spanish_cond2,001,1044,
images/lamp04b.jpg,parking meter,x,sounds/greatgatsby_spanish.wav,,,,,,,,,0,0,0,0,0,49,49,209,200.393518854,8.98016151041e-06,202.123281028,1.72977147519,,,,x,1,1.7173304793,2018_Nov_26_1107,59.9881485422,spanish_cond2,001,1044,
images/leek.jpg,donut,x,sounds/greatgatsby_spanish.wav,,,,,,,,,0,0,0,0,0,50,50,169,203.225249022,9.62149351835e-06,204.423829329,1.19859024917,,,,x,1,1.18385611544,2018_Nov_26_1107,59.9881485422,spanish_cond2,001,1044,
images/treadmill.jpg,lily,x,sounds/greatgatsby_spanish.wav,,,,,,,,,0,0,0,0,0,51,51,199,205.530902521,9.30088572204e-06,206.791079083,1.26018650422,,,,x,1,1.25054602348,2018_Nov_26_1107,59.9881485422,spanish_cond2,001,1044,
images/bowl02b (1).jpg,bowl,z,sounds/greatgatsby_spanish.wav,,,,,,,,,0,0,0,0,0,52,52,24,207.909830924,8.98016151041e-06,208.791565293,0.881743670208,,,,z,1,0.867117297719,2018_Nov_26_1107,59.9881485422,spanish_cond2,001,1044,
images/cola.jpg,comb,x,sounds/greatgatsby_spanish.wav,,,,,,,,,0,0,0,0,0,53,53,157,209.914254275,9.30088572204e-06,210.925430036,1.0111857031,,,,x,1,1.00049358595,2018_Nov_26_1107,59.9881485422,spanish_cond2,001,1044,
images/safe.jpg,safe,z,sounds/greatgatsby_spanish.wav,,,,,,,,,0,0,0,0,0,54,54,78,212.037565771,8.98016151041e-06,213.175968041,1.13841124973,,,,z,1,1.1171787153,2018_Nov_26_1107,59.9881485422,spanish_cond2,001,1044,
images/flashlight05.jpg,flash light,z,sounds/greatgatsby_spanish.wav,,,,,,,,,0,0,0,0,0,55,55,8,214.279377023,8.98016151041e-06,215.326488984,1.04712190328,,,,z,1,1.03381657077,2018_Nov_26_1107,59.9881485422,spanish_cond2,001,1044,
images/lychee02a.jpg,lychee,z,sounds/greatgatsby_spanish.wav,,,,,,,,,0,0,0,0,0,56,56,62,216.452134992,9.30088572204e-06,217.577075739,1.1249506895,,,,z,1,1.10053309845,2018_Nov_26_1107,59.9881485422,spanish_cond2,001,1044,
images/doll.jpg,carrot,x,sounds/greatgatsby_spanish.wav,,,,,,,,,0,0,0,0,0,57,57,146,218.689003649,8.98004509509e-06,220.110985318,1.42199129052,,,,x,1,1.40057402209,2018_Nov_26_1107,59.9881485422,spanish_cond2,001,1044,
images/lily.jpg,kiwi,x,sounds/greatgatsby_spanish.wav,,,,,,,,,0,0,0,0,0,58,58,190,221.212553055,8.65932088345e-06,222.744986046,1.53244293295,,,,x,1,1.5172928269,2018_Nov_26_1107,59.9881485422,spanish_cond2,001,1044,
images/shotglass.jpg,shot glass,z,sounds/greatgatsby_spanish.wav,,,,,,,,,0,0,0,0,0,59,59,86,223.854711902,8.98016151041e-06,224.745470331,0.89076837129,,,,z,1,0.867135899374,2018_Nov_26_1107,59.9881485422,spanish_cond2,001,1044,
images/lettuce.jpg,mushroom,x,sounds/greatgatsby_spanish.wav,,,,,,,,,0,0,0,0,0,60,60,205,225.870299468,9.30088572204e-06,226.912642022,1.04235249665,,,,x,1,1.03381849511,2018_Nov_26_1107,59.9881485422,spanish_cond2,001,1044,
images/fryingpan01.jpg,frying pan,z,sounds/greatgatsby_spanish.wav,,,,,,,,,0,0,0,0,0,61,61,45,228.014877495,9.30088572204e-06,229.113192183,1.09832495078,,,,z,1,1.08384258102,2018_Nov_26_1107,59.9881485422,spanish_cond2,001,1044,
images/electricguitar02.jpg,electric guitar,z,sounds/greatgatsby_spanish.wav,,,,,,,,,0,0,0,0,0,62,62,100,230.216282371,9.30076930672e-06,231.596975367,1.38070390036,,,,x,0,1.36707752862,2018_Nov_26_1107,59.9881485422,spanish_cond2,001,1044,
images/egg01b (1).jpg,egg,z,sounds/greatgatsby_spanish.wav,,,,,,,,,0,0,0,0,0,63,63,19,232.710831117,8.98016151041e-06,234.431143638,1.72032182186,,,,z,1,1.70064605563,2018_Nov_26_1107,59.9881485422,spanish_cond2,001,1044,
images/dice05a.jpg,band aid,x,sounds/greatgatsby_spanish.wav,,,,,,,,,0,0,0,0,0,64,64,126,235.544613242,9.30076930672e-06,237.181825004,1.63722138363,,,,x,1,1.61731566221,2018_Nov_26_1107,59.9881485422,spanish_cond2,001,1044,
images/graduationcap.jpg,graduation cap,z,sounds/greatgatsby_spanish.wav,,,,,,,,,0,0,0,0,0,65,65,35,238.285329882,9.94221772999e-06,239.382347904,1.09702764405,,,,z,1,1.08382750733,2018_Nov_26_1107,59.9881485422,spanish_cond2,001,1044,
images/snowman.jpg,globe,x,sounds/greatgatsby_spanish.wav,,,,,,,,,0,0,0,0,0,66,66,180,240.495128284,9.30088572204e-06,241.466202031,0.97108400974,,,,x,1,0.950484253,2018_Nov_26_1107,59.9881485422,spanish_cond2,001,1044,
images/fork01.jpg,cooking pot,x,sounds/greatgatsby_spanish.wav,,,,,,,,,0,0,0,0,0,67,67,160,242.56229927,8.98004509509e-06,243.450017608,0.887727958732,,,,x,1,0.867127881385,2018_Nov_26_1107,59.9881485422,spanish_cond2,001,1044,
images/computerkeyboard01a.jpg,computer keyboard,z,sounds/greatgatsby_spanish.wav,,,,,,,,,0,0,0,0,0,68,68,61,244.568076375,9.30076930672e-06,246.150663342,1.58259658923,,,,z,1,1.56728804833,2018_Nov_26_1107,59.9881485422,spanish_cond2,001,1044,
images/desktopcomputer.jpg,desktop computer,z,sounds/greatgatsby_spanish.wav,,,,,,,,,0,0,0,0,0,69,69,16,247.287948549,9.62160993367e-06,249.284779849,1.9968438081,,,,z,1,1.98407247209,2018_Nov_26_1107,59.9881485422,spanish_cond2,001,1044,
images/panda.jpg,panda,z,sounds/greatgatsby_spanish.wav,,,,,,,,,0,0,0,0,0,70,70,83,250.39531103,9.30076930672e-06,252.685588317,2.29028690839,,,,z,1,2.26746617549,2018_Nov_26_1107,59.9881485422,spanish_cond2,001,1044,
images/fireextinguisher02.jpg,fire extinguisher,z,sounds/greatgatsby_spanish.wav,,,,,,,,,0,0,0,0,0,71,71,175,253.797461063,8.98016151041e-06,254.886126932,1.08867548988,,,,z,1,1.06715366722,2018_Nov_26_1107,59.9881485422,spanish_cond2,001,1044,
images/pepper05a.jpg,lighter,x,sounds/greatgatsby_spanish.wav,,,,,,,,,0,0,0,0,0,72,72,198,256.008915657,8.98004509509e-06,257.220034779,1.21112906421,,,,x,1,1.20054021839,2018_Nov_26_1107,59.9881485422,spanish_cond2,001,1044,
images/highheelshoe02a.jpg,high heel shoe,z,sounds/greatgatsby_spanish.wav,,,,,,,,,0,0,0,0,0,73,73,75,258.328467818,8.98016151041e-06,259.337201307,1.00874311023,,,,z,1,1.00047305995,2018_Nov_26_1107,59.9881485422,spanish_cond2,001,1044,
images/pouch01b.jpg,pouch,z,sounds/greatgatsby_spanish.wav,,,,,,,,,0,0,0,0,0,74,74,25,260.450615748,8.98004509509e-06,262.688025457,2.23741933121,,,,z,1,2.21741835633,2018_Nov_26_1107,59.9881485422,spanish_cond2,001,1044,
images/mirror02.jpg,8 ball,x,sounds/greatgatsby_spanish.wav,,,,,,,,,0,0,0,0,0,75,75,121,263.792683959,9.62160993367e-06,264.738542488,0.945868791547,,,,x,1,0.933818110265,2018_Nov_26_1107,59.9881485422,spanish_cond2,001,1044,
images/thumbtack02a.jpg,thumb tack,z,sounds/greatgatsby_spanish.wav,,,,,,,,,0,0,0,0,0,76,76,60,265.849026202,9.94221772999e-06,267.189131295,1.3401150353,,,,z,1,1.31724074238,2018_Nov_26_1107,59.9881485422,spanish_cond2,001,1044,
images/stapler03a.jpg,candy cane,x,sounds/greatgatsby_spanish.wav,,,,,,,,,0,0,0,0,0,77,77,145,268.301762541,9.30076930672e-06,269.539683476,1.23793119809,,,,x,1,1.21718904248,2018_Nov_26_1107,59.9881485422,spanish_cond2,001,1044,
images/blackolive.jpg,tank,x,sounds/greatgatsby_spanish.wav,,,,,,,,,0,0,0,0,0,78,78,229,270.655943974,8.98016151041e-06,271.790251629,1.13431823882,,,,x,1,1.11718961981,2018_Nov_26_1107,59.9881485422,spanish_cond2,001,1044,
images/plant01.jpg,plant,z,sounds/greatgatsby_spanish.wav,,,,,,,,,0,0,0,0,0,79,79,47,272.90317954,9.30088572204e-06,273.857421974,0.954252376105,,,,z,1,0.933794697747,2018_Nov_26_1107,59.9881485422,spanish_cond2,001,1044,
images/cherry01.jpg,highlighter,x,sounds/greatgatsby_spanish.wav,,,,,,,,,0,0,0,0,0,80,80,187,274.96748234,8.98016151041e-06,276.057959947,1.0904872294,,,,x,1,1.06718221121,2018_Nov_26_1107,59.9881485422,spanish_cond2,001,1044,
images/candle08a.jpg,screw driver,x,sounds/greatgatsby_spanish.wav,,,,,,,,,0,0,0,0,0,81,81,221,277.17306201,9.62160993367e-06,278.108471846,0.935420099762,,,,x,1,0.91715453309,2018_Nov_26_1107,59.9881485422,spanish_cond2,001,1044,
images/showerhead01.jpg,skateboard,x,sounds/greatgatsby_spanish.wav,,,,,,,,,0,0,0,0,0,82,82,223,279.217146708,8.98016151041e-06,280.909120853,1.69198408723,,,,x,1,1.66731248703,2018_Nov_26_1107,59.9881485422,spanish_cond2,001,1044,
images/medal01.jpg,medal,z,sounds/greatgatsby_spanish.wav,,,,,,,,,0,0,0,0,0,83,83,115,282.011365947,9.30088572204e-06,282.959620885,0.948264238774,,,,z,1,0.933795980643,2018_Nov_26_1107,59.9881485422,spanish_cond2,001,1044,
images/carrot02.jpg,corkscrew,x,sounds/greatgatsby_spanish.wav,,,,,,,,,0,0,0,0,0,84,84,161,284.063102991,9.30088572204e-06,285.443568598,1.38047554879,,,,x,1,1.36718529009,2018_Nov_26_1107,59.9881485422,spanish_cond2,001,1044,
images/computermouse02a.jpg,world map,x,sounds/greatgatsby_spanish.wav,,,,,,,,,0,0,0,0,0,85,85,239,286.546141787,8.98016151041e-06,287.594105577,1.04797309043,,,,x,1,1.0338457562,2018_Nov_26_1107,59.9881485422,spanish_cond2,001,1044,
images/tank.jpg,wallet,x,sounds/greatgatsby_spanish.wav,,,,,,,,,0,0,0,0,0,86,86,237,288.700298717,9.30076930672e-06,290.411448308,1.71115953242,,,,x,1,1.70066241222,2018_Nov_26_1107,59.9881485422,spanish_cond2,001,1044,
images/doorhandle.jpg,doll,x,sounds/greatgatsby_spanish.wav,,,,,,,,,0,0,0,0,0,87,87,168,291.516118355,9.30088572204e-06,294.045669369,2.52956095547,,,,x,1,2.51753817673,2018_Nov_26_1107,59.9881485422,spanish_cond2,001,1044,
images/triangleruler02.jpg,bottle of red wine,x,sounds/greatgatsby_spanish.wav,,,,,,,,,0,0,0,0,0,88,88,134,295.158347119,9.94233414531e-06,296.029475324,0.871137826238,,,,x,1,0.850450192811,2018_Nov_26_1107,59.9881485422,spanish_cond2,001,1044,
images/tent.jpg,tent,z,sounds/greatgatsby_spanish.wav,,,,,,,,,0,0,0,0,0,89,89,11,297.157119729,9.94233414531e-06,299.94709105,2.78998158441,,,,z,1,2.76758067193,2018_Nov_26_1107,59.9881485422,spanish_cond2,001,1044,
images/tape01a.jpg,tie,x,sounds/greatgatsby_spanish.wav,,,,,,,,,0,0,0,0,0,90,90,232,301.074124166,8.65943729877e-06,302.030925934,0.956811069162,,,,x,1,0.933798225597,2018_Nov_26_1107,59.9881485422,spanish_cond2,001,1044,
images/boxingglove02a.jpg,bracelet,x,sounds/greatgatsby_spanish.wav,,,,,,,,,0,0,0,0,0,91,91,135,303.1436287,8.98016151041e-06,305.09834227,1.95472319098,,,,x,1,1.93402016303,2018_Nov_26_1107,59.9881485422,spanish_cond2,001,1044,
images/handbag02a.jpg,candle,x,sounds/greatgatsby_spanish.wav,,,,,,,,,0,0,0,0,0,92,92,144,306.216024513,9.30088572204e-06,307.598954201,1.38293930923,,,,x,1,1.36723596358,2018_Nov_26_1107,59.9881485422,spanish_cond2,001,1044,
images/crocodile.jpg,triangle ruler,x,sounds/greatgatsby_spanish.wav,,,,,,,,,0,0,0,0,0,93,93,235,308.698520653,8.98016151041e-06,309.982870098,1.28435874556,,,,x,1,1.26721376996,2018_Nov_26_1107,59.9881485422,spanish_cond2,001,1044,
images/scooter.jpg,pen,x,sounds/greatgatsby_spanish.wav,,,,,,,,,0,0,0,0,0,94,94,212,311.076045912,8.98016151041e-06,312.883570804,1.80753451411,,,,x,1,1.78400755872,2018_Nov_26_1107,59.9881485422,spanish_cond2,001,1044,
images/ladder.jpg,ladder,z,sounds/greatgatsby_spanish.wav,,,,,,,,,0,0,0,0,0,95,95,113,313.976042961,8.98016151041e-06,314.850733067,0.874700368615,,,,z,1,0.8504652665,2018_Nov_26_1107,59.9881485422,spanish_cond2,001,1044,
images/teapot.jpg,light switch,x,sounds/greatgatsby_spanish.wav,,,,,,,,,0,0,0,0,0,96,96,197,315.969174451,8.65932088345e-06,316.767851679,0.798686849652,,,,x,1,0.783727892092,2018_Nov_26_1107,59.9881485422,spanish_cond2,001,1044,
images/dreamcatcher.jpg,dream catcher,z,sounds/greatgatsby_spanish.wav,,,,,,,,,0,0,0,0,0,97,97,48,317.867984842,8.98016151041e-06,318.685006854,0.817031312967,,,,z,1,0.800438294071,2018_Nov_26_1107,59.9881485422,spanish_cond2,001,1044,
images/paperclip04.jpg,eye drops,x,sounds/greatgatsby_spanish.wav,,,,,,,,,0,0,0,0,0,98,98,174,319.79159544,9.30076930672e-06,321.135588605,1.34400278633,,,,x,1,1.33390239498,2018_Nov_26_1107,59.9881485422,spanish_cond2,001,1044,
images/ruler02b.jpg,watermelon,x,sounds/greatgatsby_spanish.wav,,,,,,,,,0,0,0,0,0,99,99,238,322.24013229,9.30076930672e-06,323.086063237,0.845940888976,,,,x,1,0.833773786901,2018_Nov_26_1107,59.9881485422,spanish_cond2,001,1044,
images/atm.jpg,atm,z,sounds/greatgatsby_spanish.wav,,,,,,,,,0,0,0,0,0,100,100,96,324.224800337,8.98016151041e-06,325.803440541,1.57867163478,,,,z,1,1.56728452037,2018_Nov_26_1107,59.9881485422,spanish_cond2,001,1044,
images/puma.jpg,puma,z,sounds/greatgatsby_spanish.wav,,,,,,,,,0,0,0,0,0,101,101,4,326.902334447,8.98016151041e-06,329.904255872,3.00193136744,,,,None,0,,2018_Nov_26_1107,59.9881485422,spanish_cond2,001,1044,
images/grasshopper.jpg,cauliflower,x,sounds/greatgatsby_spanish.wav,,,,,,,,,0,0,0,0,0,102,102,148,330.999215522,8.98004509509e-06,331.804846892,0.805640991428,,,,x,1,0.783763171057,2018_Nov_26_1107,59.9881485422,spanish_cond2,001,1044,
images/diaper01a.jpg,camera,x,sounds/greatgatsby_spanish.wav,,,,,,,,,0,0,0,0,0,103,103,143,332.926259735,9.30076930672e-06,335.105659465,2.17941031384,,,,x,1,2.16744783032,2018_Nov_26_1107,59.9881485422,spanish_cond2,001,1044,
images/screwdriver02b.jpg,cola,x,sounds/greatgatsby_spanish.wav,,,,,,,,,0,0,0,0,0,104,104,158,336.201593138,9.30076930672e-06,337.039468274,0.837884758017,,,,x,1,0.817115662037,2018_Nov_26_1107,59.9881485422,spanish_cond2,001,1044,
images/bandaid01.jpg,door handle,x,sounds/greatgatsby_spanish.wav,,,,,,,,,0,0,0,0,0,105,105,170,338.148034412,8.98016151041e-06,339.256673994,1.10864984524,,,,x,1,1.08383199736,2018_Nov_26_1107,59.9881485422,spanish_cond2,001,1044,
images/baseball01a.jpg,baseball,z,sounds/greatgatsby_spanish.wav,,,,,,,,,0,0,0,0,0,106,106,74,340.390340212,9.30076930672e-06,342.424115089,2.03378481965,,,,z,1,2.01740956854,2018_Nov_26_1107,59.9881485422,spanish_cond2,001,1044,
images/glasses01b.jpg,calculator,x,sounds/greatgatsby_spanish.wav,,,,,,,,,0,0,0,0,0,107,107,142,343.518387119,9.30076930672e-06,344.257876689,0.73949887068,,,,x,1,0.717080960283,2018_Nov_26_1107,59.9881485422,spanish_cond2,001,1044,
images/corn01.jpg,corn,z,sounds/greatgatsby_spanish.wav,,,,,,,,,0,0,0,0,0,108,108,22,345.358715753,9.94233414531e-06,346.325053127,0.966346995789,,,,z,1,0.950472386437,2018_Nov_26_1107,59.9881485422,spanish_cond2,001,1044,
images/broom02.jpg,broom,z,sounds/greatgatsby_spanish.wav,,,,,,,,,0,0,0,0,0,109,109,116,347.420344721,9.30088572204e-06,348.125498798,0.705164018786,,,,z,1,0.683748995303,2018_Nov_26_1107,59.9881485422,spanish_cond2,001,1044,
images/button07.jpg,radish,x,sounds/greatgatsby_spanish.wav,,,,,,,,,0,0,0,0,0,110,110,215,349.239455894,8.65943729877e-06,350.20931957,0.969873296912,,,,x,1,0.950466934242,2018_Nov_26_1107,59.9881485422,spanish_cond2,001,1044,
images/gps.jpg,gps,z,sounds/greatgatsby_spanish.wav,,,,,,,,,0,0,0,0,0,111,111,21,351.32927667,8.65943729877e-06,352.193148296,0.863880605437,,,,z,1,0.850447947625,2018_Nov_26_1107,59.9881485422,spanish_cond2,001,1044,
images/candy.jpg,candy,z,sounds/greatgatsby_spanish.wav,,,,,,,,,0,0,0,0,0,112,112,31,353.296579408,9.30088572204e-06,354.443688546,1.14711876027,,,,z,1,1.13384261308,2018_Nov_26_1107,59.9881485422,spanish_cond2,001,1044,
images/ant.jpg,ant,z,sounds/greatgatsby_spanish.wav,,,,,,,,,0,0,0,0,0,113,113,98,355.5398278,9.30088572204e-06,357.16109215,1.62127365055,,,,z,1,1.60070532444,2018_Nov_26_1107,59.9881485422,spanish_cond2,001,1044,
images/drink.jpg,drink,z,sounds/greatgatsby_spanish.wav,,,,,,,,,0,0,0,0,0,114,114,117,358.262647058,9.30076930672e-06,359.711644138,1.4490067024,,,,z,1,1.43392683379,2018_Nov_26_1107,59.9881485422,spanish_cond2,001,1044,
images/pen03c.jpg,pepper,x,sounds/greatgatsby_spanish.wav,,,,,,,,,0,0,0,0,0,115,115,211,360.807048305,9.30088572204e-06,362.128907074,1.32186935341,,,,x,1,1.30057010939,2018_Nov_26_1107,59.9881485422,spanish_cond2,001,1044,
images/beachumbrella01.jpg,beach umbrella,z,sounds/greatgatsby_spanish.wav,,,,,,,,,0,0,0,0,0,116,116,92,363.236707977,8.98016151041e-06,364.312755813,1.07605681592,,,,z,1,1.0671629681,2018_Nov_26_1107,59.9881485422,spanish_cond2,001,1044,
images/coin01b.jpg,arrow,x,sounds/greatgatsby_spanish.wav,,,,,,,,,0,0,0,0,0,117,117,124,365.417747542,9.62149351835e-06,366.129869551,0.712131309789,,,,x,1,0.700405195937,2018_Nov_26_1107,59.9881485422,spanish_cond2,001,1044,
images/50dollarbill.jpg,cherry,x,sounds/greatgatsby_spanish.wav,,,,,,,,,0,0,0,0,0,118,118,151,367.251747756,9.30076930672e-06,368.613819188,1.36208073248,,,,x,1,1.35057687655,2018_Nov_26_1107,59.9881485422,spanish_cond2,001,1044,
images/banana04a.jpg,banana,z,sounds/greatgatsby_spanish.wav,,,,,,,,,0,0,0,0,0,119,119,118,369.721336896,8.98016151041e-06,370.664313127,0.942985851783,,,,z,1,0.933742099907,2018_Nov_26_1107,59.9881485422,spanish_cond2,001,1044,
images/lipstick04.jpg,lipstick,z,sounds/greatgatsby_spanish.wav,,,,,,,,,0,0,0,0,0,120,120,56,371.765587726,8.98016151041e-06,373.164919605,1.3993418212,,,,z,1,1.3839110866,2018_Nov_26_1107,59.9881485422,spanish_cond2,001,1044,
images/pictureframe04.jpg,picture frame,z,sounds/greatgatsby_spanish.wav,,,,,,,,,0,0,0,0,0,121,121,41,374.287930589,9.30076930672e-06,375.465485225,1.1775639368,,,,z,1,1.16719959409,2018_Nov_26_1107,59.9881485422,spanish_cond2,001,1044,
images/giraffe.jpg,lettuce,x,sounds/greatgatsby_spanish.wav,,,,,,,,,0,0,0,0,0,122,122,195,376.568385868,9.62160993367e-06,377.999689544,1.43131361855,,,,x,1,1.41751598299,2018_Nov_26_1107,59.9881485422,spanish_cond2,001,1044,
images/swallow.jpg,mattress,x,sounds/greatgatsby_spanish.wav,,,,,,,,,0,0,0,0,0,123,123,202,379.102478257,9.62149351835e-06,380.283318334,1.18084969907,,,,x,1,1.16719638696,2018_Nov_26_1107,59.9881485422,spanish_cond2,001,1044,
images/chessknight02b (1).jpg,cockroach,x,sounds/greatgatsby_spanish.wav,,,,,,,,,0,0,0,0,0,124,124,155,381.393720907,9.30088572204e-06,382.750581623,1.35687001725,,,,x,1,1.33390079148,2018_Nov_26_1107,59.9881485422,spanish_cond2,001,1044,
images/hand01a.jpg,cupcake,x,sounds/greatgatsby_spanish.wav,,,,,,,,,0,0,0,0,0,125,125,163,383.862124671,9.62160993367e-06,384.717724322,0.855609272374,,,,x,1,0.833775390405,2018_Nov_26_1107,59.9881485422,spanish_cond2,001,1044,
images/seagull.jpg,seagull,z,sounds/greatgatsby_spanish.wav,,,,,,,,,0,0,0,0,0,126,126,50,385.827009831,9.30088572204e-06,386.734881806,0.907881916501,,,,z,1,0.883790817112,2018_Nov_26_1107,59.9881485422,spanish_cond2,001,1044,
images/honeycomb.jpg,honey comb,z,sounds/greatgatsby_spanish.wav,,,,,,,,,0,0,0,0,0,127,127,59,387.849264175,8.98016151041e-06,388.885425199,1.03617160756,,,,z,1,1.0171760855,2018_Nov_26_1107,59.9881485422,spanish_cond2,001,1044,
images/flower01.jpg,bus,x,sounds/greatgatsby_spanish.wav,,,,,,,,,0,0,0,0,0,128,128,140,390.001073445,9.62160993367e-06,391.169310885,1.16824706108,,,,x,1,1.15052992338,2018_Nov_26_1107,59.9881485422,spanish_cond2,001,1044,
images/cloud.jpg,ceiling fan,x,sounds/greatgatsby_spanish.wav,,,,,,,,,0,0,0,0,0,129,129,149,392.276208644,8.98016151041e-06,393.319820603,1.04362158023,,,,x,1,1.03382138163,2018_Nov_26_1107,59.9881485422,spanish_cond2,001,1044,
images/raisin.jpg,ruler,x,sounds/greatgatsby_spanish.wav,,,,,,,,,0,0,0,0,0,130,130,218,394.42631137,9.30076930672e-06,395.420332534,0.994030785165,,,,x,1,0.983811407234,2018_Nov_26_1107,59.9881485422,spanish_cond2,001,1044,
images/spoon02b.jpg,spoon,z,sounds/greatgatsby_spanish.wav,,,,,,,,,0,0,0,0,0,131,131,38,396.513595583,9.30088572204e-06,397.970955081,1.45736879879,,,,z,1,1.43391689158,2018_Nov_26_1107,59.9881485422,spanish_cond2,001,1044,
images/volleyball.jpg,volley ball,z,sounds/greatgatsby_spanish.wav,,,,,,,,,0,0,0,0,0,132,132,2,399.103549778,8.98016151041e-06,400.054792851,0.9512523741,,,,z,1,0.933798867161,2018_Nov_26_1107,59.9881485422,spanish_cond2,001,1044,
images/cupcake.jpg,scissors,x,sounds/greatgatsby_spanish.wav,,,,,,,,,0,0,0,0,0,133,133,219,401.175712108,8.98016151041e-06,402.071953221,0.89625073527,,,,x,1,0.883770611719,2018_Nov_26_1107,59.9881485422,spanish_cond2,001,1044,
images/gamecontroller01.jpg,game controller,z,sounds/greatgatsby_spanish.wav,,,,,,,,,0,0,0,0,0,134,134,112,403.193124563,9.30088572204e-06,404.289162148,1.0960465658,,,,z,1,1.0838422603,2018_Nov_26_1107,59.9881485422,spanish_cond2,001,1044,
images/camera01a.jpg,bull,x,sounds/greatgatsby_spanish.wav,,,,,,,,,0,0,0,0,0,135,135,138,405.401426813,8.98016151041e-06,406.239636459,0.838218946941,,,,x,1,0.817109889118,2018_Nov_26_1107,59.9881485422,spanish_cond2,001,1044,
images/binder03b.jpg,dj mixer,x,sounds/greatgatsby_spanish.wav,,,,,,,,,0,0,0,0,0,136,136,167,407.354011132,9.62160993367e-06,408.256794905,0.902793074376,,,,x,1,0.883792420616,2018_Nov_26_1107,59.9881485422,spanish_cond2,001,1044,
images/antelope.jpg,antelope,z,sounds/greatgatsby_spanish.wav,,,,,,,,,0,0,0,0,0,137,137,12,409.361765787,8.98016151041e-06,410.390657403,1.02890155802,,,,z,1,1.0171584459,2018_Nov_26_1107,59.9881485422,spanish_cond2,001,1044,
images/worldmap.jpg,scooter,x,sounds/greatgatsby_spanish.wav,,,,,,,,,0,0,0,0,0,138,138,220,411.523062555,8.65943729877e-06,412.324457553,0.801404939964,,,,x,1,0.783773113391,2018_Nov_26_1107,59.9881485422,spanish_cond2,001,1044,
images/knife04.jpg,tooth brush,x,sounds/greatgatsby_spanish.wav,,,,,,,,,0,0,0,0,0,139,139,233,413.422825159,8.98016151041e-06,414.208242276,0.785426738672,,,,x,1,0.767101839068,2018_Nov_26_1107,59.9881485422,spanish_cond2,001,1044,
images/highlighter03b.jpg,coin,x,sounds/greatgatsby_spanish.wav,,,,,,,,,0,0,0,0,0,140,140,156,415.31169199,8.98016151041e-06,416.308750038,0.997067349032,,,,x,1,0.983814293635,2018_Nov_26_1107,59.9881485422,spanish_cond2,001,1044,
images/bottleofredwine02.jpg,pipe,x,sounds/greatgatsby_spanish.wav,,,,,,,,,0,0,0,0,0,141,141,213,417.408684675,9.62160993367e-06,418.359250391,0.950575337163,,,,x,1,0.933798867045,2018_Nov_26_1107,59.9881485422,spanish_cond2,001,1044,
images/donut.jpg,rhinoceros,x,sounds/greatgatsby_spanish.wav,,,,,,,,,0,0,0,0,0,142,142,216,419.486493577,9.62149351835e-06,420.39308845,0.906605135649,,,,x,1,0.88379498641,2018_Nov_26_1107,59.9881485422,spanish_cond2,001,1044,
images/pineapple01a.jpg,pineapple,z,sounds/greatgatsby_spanish.wav,,,,,,,,,0,0,0,0,0,143,143,51,421.508346381,9.30088572204e-06,422.310207062,0.801870302646,,,,z,1,0.783751304611,2018_Nov_26_1107,59.9881485422,spanish_cond2,001,1044,
images/mailbox01.jpg,mail box,z,sounds/greatgatsby_spanish.wav,,,,,,,,,0,0,0,0,0,144,144,73,423.431762304,8.98004509509e-06,424.310695517,0.878942834446,,,,z,1,0.867114731926,2018_Nov_26_1107,59.9881485422,spanish_cond2,001,1044,
images/lip.jpg,boxing glove,x,sounds/greatgatsby_spanish.wav,,,,,,,,,0,0,0,0,0,145,145,136,425.41367185,9.94221772999e-06,426.427886419,1.01422451192,,,,x,1,1.00048653013,2018_Nov_26_1107,59.9881485422,spanish_cond2,001,1044,
images/diploma01.jpg,glasses,x,sounds/greatgatsby_spanish.wav,,,,,,,,,0,0,0,0,0,146,146,179,427.560452573,9.30088572204e-06,428.445032678,0.884590047877,,,,x,1,0.867111203959,2018_Nov_26_1107,59.9881485422,spanish_cond2,001,1044,
images/8ball.jpg,nail clipper,x,sounds/greatgatsby_spanish.wav,,,,,,,,,0,0,0,0,0,147,147,206,429.5622409,9.30088572204e-06,430.445527547,0.883296268992,,,,x,1,0.867119863397,2018_Nov_26_1107,59.9881485422,spanish_cond2,001,1044,
images/straw.jpg,straw,z,sounds/greatgatsby_spanish.wav,,,,,,,,,0,0,0,0,0,148,148,109,431.538419524,9.30088572204e-06,432.612723613,1.07431371033,,,,z,1,1.05050067382,2018_Nov_26_1107,59.9881485422,spanish_cond2,001,1044,
images/apricot.jpg,apricot,z,sounds/greatgatsby_spanish.wav,,,,,,,,,0,0,0,0,0,149,149,32,433.73169739,8.65943729877e-06,434.963298565,1.23161079641,,,,z,1,1.21715536702,2018_Nov_26_1107,59.9881485422,spanish_cond2,001,1044,
images/table02.jpg,table,z,sounds/greatgatsby_spanish.wav,,,,,,,,,0,0,0,0,0,150,150,49,436.079233534,9.30088572204e-06,437.230515222,1.15129098867,,,,z,1,1.13384293381,2018_Nov_26_1107,59.9881485422,spanish_cond2,001,1044,
images/parkbench03.jpg,park bench,z,sounds/greatgatsby_spanish.wav,,,,,,,,,0,0,0,0,0,151,151,71,438.337257112,9.30088572204e-06,439.314349785,0.977102294448,,,,z,1,0.967138208565,2018_Nov_26_1107,59.9881485422,spanish_cond2,001,1044,
images/cookingpot.jpg,grasshopper,x,sounds/greatgatsby_spanish.wav,,,,,,,,,0,0,0,0,0,152,152,183,440.429938698,1.18666794151e-05,441.748293617,1.31836774759,,,,x,1,1.30057363724,2018_Nov_26_1107,59.9881485422,spanish_cond2,001,1044,
images/bullet (2).jpg,rubber glove,x,sounds/greatgatsby_spanish.wav,,,,,,,,,0,0,0,0,0,153,153,217,442.85475135,9.62149351835e-06,443.598576394,0.743835307076,,,,x,1,0.73358417803,2018_Nov_26_1107,59.9881485422,spanish_cond2,001,1044,
images/clothespin02a.jpg,clothes pin,z,sounds/greatgatsby_spanish.wav,,,,,,,,,0,0,0,0,0,154,154,79,444.707198658,9.94233414531e-06,445.882611856,1.17542249872,,,,z,1,1.16716623935,2018_Nov_26_1107,59.9881485422,spanish_cond2,001,1044,
images/battery03b.jpg,battery,z,sounds/greatgatsby_spanish.wav,,,,,,,,,0,0,0,0,0,155,155,34,446.991663882,9.30076930672e-06,447.866432884,0.87477894465,,,,z,1,0.850451475591,2018_Nov_26_1107,59.9881485422,spanish_cond2,001,1044,
images/radio03a.jpg,radio,z,sounds/greatgatsby_spanish.wav,,,,,,,,,0,0,0,0,0,156,156,37,448.98187587,9.62149351835e-06,450.417053507,1.43518725794,,,,z,1,1.41725299368,2018_Nov_26_1107,59.9881485422,spanish_cond2,001,1044,
images/lollipop03b.jpg,lollipop,z,sounds/greatgatsby_spanish.wav,,,,,,,,,0,0,0,0,0,157,157,42,451.511817519,8.98004509509e-06,452.317517522,0.805709625129,,,,z,1,0.783755473909,2018_Nov_26_1107,59.9881485422,spanish_cond2,001,1044,
images/ashtray02b.jpg,ashtray,z,sounds/greatgatsby_spanish.wav,,,,,,,,,0,0,0,0,0,158,158,43,453.432439662,8.65943729877e-06,455.301581656,1.86915097444,,,,z,1,1.85070099472,2018_Nov_26_1107,59.9881485422,spanish_cond2,001,1044,
images/parkfountain.jpg,park fountain,z,sounds/greatgatsby_spanish.wav,,,,,,,,,0,0,0,0,0,159,159,93,456.424546456,9.30088572204e-06,457.45210741,1.0275702551,,,,z,1,1.01714690006,2018_Nov_26_1107,59.9881485422,spanish_cond2,001,1044,
images/cheetah.jpg,cheetah,z,sounds/greatgatsby_spanish.wav,,,,,,,,,0,0,0,0,0,160,160,82,458.609133489,8.65943729877e-06,459.469287023,0.860163476667,,,,z,1,0.850471039419,2018_Nov_26_1107,59.9881485422,spanish_cond2,001,1044,
images/aquarium.jpg,computer mouse,x,sounds/greatgatsby_spanish.wav,,,,,,,,,0,0,0,0,0,161,161,159,460.60631341,8.98016151041e-06,461.703143492,1.09684002365,,,,x,1,1.08384739177,2018_Nov_26_1107,59.9881485422,spanish_cond2,001,1044,
images/dragonfly02.jpg,dragon fly,z,sounds/greatgatsby_spanish.wav,,,,,,,,,0,0,0,0,0,162,162,29,462.801993138,8.98016151041e-06,463.75390523,0.951921713888,,,,z,1,0.934075647267,2018_Nov_26_1107,59.9881485422,spanish_cond2,001,1044,
images/bowlingball.jpg,bowling ball,z,sounds/greatgatsby_spanish.wav,,,,,,,,,0,0,0,0,0,163,163,20,464.887390563,8.98016151041e-06,465.687443674,0.800063053262,,,,z,1,0.783765736851,2018_Nov_26_1107,59.9881485422,spanish_cond2,001,1044,
images/corkscrew02a.jpg,masquerade mask,x,sounds/greatgatsby_spanish.wav,,,,,,,,,0,0,0,0,0,164,164,201,466.793252914,8.98016151041e-06,468.088032449,1.29479011858,,,,x,1,1.28388279909,2018_Nov_26_1107,59.9881485422,spanish_cond2,001,1044,
images/handfan01b.jpg,handfan,z,sounds/greatgatsby_spanish.wav,,,,,,,,,0,0,0,0,0,165,165,69,469.203759271,9.62160993367e-06,470.33859515,1.13484614168,,,,z,1,1.11720405205,2018_Nov_26_1107,59.9881485422,spanish_cond2,001,1044,
images/chameleon.jpg,50 dollar bill,x,sounds/greatgatsby_spanish.wav,,,,,,,,,0,0,0,0,0,166,166,120,471.452364306,8.98004509509e-06,472.189020968,0.736665642471,,,,x,1,0.71707262157,2018_Nov_26_1107,59.9881485422,spanish_cond2,001,1044,
images/flamingo.jpg,flamingo,z,sounds/greatgatsby_spanish.wav,,,,,,,,,0,0,0,0,0,167,167,52,473.288654772,9.30088572204e-06,474.22285165,0.934206821257,,,,z,1,0.91712695139,2018_Nov_26_1107,59.9881485422,spanish_cond2,001,1044,
images/bicycle.jpg,hand bag,x,sounds/greatgatsby_spanish.wav,,,,,,,,,0,0,0,0,0,168,168,186,475.334911055,9.30076930672e-06,476.256694841,0.921794369351,,,,x,1,0.900479410193,2018_Nov_26_1107,59.9881485422,spanish_cond2,001,1044,
images/basketball01.jpg,basket ball,z,sounds/greatgatsby_spanish.wav,,,,,,,,,0,0,0,0,0,169,169,33,477.397896984,8.65943729877e-06,478.107138619,0.709251256776,,,,z,1,0.7004170625,2018_Nov_26_1107,59.9881485422,spanish_cond2,001,1044,
images/printer03a.jpg,printer,z,sounds/greatgatsby_spanish.wav,,,,,,,,,0,0,0,0,0,170,170,72,479.21762971,9.62149351835e-06,479.924099053,0.706479606451,,,,z,1,0.683604992693,2018_Nov_26_1107,59.9881485422,spanish_cond2,001,1044,
images/scissors04a.jpg,leek,x,sounds/greatgatsby_spanish.wav,,,,,,,,,0,0,0,0,0,171,171,194,481.019819769,8.98016151041e-06,481.791372541,0.771562393522,,,,x,1,0.750433771987,2018_Nov_26_1107,59.9881485422,spanish_cond2,001,1044,
images/belt02a.jpg,snowman,x,sounds/greatgatsby_spanish.wav,,,,,,,,,0,0,0,0,0,172,172,224,482.896237265,9.30088572204e-06,483.64180766,0.745580016403,,,,x,1,0.733753838227,2018_Nov_26_1107,59.9881485422,spanish_cond2,001,1044,
images/lantern03.jpg,lantern,z,sounds/greatgatsby_spanish.wav,,,,,,,,,0,0,0,0,0,173,173,5,484.750456222,8.65943729877e-06,485.825674038,1.07522711693,,,,z,1,1.0504374922,2018_Nov_26_1107,59.9881485422,spanish_cond2,001,1044,
images/bowtie.jpg,bowtie,z,sounds/greatgatsby_spanish.wav,,,,,,,,,0,0,0,0,0,174,174,89,486.937261666,9.30088572204e-06,487.726133885,0.788882161025,,,,z,1,0.767090934562,2018_Nov_26_1107,59.9881485422,spanish_cond2,001,1044,
images/weight01.jpg,weight,z,sounds/greatgatsby_spanish.wav,,,,,,,,,0,0,0,0,0,175,175,67,488.832857173,9.62149351835e-06,489.726639658,0.893793068477,,,,z,1,0.883796589915,2018_Nov_26_1107,59.9881485422,spanish_cond2,001,1044,
images/cigar.jpg,crocodile,x,sounds/greatgatsby_spanish.wav,,,,,,,,,0,0,0,0,0,176,176,162,490.826335681,9.94233414531e-06,491.727130999,0.900805901736,,,,x,1,0.883803966572,2018_Nov_26_1107,59.9881485422,spanish_cond2,001,1044,
images/flipflop01b.jpg,flip flop,z,sounds/greatgatsby_spanish.wav,,,,,,,,,0,0,0,0,0,177,177,27,492.845156732,9.62149351835e-06,494.294405256,1.44925846648,,,,z,1,1.433924268,2018_Nov_26_1107,59.9881485422,spanish_cond2,001,1044,
images/key03b.jpg,cigar,x,sounds/greatgatsby_spanish.wav,,,,,,,,,0,0,0,0,0,178,178,153,495.397857536,9.30088572204e-06,496.544961863,1.14711427013,,,,x,1,1.13385768689,2018_Nov_26_1107,59.9881485422,spanish_cond2,001,1044,
images/djmixer01.jpg,light bulb,x,sounds/greatgatsby_spanish.wav,,,,,,,,,0,0,0,0,0,179,179,196,497.6683359,8.98016151041e-06,498.728819582,1.06049298297,,,,x,1,1.05049586296,2018_Nov_26_1107,59.9881485422,spanish_cond2,001,1044,
images/redfox.jpg,red fox,z,sounds/greatgatsby_spanish.wav,,,,,,,,,0,0,0,0,0,180,180,1,499.843110868,9.30088572204e-06,501.579514804,1.73641323706,,,,z,1,1.71731829213,2018_Nov_26_1107,59.9881485422,spanish_cond2,001,1044,
images/acousticguitar02.jpg,acoustic guitar,z,sounds/greatgatsby_spanish.wav,,,,,,,,,0,0,0,0,0,181,181,97,502.694384025,1.02630583569e-05,503.563324928,0.868951166747,,,,z,1,0.850443778327,2018_Nov_26_1107,59.9881485422,spanish_cond2,001,1044,
images/broadsword.jpg,teapot,x,sounds/greatgatsby_spanish.wav,,,,,,,,,0,0,0,0,0,182,182,231,504.659569057,9.94233414531e-06,506.380684016,1.72112618422,,,,x,1,1.7006540735,2018_Nov_26_1107,59.9881485422,spanish_cond2,001,1044,
images/charcoalbarbecue.jpg,charcoal barbecue,z,sounds/greatgatsby_spanish.wav,,,,,,,,,0,0,0,0,0,183,183,77,507.499460872,9.30076930672e-06,508.814604756,1.31515318481,,,,z,1,1.30055407342,2018_Nov_26_1107,59.9881485422,spanish_cond2,001,1044,
images/sock03.jpg,sock,z,sounds/greatgatsby_spanish.wav,,,,,,,,,0,0,0,0,0,184,184,90,509.922451201,9.30076930672e-06,510.881775742,0.959334162413,,,,z,1,0.950467575691,2018_Nov_26_1107,59.9881485422,spanish_cond2,001,1044,
images/coffeepot03b.jpg,coffee pot,z,sounds/greatgatsby_spanish.wav,,,,,,,,,0,0,0,0,0,185,185,107,512.004972101,8.98004509509e-06,513.715810273,1.71084811469,,,,z,1,1.70066690235,2018_Nov_26_1107,59.9881485422,spanish_cond2,001,1044,
images/feather03b.jpg,feather,z,sounds/greatgatsby_spanish.wav,,,,,,,,,0,0,0,0,0,186,186,114,514.817872879,9.30076930672e-06,516.066384263,1.24852132681,,,,z,1,1.2338904643,2018_Nov_26_1107,59.9881485422,spanish_cond2,001,1044,
images/eraser.jpg,eraser,z,sounds/greatgatsby_spanish.wav,,,,,,,,,0,0,0,0,0,187,187,110,517.175095686,9.30076930672e-06,517.900153239,0.725067174411,,,,z,1,0.700331430649,2018_Nov_26_1107,59.9881485422,spanish_cond2,001,1044,
images/remotecontrol01c.jpg,remote control,z,sounds/greatgatsby_spanish.wav,,,,,,,,,0,0,0,0,0,188,188,85,519.011721945,8.65943729877e-06,520.28407042,1.27235841716,,,,z,1,1.25054923072,2018_Nov_26_1107,59.9881485422,spanish_cond2,001,1044,
images/blueberry02.jpg,blueberry,z,sounds/greatgatsby_spanish.wav,,,,,,,,,0,0,0,0,0,189,189,46,521.398167029,9.30076930672e-06,522.20104086,0.80288377346,,,,z,1,0.783610509126,2018_Nov_26_1107,59.9881485422,spanish_cond2,001,1044,
images/tissuebox03.jpg,tissue box,z,sounds/greatgatsby_spanish.wav,,,,,,,,,0,0,0,0,0,190,190,58,523.328088087,8.98016151041e-06,524.135002652,0.806924186647,,,,z,1,0.783768302528,2018_Nov_26_1107,59.9881485422,spanish_cond2,001,1044,
images/orange.jpg,bat,x,sounds/greatgatsby_spanish.wav,,,,,,,,,0,0,0,0,0,191,191,128,525.261490225,9.94233414531e-06,526.985692422,1.72421213868,,,,x,1,1.70065279072,2018_Nov_26_1107,59.9881485422,spanish_cond2,001,1044,
images/swan.jpg,swan,z,sounds/greatgatsby_spanish.wav,,,,,,,,,0,0,0,0,0,192,192,54,528.079415061,7.4727460742e-05,530.003096538,1.92373856553,,,,z,1,1.90070359258,2018_Nov_26_1107,59.9881485422,spanish_cond2,001,1044,
images/backpack01b.jpg,swallow,x,sounds/greatgatsby_spanish.wav,,,,,,,,,0,0,0,0,0,193,193,228,531.135414776,9.62149351835e-06,532.186974783,1.05156962899,,,,x,1,1.03383196529,2018_Nov_26_1107,59.9881485422,spanish_cond2,001,1044,
images/cat.jpg,black olive,x,sounds/greatgatsby_spanish.wav,,,,,,,,,0,0,0,0,0,194,194,133,533.319535163,8.98016151041e-06,534.220792637,0.90126709512,,,,x,1,0.883789854939,2018_Nov_26_1107,59.9881485422,spanish_cond2,001,1044,
images/kiwi03.jpg,backpack,x,sounds/greatgatsby_spanish.wav,,,,,,,,,0,0,0,0,0,195,195,125,535.350975209,9.30076930672e-06,536.738075522,1.387109934,,,,x,1,1.36725103739,2018_Nov_26_1107,59.9881485422,spanish_cond2,001,1044,
images/masquerademask02b.jpg,mirror,x,sounds/greatgatsby_spanish.wav,,,,,,,,,0,0,0,0,0,196,196,204,537.844477771,8.98004509509e-06,538.871943792,1.02747628442,,,,x,1,1.01717512321,2018_Nov_26_1107,59.9881485422,spanish_cond2,001,1044,
images/candycane01a.jpg,lip,x,sounds/greatgatsby_spanish.wav,,,,,,,,,0,0,0,0,0,197,197,200,539.967559954,9.30076930672e-06,541.956019536,1.98846920358,,,,x,1,1.96739478351,2018_Nov_26_1107,59.9881485422,spanish_cond2,001,1044,
images/sunglasses03a.jpg,sun glasses,z,sounds/greatgatsby_spanish.wav,,,,,,,,,0,0,0,0,0,198,198,17,543.066233526,9.62149351835e-06,544.856720562,1.79049794131,,,,z,1,1.76732922858,2018_Nov_26_1107,59.9881485422,spanish_cond2,001,1044,
images/mitten01.jpg,mitten,z,sounds/greatgatsby_spanish.wav,,,,,,,,,0,0,0,0,0,199,199,102,545.979036869,8.98016151041e-06,547.057245386,1.07821781805,,,,z,1,1.06716457161,2018_Nov_26_1107,59.9881485422,spanish_cond2,001,1044,
images/nailpolish02b.jpg,nail polish,z,sounds/greatgatsby_spanish.wav,,,,,,,,,0,0,0,0,0,200,200,94,548.167406458,1.02630583569e-05,549.741250636,1.57385476201,,,,z,1,1.5506331306,2018_Nov_26_1107,59.9881485422,spanish_cond2,001,1044,
images/cockroach02.jpg,belt,x,sounds/greatgatsby_spanish.wav,,,,,,,,,0,0,0,0,0,201,201,129,550.841652881,8.98016151041e-06,553.3421253,2.50048236083,,,,x,1,2.48417830921,2018_Nov_26_1107,59.9881485422,spanish_cond2,001,1044,
images/gluestick.jpg,squirrel,x,sounds/greatgatsby_spanish.wav,,,,,,,,,0,0,0,0,0,202,202,226,554.451315556,9.30076930672e-06,555.225900401,0.77459478809,,,,x,1,0.750420943135,2018_Nov_26_1107,59.9881485422,spanish_cond2,001,1044,
images/ostrich.jpg,ostrich,z,sounds/greatgatsby_spanish.wav,,,,,,,,,0,0,0,0,0,203,203,76,556.327579428,9.94221772999e-06,558.243302594,1.91573310818,,,,z,1,1.90070712031,2018_Nov_26_1107,59.9881485422,spanish_cond2,001,1044,
images/calculator02b.jpg,dice,x,sounds/greatgatsby_spanish.wav,,,,,,,,,0,0,0,0,0,204,204,165,559.346694898,9.62160993367e-06,562.344164429,2.99748011387,,,,None,0,,2018_Nov_26_1107,59.9881485422,spanish_cond2,001,1044,
,,,sounds/greatgatsby_spanish.wav,,,,,,,,,0,0,0,0,,,,,,,,,,,,,,,2018_Nov_26_1107,59.9881485422,spanish_cond2,001,1044,
images/eyedrops.jpg,bicycle,x,sounds/animalfarm_english.wav,,,,,,,,,0,1,1,1,0,0,0,131,583.471380995,9.62160993367e-06,584.583045595,1.11167454242,,,573.347141339,x,1,1.10050455446,2018_Nov_26_1107,59.9881485422,spanish_cond2,001,1044,
images/redfox.jpg,red fox,z,sounds/animalfarm_english.wav,,,,,,,,,0,1,1,1,0,1,1,1,585.693906795,9.94221772999e-06,586.466845072,0.772948218742,,,,z,1,0.750427036895,2018_Nov_26_1107,59.9881485422,spanish_cond2,001,1044,
images/dragonfly02.jpg,dragon fly,z,sounds/animalfarm_english.wav,,,,,,,,,0,1,1,1,0,2,2,29,587.562552638,9.62149351835e-06,588.417320986,0.854778290377,,,,z,1,0.833786294912,2018_Nov_26_1107,59.9881485422,spanish_cond2,001,1044,
images/globe.jpg,cloud,x,sounds/animalfarm_english.wav,,,,,,,,,0,1,1,1,0,3,3,154,589.543929791,8.98016151041e-06,590.484506084,0.940585593693,,,,x,1,0.917151325964,2018_Nov_26_1107,59.9881485422,spanish_cond2,001,1044,
images/masquerademask02b.jpg,mirror,x,sounds/animalfarm_english.wav,,,,,,,,,0,1,1,1,0,4,4,204,591.589063559,9.30076930672e-06,593.085120965,1.49606734829,,,,x,1,1.48393199744,2018_Nov_26_1107,59.9881485422,spanish_cond2,001,1044,
images/birthdaycandle.jpg,birthday candle,z,sounds/animalfarm_english.wav,,,,,,,,,0,1,1,1,0,5,5,55,594.181575165,8.98016151041e-06,595.952506705,1.77094180312,,,,x,0,1.75068585679,2018_Nov_26_1107,59.9881485422,spanish_cond2,001,1044,
images/cigar.jpg,crocodile,x,sounds/animalfarm_english.wav,,,,,,,,,0,1,1,1,0,6,6,162,597.050060327,9.62160993367e-06,598.519785452,1.46973570867,,,,x,1,1.45060323959,2018_Nov_26_1107,59.9881485422,spanish_cond2,001,1044,
images/glasses01b.jpg,calculator,x,sounds/animalfarm_english.wav,,,,,,,,,0,1,1,1,0,7,7,142,599.611901291,9.30088572204e-06,600.386900184,0.775008194381,,,,x,1,0.750433451147,2018_Nov_26_1107,59.9881485422,spanish_cond2,001,1044,
images/bed.jpg,bed,z,sounds/animalfarm_english.wav,,,,,,,,,0,1,1,1,0,8,8,103,601.505587239,9.30076930672e-06,602.587275874,1.08169825631,,,,z,1,1.06701319246,2018_Nov_26_1107,59.9881485422,spanish_cond2,001,1044,
images/flamingo.jpg,flamingo,z,sounds/animalfarm_english.wav,,,,,,,,,0,1,1,1,0,9,9,52,603.68546035,9.30088572204e-06,604.537925618,0.852474889369,,,,z,1,0.833788860589,2018_Nov_26_1107,59.9881485422,spanish_cond2,001,1044,
images/plate01b.jpg,plate,z,sounds/animalfarm_english.wav,,,,,,,,,0,1,1,1,0,10,10,3,605.637105925,9.30088572204e-06,606.738446272,1.10134932736,,,,z,1,1.08383809088,2018_Nov_26_1107,59.9881485422,spanish_cond2,001,1044,
images/lightswitch02a.jpg,fork,x,sounds/animalfarm_english.wav,,,,,,,,,0,1,1,1,0,11,11,177,607.84957848,9.30088572204e-06,610.205953949,2.35638477001,,,,z,0,2.33414582047,2018_Nov_26_1107,59.9881485422,spanish_cond2,001,1044,
images/charcoalbarbecue.jpg,charcoal barbecue,z,sounds/animalfarm_english.wav,,,,,,,,,0,1,1,1,0,12,12,77,611.321801361,9.62149351835e-06,612.406511486,1.08472070855,,,,z,1,1.06719087064,2018_Nov_26_1107,59.9881485422,spanish_cond2,001,1044,
images/skateboard.jpg,key,x,sounds/animalfarm_english.wav,,,,,,,,,0,1,1,1,0,13,13,189,613.497110005,8.98016151041e-06,614.657038266,1.15993820399,,,,x,1,1.1505180567,2018_Nov_26_1107,59.9881485422,spanish_cond2,001,1044,
images/feather03b.jpg,feather,z,sounds/animalfarm_english.wav,,,,,,,,,0,1,1,1,0,14,14,114,615.757161486,9.30088572204e-06,616.657535059,0.900383515283,,,,z,1,0.883788892766,2018_Nov_26_1107,59.9881485422,spanish_cond2,001,1044,
images/mirror02.jpg,8 ball,x,sounds/animalfarm_english.wav,,,,,,,,,0,1,1,1,0,15,15,121,617.75674359,9.62149351835e-06,619.824970061,2.06823705463,,,,x,1,2.05073768494,2018_Nov_26_1107,59.9881485422,spanish_cond2,001,1044,
images/cookingpot.jpg,grasshopper,x,sounds/animalfarm_english.wav,,,,,,,,,0,1,1,1,0,16,16,183,620.938244348,9.30088572204e-06,621.725424134,0.787189408089,,,,x,1,0.767098631826,2018_Nov_26_1107,59.9881485422,spanish_cond2,001,1044,
images/panda.jpg,panda,z,sounds/animalfarm_english.wav,,,,,,,,,0,1,1,1,0,17,17,83,622.83289598,9.62149351835e-06,623.759254817,0.926368778921,,,,z,1,0.917132082861,2018_Nov_26_1107,59.9881485422,spanish_cond2,001,1044,
images/electrictoothbrush01a.jpg,banjo,x,sounds/animalfarm_english.wav,,,,,,,,,0,1,1,1,0,18,18,127,624.853171811,8.98016151041e-06,625.843094832,0.989932642668,,,,x,1,0.967145585106,2018_Nov_26_1107,59.9881485422,spanish_cond2,001,1044,
images/pingpongpaddle01c (1).jpg,ping pong paddle,z,sounds/animalfarm_english.wav,,,,,,,,,0,1,1,1,0,19,19,10,626.953643652,9.62149351835e-06,628.977210697,2.02357762901,,,,z,1,2.00075144367,2018_Nov_26_1107,59.9881485422,spanish_cond2,001,1044,
images/microphone01.jpg,diaper,x,sounds/animalfarm_english.wav,,,,,,,,,0,1,1,1,0,20,20,164,630.077011275,8.65943729877e-06,630.977521794,0.900520141469,,,,x,1,0.883630137076,2018_Nov_26_1107,59.9881485422,spanish_cond2,001,1044,
images/fireextinguisher02.jpg,fire extinguisher,z,sounds/animalfarm_english.wav,,,,,,,,,0,1,1,1,0,21,21,175,632.087805701,8.98016151041e-06,633.594982421,1.50718666275,,,,z,1,1.48391948931,2018_Nov_26_1107,59.9881485422,spanish_cond2,001,1044,
images/butterfly.jpg,butterfly,z,sounds/animalfarm_english.wav,,,,,,,,,0,1,1,1,0,22,22,91,634.701816037,9.30088572204e-06,635.412138173,0.71033207851,,,,z,1,0.70040006435,2018_Nov_26_1107,59.9881485422,spanish_cond2,001,1044,
images/boxingglove02a.jpg,bracelet,x,sounds/animalfarm_english.wav,,,,,,,,,0,1,1,1,0,23,23,135,636.522825865,9.30076930672e-06,637.379235009,0.856418766081,,,,x,1,0.833773786784,2018_Nov_26_1107,59.9881485422,spanish_cond2,001,1044,
images/cactus.jpg,cactus,z,sounds/animalfarm_english.wav,,,,,,,,,0,1,1,1,0,24,24,70,638.490362406,9.30076930672e-06,639.129666857,0.639314072672,,,,z,1,0.61706229439,2018_Nov_26_1107,59.9881485422,spanish_cond2,001,1044,
images/tulip02.jpg,sport shorts,x,sounds/animalfarm_english.wav,,,,,,,,,0,1,1,1,0,25,25,225,640.223481542,8.98004509509e-06,641.746978029,1.5235064294,,,,x,1,1.50061802485,2018_Nov_26_1107,59.9881485422,spanish_cond2,001,1044,
images/coffeepot03b.jpg,coffee pot,z,sounds/animalfarm_english.wav,,,,,,,,,0,1,1,1,0,26,26,107,642.867721211,9.30088572204e-06,644.447695284,1.57998433616,,,,z,1,1.56735732348,2018_Nov_26_1107,59.9881485422,spanish_cond2,001,1044,
images/lamp04b.jpg,parking meter,x,sounds/animalfarm_english.wav,,,,,,,,,0,1,1,1,0,27,27,209,645.567055207,9.30076930672e-06,646.34810125,0.781056305976,,,,x,1,0.767098311102,2018_Nov_26_1107,59.9881485422,spanish_cond2,001,1044,
images/binder03b.jpg,dj mixer,x,sounds/animalfarm_english.wav,,,,,,,,,0,1,1,1,0,28,28,167,647.460315882,8.98004509509e-06,648.982057076,1.52175049495,,,,x,1,1.50060744095,2018_Nov_26_1107,59.9881485422,spanish_cond2,001,1044,
images/fryingpan01.jpg,frying pan,z,sounds/animalfarm_english.wav,,,,,,,,,0,1,1,1,0,29,29,45,650.08231115,9.30076930672e-06,650.949226395,0.8669255079,,,,z,1,0.850466870121,2018_Nov_26_1107,59.9881485422,spanish_cond2,001,1044,
images/nailpolish02b.jpg,nail polish,z,sounds/animalfarm_english.wav,,,,,,,,,0,1,1,1,0,30,30,94,652.058380089,8.98016151041e-06,653.199792944,1.14142247685,,,,z,1,1.11721912597,2018_Nov_26_1107,59.9881485422,spanish_cond2,001,1044,
images/wallet01.jpg,lamp,x,sounds/animalfarm_english.wav,,,,,,,,,0,1,1,1,0,31,31,193,654.306437015,9.62149351835e-06,655.817068516,1.51064112294,,,,x,1,1.50058466999,2018_Nov_26_1107,59.9881485422,spanish_cond2,001,1044,
images/table02.jpg,table,z,sounds/animalfarm_english.wav,,,,,,,,,0,1,1,1,0,32,32,49,656.931752041,8.98016151041e-06,658.601085376,1.66934327735,,,,z,1,1.65065885219,2018_Nov_26_1107,59.9881485422,spanish_cond2,001,1044,
images/graduationcap.jpg,graduation cap,z,sounds/animalfarm_english.wav,,,,,,,,,0,1,1,1,0,33,33,35,659.702999168,8.65943729877e-06,660.53487398,0.831883792067,,,,z,1,0.817105078371,2018_Nov_26_1107,59.9881485422,spanish_cond2,001,1044,
images/broom02.jpg,broom,z,sounds/animalfarm_english.wav,,,,,,,,,0,1,1,1,0,34,34,116,661.627974425,9.30088572204e-06,662.585386841,0.957422679523,,,,z,1,0.933811695897,2018_Nov_26_1107,59.9881485422,spanish_cond2,001,1044,
images/beachumbrella01.jpg,beach umbrella,z,sounds/animalfarm_english.wav,,,,,,,,,0,1,1,1,0,35,35,92,663.691555607,9.30088572204e-06,665.519413098,1.82786711224,,,,z,1,1.81734433444,2018_Nov_26_1107,59.9881485422,spanish_cond2,001,1044,
images/marker01a.jpg,marker,z,sounds/animalfarm_english.wav,,,,,,,,,0,1,1,1,0,36,36,95,666.697629376,9.62149351835e-06,667.819981924,1.122362811,,,,z,1,1.10050615808,2018_Nov_26_1107,59.9881485422,spanish_cond2,001,1044,
images/bandaid01.jpg,door handle,x,sounds/animalfarm_english.wav,,,,,,,,,0,1,1,1,0,37,37,170,668.926676348,9.30088572204e-06,669.903815525,0.97714879876,,,,x,1,0.967140453635,2018_Nov_26_1107,59.9881485422,spanish_cond2,001,1044,
images/thumbtack02a.jpg,thumb tack,z,sounds/animalfarm_english.wav,,,,,,,,,0,1,1,1,0,38,38,60,671.014278393,8.98004509509e-06,671.837621127,0.823352356208,,,,z,1,0.800431558979,2018_Nov_26_1107,59.9881485422,spanish_cond2,001,1044,
images/baseball01a.jpg,baseball,z,sounds/animalfarm_english.wav,,,,,,,,,0,1,1,1,0,39,39,74,672.969273553,8.98016151041e-06,673.654747373,0.685483441572,,,,z,1,0.667090870556,2018_Nov_26_1107,59.9881485422,spanish_cond2,001,1044,
images/kiwi03.jpg,backpack,x,sounds/animalfarm_english.wav,,,,,,,,,0,1,1,1,0,40,40,125,674.782275037,8.98004509509e-06,675.855269952,1.07300485752,,,,x,1,1.05049297668,2018_Nov_26_1107,59.9881485422,spanish_cond2,001,1044,
images/bull.jpg,button,x,sounds/animalfarm_english.wav,,,,,,,,,0,1,1,1,0,41,41,141,676.961136922,8.98004509509e-06,678.989562854,2.0284358745,,,,x,1,2.01759654761,2018_Nov_26_1107,59.9881485422,spanish_cond2,001,1044,
images/blueberry02.jpg,blueberry,z,sounds/animalfarm_english.wav,,,,,,,,,0,1,1,1,0,42,42,46,680.101876909,9.62160993367e-06,680.923169932,0.821302964236,,,,z,1,0.80044053914,2018_Nov_26_1107,59.9881485422,spanish_cond2,001,1044,
images/tie01.jpg,bench,x,sounds/animalfarm_english.wav,,,,,,,,,0,1,1,1,0,43,43,130,682.022603286,9.30076930672e-06,682.840300731,0.817707708571,,,,x,1,0.800434124772,2018_Nov_26_1107,59.9881485422,spanish_cond2,001,1044,
images/candle08a.jpg,screw driver,x,sounds/animalfarm_english.wav,,,,,,,,,0,1,1,1,0,44,44,221,683.954511837,9.30076930672e-06,685.440969815,1.48646791943,,,,x,1,1.46729696426,2018_Nov_26_1107,59.9881485422,spanish_cond2,001,1044,
images/50dollarbill.jpg,cherry,x,sounds/animalfarm_english.wav,,,,,,,,,0,1,1,1,0,45,45,151,686.561097858,9.30076930672e-06,687.274720189,0.713631631574,,,,x,1,0.700410968857,2018_Nov_26_1107,59.9881485422,spanish_cond2,001,1044,
images/cauliflower01.jpg,glue stick,x,sounds/animalfarm_english.wav,,,,,,,,,0,1,1,1,0,46,46,181,688.390796274,9.30076930672e-06,689.525291549,1.13450521766,,,,x,1,1.11720886291,2018_Nov_26_1107,59.9881485422,spanish_cond2,001,1044,
images/lily.jpg,kiwi,x,sounds/animalfarm_english.wav,,,,,,,,,0,1,1,1,0,47,47,190,690.62441958,9.30076930672e-06,691.65913737,1.03472805303,,,,x,1,1.01716806751,2018_Nov_26_1107,59.9881485422,spanish_cond2,001,1044,
images/treadmill.jpg,lily,x,sounds/animalfarm_english.wav,,,,,,,,,0,1,1,1,0,48,48,199,692.763360656,9.62149351835e-06,693.742969046,0.979618332,,,,x,1,0.967144302209,2018_Nov_26_1107,59.9881485422,spanish_cond2,001,1044,
images/highlighter03b.jpg,coin,x,sounds/animalfarm_english.wav,,,,,,,,,0,1,1,1,0,49,49,156,694.844666995,9.30088572204e-06,695.643433703,0.798777292366,,,,x,1,0.783774075564,2018_Nov_26_1107,59.9881485422,spanish_cond2,001,1044,
images/mitten01.jpg,mitten,z,sounds/animalfarm_english.wav,,,,,,,,,0,1,1,1,0,50,50,102,696.763421914,8.98004509509e-06,697.760619474,0.997207502951,,,,z,1,0.983828725992,2018_Nov_26_1107,59.9881485422,spanish_cond2,001,1044,
images/leaf01a.jpg,leaf,z,sounds/animalfarm_english.wav,,,,,,,,,0,1,1,1,0,51,51,68,698.865112806,8.98016151041e-06,699.977807875,1.11270436994,,,,z,1,1.10044554237,2018_Nov_26_1107,59.9881485422,spanish_cond2,001,1044,
images/bracelet02a.jpg,chess knight,x,sounds/animalfarm_english.wav,,,,,,,,,0,1,1,1,0,52,52,152,701.08643944,9.30088572204e-06,702.611780059,1.52535056148,,,,x,1,1.50060968602,2018_Nov_26_1107,59.9881485422,spanish_cond2,001,1044,
images/donut.jpg,rhinoceros,x,sounds/animalfarm_english.wav,,,,,,,,,0,1,1,1,0,53,53,216,703.736161152,9.30088572204e-06,704.54558534,0.809433809831,,,,x,1,0.800434124772,2018_Nov_26_1107,59.9881485422,spanish_cond2,001,1044,
images/handbag02a.jpg,candle,x,sounds/animalfarm_english.wav,,,,,,,,,0,1,1,1,0,54,54,144,705.660595998,9.62160993367e-06,706.646113949,0.985528213903,,,,x,1,0.967159376014,2018_Nov_26_1107,59.9881485422,spanish_cond2,001,1044,
images/cloud.jpg,ceiling fan,x,sounds/animalfarm_english.wav,,,,,,,,,0,1,1,1,0,55,55,149,707.750891437,8.65943729877e-06,708.429869102,0.678986644605,,,,x,1,0.667071627337,2018_Nov_26_1107,59.9881485422,spanish_cond2,001,1044,
images/lychee02a.jpg,lychee,z,sounds/animalfarm_english.wav,,,,,,,,,0,1,1,1,0,56,56,62,709.552410232,8.98016151041e-06,710.397012121,0.844611189561,,,,z,1,0.833778597764,2018_Nov_26_1107,59.9881485422,spanish_cond2,001,1044,
images/daisy.jpg,daisy,z,sounds/animalfarm_english.wav,,,,,,,,,0,1,1,1,0,57,57,6,711.498546824,9.94221772999e-06,712.447522417,0.948985534953,,,,z,1,0.933813620126,2018_Nov_26_1107,59.9881485422,spanish_cond2,001,1044,
images/pictureframe04.jpg,picture frame,z,sounds/animalfarm_english.wav,,,,,,,,,0,1,1,1,0,58,58,41,713.568661686,9.30076930672e-06,715.464913384,1.89626163966,,,,z,1,1.88403841178,2018_Nov_26_1107,59.9881485422,spanish_cond2,001,1044,
images/leek.jpg,donut,x,sounds/animalfarm_english.wav,,,,,,,,,0,1,1,1,0,59,59,169,716.564533717,8.65932088345e-06,718.215578714,1.651054619,,,,x,1,1.63397410768,2018_Nov_26_1107,59.9881485422,spanish_cond2,001,1044,
images/barrel01.jpg,barrel,z,sounds/animalfarm_english.wav,,,,,,,,,0,1,1,1,0,60,60,9,719.344785661,9.94233414531e-06,720.549486562,1.20471148484,,,,z,1,1.18386188825,2018_Nov_26_1107,59.9881485422,spanish_cond2,001,1044,
images/nametag01a.jpg,name tag,z,sounds/animalfarm_english.wav,,,,,,,,,0,1,1,1,0,61,61,108,721.669667845,8.65943729877e-06,722.483292164,0.81363362004,,,,z,1,0.800435407553,2018_Nov_26_1107,59.9881485422,spanish_cond2,001,1044,
images/knife04.jpg,tooth brush,x,sounds/animalfarm_english.wav,,,,,,,,,0,1,1,1,0,62,62,233,723.579283245,8.65932088345e-06,724.650490475,1.07121685124,,,,x,1,1.05050965399,2018_Nov_26_1107,59.9881485422,spanish_cond2,001,1044,
images/lipstick04.jpg,lipstick,z,sounds/animalfarm_english.wav,,,,,,,,,0,1,1,1,0,63,63,56,725.749323123,9.30088572204e-06,726.817675637,1.06836213497,,,,z,1,1.0504974667,2018_Nov_26_1107,59.9881485422,spanish_cond2,001,1044,
images/hammer02a.jpg,flower,x,sounds/animalfarm_english.wav,,,,,,,,,0,1,1,1,0,64,64,176,727.911771913,9.62160993367e-06,729.13512228,1.22338564682,,,,x,1,1.20070410566,2018_Nov_26_1107,59.9881485422,spanish_cond2,001,1044,
images/cheetah.jpg,cheetah,z,sounds/animalfarm_english.wav,,,,,,,,,0,1,1,1,0,65,65,82,730.236247425,8.98016151041e-06,732.302361002,2.0661238397,,,,z,1,2.05076013517,2018_Nov_26_1107,59.9881485422,spanish_cond2,001,1044,
images/backpack01b.jpg,swallow,x,sounds/animalfarm_english.wav,,,,,,,,,0,1,1,1,0,66,66,228,733.432569232,8.98004509509e-06,734.13612196,0.703562029172,,,,x,1,0.68374290166,2018_Nov_26_1107,59.9881485422,spanish_cond2,001,1044,
images/giraffe.jpg,lettuce,x,sounds/animalfarm_english.wav,,,,,,,,,0,1,1,1,0,67,67,195,735.236345245,9.30088572204e-06,736.136610415,0.900274791755,,,,x,1,0.883792099892,2018_Nov_26_1107,59.9881485422,spanish_cond2,001,1044,
images/bowl02b (1).jpg,bowl,z,sounds/animalfarm_english.wav,,,,,,,,,0,1,1,1,0,68,68,24,737.253416134,9.30076930672e-06,738.003723222,0.750316709629,,,,z,1,0.73374902748,2018_Nov_26_1107,59.9881485422,spanish_cond2,001,1044,
images/honeycomb.jpg,honey comb,z,sounds/animalfarm_english.wav,,,,,,,,,0,1,1,1,0,69,69,59,739.115296097,9.62160993367e-06,739.820831187,0.705545032513,,,,z,1,0.683721413603,2018_Nov_26_1107,59.9881485422,spanish_cond2,001,1044,
images/bus.jpg,microphone,x,sounds/animalfarm_english.wav,,,,,,,,,0,1,1,1,0,70,70,203,740.93845955,8.98004509509e-06,741.621281348,0.682831419399,,,,x,1,0.667071627337,2018_Nov_26_1107,59.9881485422,spanish_cond2,001,1044,
images/snowman.jpg,globe,x,sounds/animalfarm_english.wav,,,,,,,,,0,1,1,1,0,71,71,180,742.731890142,9.30088572204e-06,743.655107861,0.923227340099,,,,x,1,0.900438358192,2018_Nov_26_1107,59.9881485422,spanish_cond2,001,1044,
images/8ball.jpg,nail clipper,x,sounds/animalfarm_english.wav,,,,,,,,,0,1,1,1,0,72,72,206,744.770678172,1.31494598463e-05,746.322432215,1.55176462594,,,,x,1,1.53395640408,2018_Nov_26_1107,59.9881485422,spanish_cond2,001,1044,
images/stapler03a.jpg,candy cane,x,sounds/animalfarm_english.wav,,,,,,,,,0,1,1,1,0,73,73,145,747.432181804,9.30076930672e-06,748.389596786,0.957424283144,,,,x,1,0.933801432839,2018_Nov_26_1107,59.9881485422,spanish_cond2,001,1044,
images/toucan.jpg,toucan,z,sounds/animalfarm_english.wav,,,,,,,,,0,1,1,1,0,74,74,81,749.490993259,9.62160993367e-06,750.35673724,0.865753922844,,,,x,0,0.850447627017,2018_Nov_26_1107,59.9881485422,spanish_cond2,001,1044,
images/flashlight05.jpg,flash light,z,sounds/animalfarm_english.wav,,,,,,,,,0,1,1,1,0,75,75,8,751.458686632,8.98016151041e-06,753.507506419,2.04882908845,,,,z,1,2.03405422333,2018_Nov_26_1107,59.9881485422,spanish_cond2,001,1044,
images/pepper05a.jpg,lighter,x,sounds/animalfarm_english.wav,,,,,,,,,0,1,1,1,0,76,76,198,754.628493027,1.12252309918e-05,755.69136927,1.06288714753,,,,x,1,1.05048944871,2018_Nov_26_1107,59.9881485422,spanish_cond2,001,1044,
images/pipe.jpg,icecube,x,sounds/animalfarm_english.wav,,,,,,,,,0,1,1,1,0,77,77,188,756.799171135,8.98016151041e-06,757.941921387,1.14275955281,,,,x,1,1.13384646177,2018_Nov_26_1107,59.9881485422,spanish_cond2,001,1044,
images/diploma01.jpg,glasses,x,sounds/animalfarm_english.wav,,,,,,,,,0,1,1,1,0,78,78,179,759.073164255,7.21616670489e-05,759.975746938,0.902627262753,,,,x,1,0.88379370363,2018_Nov_26_1107,59.9881485422,spanish_cond2,001,1044,
images/computerkeyboard01a.jpg,computer keyboard,z,sounds/animalfarm_english.wav,,,,,,,,,0,1,1,1,0,79,79,61,761.092577994,9.30076930672e-06,761.826200017,0.733632606571,,,,z,1,0.717090581777,2018_Nov_26_1107,59.9881485422,spanish_cond2,001,1044,
images/gluestick.jpg,squirrel,x,sounds/animalfarm_english.wav,,,,,,,,,0,1,1,1,0,80,80,226,762.934106436,9.30088572204e-06,764.443504133,1.50940795988,,,,x,1,1.50059653667,2018_Nov_26_1107,59.9881485422,spanish_cond2,001,1044,
images/straw.jpg,straw,z,sounds/animalfarm_english.wav,,,,,,,,,0,1,1,1,0,81,81,109,765.534708489,9.62160993367e-06,766.277279844,0.742580976686,,,,z,1,0.733697391697,2018_Nov_26_1107,59.9881485422,spanish_cond2,001,1044,
images/bowlingball.jpg,bowling ball,z,sounds/animalfarm_english.wav,,,,,,,,,0,1,1,1,0,82,82,20,767.409188845,9.30076930672e-06,768.344446661,0.935267758323,,,,z,1,0.917134648538,2018_Nov_26_1107,59.9881485422,spanish_cond2,001,1044,
images/bat.jpg,hand,x,sounds/animalfarm_english.wav,,,,,,,,,0,1,1,1,0,83,83,185,769.444101632,1.02630583569e-05,770.278271506,0.834180137375,,,,x,1,0.81712015206,2018_Nov_26_1107,59.9881485422,spanish_cond2,001,1044,
images/grasshopper.jpg,cauliflower,x,sounds/animalfarm_english.wav,,,,,,,,,0,1,1,1,0,84,84,148,771.370495748,9.30076930672e-06,772.31193766,0.941452496103,,,,x,1,0.916988080251,2018_Nov_26_1107,59.9881485422,spanish_cond2,001,1044,
images/tent.jpg,tent,z,sounds/animalfarm_english.wav,,,,,,,,,0,1,1,1,0,85,85,11,773.438953136,9.94233414531e-06,774.345912987,0.906970113516,,,,z,1,0.883786006249,2018_Nov_26_1107,59.9881485422,spanish_cond2,001,1044,
images/atm.jpg,atm,z,sounds/animalfarm_english.wav,,,,,,,,,0,1,1,1,0,86,86,96,775.482336422,9.30076930672e-06,777.463359181,1.98103334254,,,,z,1,1.96741402661,2018_Nov_26_1107,59.9881485422,spanish_cond2,001,1044,
images/doorhandle.jpg,doll,x,sounds/animalfarm_english.wav,,,,,,,,,0,1,1,1,0,87,87,168,778.565931088,8.98016151041e-06,779.747225303,1.18130415736,,,,x,1,1.1671915761,2018_Nov_26_1107,59.9881485422,spanish_cond2,001,1044,
images/paperclip04.jpg,eye drops,x,sounds/animalfarm_english.wav,,,,,,,,,0,1,1,1,0,88,88,174,780.851874183,9.30088572204e-06,781.714375378,0.862511457643,,,,x,1,0.850445381948,2018_Nov_26_1107,59.9881485422,spanish_cond2,001,1044,
images/aquarium.jpg,computer mouse,x,sounds/animalfarm_english.wav,,,,,,,,,0,1,1,1,0,89,89,159,782.84903422,9.62149351835e-06,784.064946802,1.21592252457,,,,x,1,1.20052418252,2018_Nov_26_1107,59.9881485422,spanish_cond2,001,1044,
images/blackolive.jpg,tank,x,sounds/animalfarm_english.wav,,,,,,,,,0,1,1,1,0,90,90,229,785.179694791,9.30088572204e-06,786.015429773,0.835744602839,,,,x,1,0.817118869163,2018_Nov_26_1107,59.9881485422,spanish_cond2,001,1044,
images/tissuebox03.jpg,tissue box,z,sounds/animalfarm_english.wav,,,,,,,,,0,1,1,1,0,91,91,58,787.140434984,9.62160993367e-06,787.799189095,0.658763732412,,,,z,1,0.650403239531,2018_Nov_26_1107,59.9881485422,spanish_cond2,001,1044,
images/mushroom01.jpg,shower head,x,sounds/animalfarm_english.wav,,,,,,,,,0,1,1,1,0,92,92,222,788.91669783,9.30088572204e-06,789.866370023,0.949682456441,,,,x,1,0.933809771552,2018_Nov_26_1107,59.9881485422,spanish_cond2,001,1044,
images/icecube02 (2).jpg,aloe,x,sounds/animalfarm_english.wav,,,,,,,,,0,1,1,1,0,93,93,122,790.977143988,9.62160993367e-06,792.216940486,1.23980708141,,,,x,1,1.21720026759,2018_Nov_26_1107,59.9881485422,spanish_cond2,001,1044,
images/lighter02b.jpg,stapler,x,sounds/animalfarm_english.wav,,,,,,,,,0,1,1,1,0,94,94,227,793.318510788,8.98016151041e-06,795.184316347,1.8658148594,,,,x,1,1.85069522168,2018_Nov_26_1107,59.9881485422,spanish_cond2,001,1044,
images/puma.jpg,puma,z,sounds/animalfarm_english.wav,,,,,,,,,0,1,1,1,0,95,95,4,796.283353613,8.98016151041e-06,797.584916668,1.30157267582,,,,z,1,1.28389209998,2018_Nov_26_1107,59.9881485422,spanish_cond2,001,1044,
images/bicycle.jpg,hand bag,x,sounds/animalfarm_english.wav,,,,,,,,,0,1,1,1,0,96,96,186,798.695537008,9.30088572204e-06,799.585382672,0.889855285408,,,,x,1,0.867105751764,2018_Nov_26_1107,59.9881485422,spanish_cond2,001,1044,
images/handfan01b.jpg,handfan,z,sounds/animalfarm_english.wav,,,,,,,,,0,1,1,1,0,97,97,69,800.699486337,8.98016151041e-06,801.835938317,1.13646160136,,,,z,1,1.11717807385,2018_Nov_26_1107,59.9881485422,spanish_cond2,001,1044,
images/flower01.jpg,bus,x,sounds/animalfarm_english.wav,,,,,,,,,0,1,1,1,0,98,98,140,802.950189513,9.62149351835e-06,803.903114755,0.952934543253,,,,x,1,0.933816827368,2018_Nov_26_1107,59.9881485422,spanish_cond2,001,1044,
images/gamecontroller01.jpg,game controller,z,sounds/animalfarm_english.wav,,,,,,,,,0,1,1,1,0,99,99,112,805.023071214,8.98004509509e-06,807.120554279,2.09749300673,,,,z,1,2.08408376144,2018_Nov_26_1107,59.9881485422,spanish_cond2,001,1044,
images/cola.jpg,comb,x,sounds/animalfarm_english.wav,,,,,,,,,0,1,1,1,0,100,100,157,808.241724016,9.30088572204e-06,809.221066851,0.979352777009,,,,x,1,0.96713852929,2018_Nov_26_1107,59.9881485422,spanish_cond2,001,1044,
images/floorlamp.jpg,floor lamp,z,sounds/animalfarm_english.wav,,,,,,,,,0,1,1,1,0,101,101,26,810.313584229,9.30088572204e-06,811.138202462,0.824628174887,,,,z,1,0.800434445497,2018_Nov_26_1107,59.9881485422,spanish_cond2,001,1044,
images/triangleruler02.jpg,bottle of red wine,x,sounds/animalfarm_english.wav,,,,,,,,,0,1,1,1,0,102,102,134,812.2485271,8.98016151041e-06,813.522123491,1.27360793692,,,,x,1,1.25055821077,2018_Nov_26_1107,59.9881485422,spanish_cond2,001,1044,
images/sunglasses03a.jpg,sun glasses,z,sounds/animalfarm_english.wav,,,,,,,,,0,1,1,1,0,103,103,17,814.630718814,8.98004509509e-06,815.589289025,0.958584322361,,,,z,1,0.950445766794,2018_Nov_26_1107,59.9881485422,spanish_cond2,001,1044,
images/diaper01a.jpg,camera,x,sounds/animalfarm_english.wav,,,,,,,,,0,1,1,1,0,104,104,143,816.709118479,9.94221772999e-06,817.639797396,0.93068853789,,,,x,1,0.917142345919,2018_Nov_26_1107,59.9881485422,spanish_cond2,001,1044,
images/parkfountain.jpg,park fountain,z,sounds/animalfarm_english.wav,,,,,,,,,0,1,1,1,0,105,105,93,818.760677845,8.98016151041e-06,819.573587924,0.812919058953,,,,z,1,0.800429313909,2018_Nov_26_1107,59.9881485422,spanish_cond2,001,1044,
images/fork01.jpg,cooking pot,x,sounds/animalfarm_english.wav,,,,,,,,,0,1,1,1,0,106,106,160,820.667076438,8.98004509509e-06,821.624092126,0.957025629818,,,,x,1,0.933804960805,2018_Nov_26_1107,59.9881485422,spanish_cond2,001,1044,
images/antelope.jpg,antelope,z,sounds/animalfarm_english.wav,,,,,,,,,0,1,1,1,0,107,107,12,822.727443058,8.98004509509e-06,823.507887112,0.780454317108,,,,z,1,0.767098631943,2018_Nov_26_1107,59.9881485422,spanish_cond2,001,1044,
images/flipflop01b.jpg,flip flop,z,sounds/animalfarm_english.wav,,,,,,,,,0,1,1,1,0,108,108,27,824.624767239,9.30076930672e-06,825.325011434,0.700254137395,,,,z,1,0.68376342766,2018_Nov_26_1107,59.9881485422,spanish_cond2,001,1044,
images/pen03c.jpg,pepper,x,sounds/animalfarm_english.wav,,,,,,,,,0,1,1,1,0,109,109,211,826.419169929,2.56574712694e-05,827.508983328,1.0898384155,,,,x,1,1.06729350053,2018_Nov_26_1107,59.9881485422,spanish_cond2,001,1044,
images/showerhead01.jpg,skateboard,x,sounds/animalfarm_english.wav,,,,,,,,,0,1,1,1,0,110,110,223,828.616137342,9.30088572204e-06,829.592694094,0.97656637372,,,,x,1,0.967145585106,2018_Nov_26_1107,59.9881485422,spanish_cond2,001,1044,
images/parrot01.jpg,chameleon,x,sounds/animalfarm_english.wav,,,,,,,,,0,1,1,1,0,111,111,150,830.706074539,9.30088572204e-06,832.159990481,1.45392556372,,,,x,1,1.43392811669,2018_Nov_26_1107,59.9881485422,spanish_cond2,001,1044,
images/bullet (2).jpg,rubber glove,x,sounds/animalfarm_english.wav,,,,,,,,,0,1,1,1,0,112,112,217,833.265216655,9.30076930672e-06,834.227153128,0.961946415599,,,,x,1,0.950457312632,2018_Nov_26_1107,59.9881485422,spanish_cond2,001,1044,
images/corkscrew02a.jpg,masquerade mask,x,sounds/animalfarm_english.wav,,,,,,,,,0,1,1,1,0,113,113,201,835.331511759,9.62160993367e-06,836.594410259,1.26290876395,,,,x,1,1.25055628642,2018_Nov_26_1107,59.9881485422,spanish_cond2,001,1044,
images/volleyball.jpg,volley ball,z,sounds/animalfarm_english.wav,,,,,,,,,0,1,1,1,0,114,114,2,837.727460056,9.62160993367e-06,838.444853076,0.717402641079,,,,z,1,0.700410327292,2018_Nov_26_1107,59.9881485422,spanish_cond2,001,1044,
images/nailclipper03a.jpg,aquarium,x,sounds/animalfarm_english.wav,,,,,,,,,0,1,1,1,0,115,115,123,839.544316898,8.98016151041e-06,840.278624297,0.734317340772,,,,x,1,0.717084808974,2018_Nov_26_1107,59.9881485422,spanish_cond2,001,1044,
images/lettuce.jpg,mushroom,x,sounds/animalfarm_english.wav,,,,,,,,,0,1,1,1,0,116,116,205,841.403740156,8.98016151041e-06,842.912607385,1.50887652917,,,,x,1,1.50060615817,2018_Nov_26_1107,59.9881485422,spanish_cond2,001,1044,
images/mailbox01.jpg,mail box,z,sounds/animalfarm_english.wav,,,,,,,,,0,1,1,1,0,117,117,73,844.032112914,9.30088572204e-06,844.713042472,0.680939179612,,,,z,1,0.66706809937,2018_Nov_26_1107,59.9881485422,spanish_cond2,001,1044,
images/aloe02.jpg,broad sword,x,sounds/animalfarm_english.wav,,,,,,,,,0,1,1,1,0,118,118,137,845.833519778,9.62160993367e-06,846.64685096,0.813340803958,,,,x,1,0.800444387714,2018_Nov_26_1107,59.9881485422,spanish_cond2,001,1044,
images/peach01.jpg,peach,z,sounds/animalfarm_english.wav,,,,,,,,,0,1,1,1,0,119,119,106,847.777066887,9.30088572204e-06,848.647335566,0.870278300368,,,,z,1,0.85045211704,2018_Nov_26_1107,59.9881485422,spanish_cond2,001,1044,
images/notebook02b.jpg,notebook,z,sounds/animalfarm_english.wav,,,,,,,,,0,1,1,1,0,120,120,7,849.755185218,8.65943729877e-06,850.447770011,0.692594094086,,,,z,1,0.683731676545,2018_Nov_26_1107,59.9881485422,spanish_cond2,001,1044,
images/dreamcatcher.jpg,dream catcher,z,sounds/animalfarm_english.wav,,,,,,,,,0,1,1,1,0,121,121,48,851.547075399,9.62149351835e-06,852.548298941,1.00123252161,,,,z,1,0.983829688164,2018_Nov_26_1107,59.9881485422,spanish_cond2,001,1044,
images/umbrella01.jpg,umbrella,z,sounds/animalfarm_english.wav,,,,,,,,,0,1,1,1,0,122,122,53,853.662561041,8.65943729877e-06,854.998874278,1.33632253774,,,,z,1,1.31722502713,2018_Nov_26_1107,59.9881485422,spanish_cond2,001,1044,
images/sock03.jpg,sock,z,sounds/animalfarm_english.wav,,,,,,,,,0,1,1,1,0,123,123,90,856.104811485,1.02630583569e-05,857.716204757,1.61140321451,,,,z,1,1.60062225827,2018_Nov_26_1107,59.9881485422,spanish_cond2,001,1044,
images/cherry01.jpg,highlighter,x,sounds/animalfarm_english.wav,,,,,,,,,0,1,1,1,0,124,124,187,858.825300722,9.30088572204e-06,860.016769735,1.19147831399,,,,x,1,1.16719959409,2018_Nov_26_1107,59.9881485422,spanish_cond2,001,1044,
images/coin01b.jpg,arrow,x,sounds/animalfarm_english.wav,,,,,,,,,0,1,1,1,0,125,125,124,861.120049147,8.98016151041e-06,862.684084146,1.56404462096,,,,x,1,1.55061901896,2018_Nov_26_1107,59.9881485422,spanish_cond2,001,1044,
images/apricot.jpg,apricot,z,sounds/animalfarm_english.wav,,,,,,,,,0,1,1,1,0,126,126,32,863.80114163,9.62149351835e-06,864.517866272,0.716734584188,,,,z,1,0.700409365236,2018_Nov_26_1107,59.9881485422,spanish_cond2,001,1044,
images/dresser02.jpg,dresser,z,sounds/animalfarm_english.wav,,,,,,,,,0,1,1,1,0,127,127,87,865.640333317,8.98016151041e-06,866.435017919,0.794694544398,,,,z,1,0.783779207035,2018_Nov_26_1107,59.9881485422,spanish_cond2,001,1044,
images/puzzle.jpg,puzzle,z,sounds/animalfarm_english.wav,,,,,,,,,0,1,1,1,0,128,128,57,867.555282909,8.98016151041e-06,868.235435687,0.680162399076,,,,z,1,0.667075476027,2018_Nov_26_1107,59.9881485422,spanish_cond2,001,1044,
images/screw03c.jpg,screw,z,sounds/animalfarm_english.wav,,,,,,,,,0,1,1,1,0,129,129,84,869.331004702,8.98016151041e-06,870.236205411,0.9052103305,,,,z,1,0.884079784504,2018_Nov_26_1107,59.9881485422,spanish_cond2,001,1044,
images/parkbench03.jpg,park bench,z,sounds/animalfarm_english.wav,,,,,,,,,0,1,1,1,0,130,130,71,871.341544799,8.98016151041e-06,872.353110233,1.01157505554,,,,z,1,1.00049102027,2018_Nov_26_1107,59.9881485422,spanish_cond2,001,1044,
images/belt02a.jpg,snowman,x,sounds/animalfarm_english.wav,,,,,,,,,0,1,1,1,0,131,131,224,873.457178613,8.65943729877e-06,874.436948324,0.97977933276,,,,x,1,0.967152320198,2018_Nov_26_1107,59.9881485422,spanish_cond2,001,1044,
images/parkingmeter.jpg,ear,x,sounds/animalfarm_english.wav,,,,,,,,,0,1,1,1,0,132,132,171,875.539876549,9.62149351835e-06,877.937797908,2.39793098008,,,,x,1,2.38415643631,2018_Nov_26_1107,59.9881485422,spanish_cond2,001,1044,
images/seagull.jpg,seagull,z,sounds/animalfarm_english.wav,,,,,,,,,0,1,1,1,0,133,133,50,879.046238644,8.98016151041e-06,879.954952826,0.908724123612,,,,z,1,0.900456959847,2018_Nov_26_1107,59.9881485422,spanish_cond2,001,1044,
images/calculator02b.jpg,dice,x,sounds/animalfarm_english.wav,,,,,,,,,0,1,1,1,0,134,134,165,881.057386503,8.98016151041e-06,881.922096807,0.864720246755,,,,x,1,0.850439288304,2018_Nov_26_1107,59.9881485422,spanish_cond2,001,1044,
images/drink.jpg,drink,z,sounds/animalfarm_english.wav,,,,,,,,,0,1,1,1,0,135,135,117,883.022123812,9.30076930672e-06,883.939256536,0.917142025079,,,,x,0,0.900463053607,2018_Nov_26_1107,59.9881485422,spanish_cond2,001,1044,
images/hairpin.jpg,hair pin,z,sounds/animalfarm_english.wav,,,,,,,,,0,1,1,1,0,136,136,28,885.030220032,9.30088572204e-06,885.773034813,0.74282472278,,,,z,1,0.733753196779,2018_Nov_26_1107,59.9881485422,spanish_cond2,001,1044,
images/axe01.jpg,axe,z,sounds/animalfarm_english.wav,,,,,,,,,0,1,1,1,0,137,137,104,886.876020126,8.98016151041e-06,887.906884161,1.03087365685,,,,z,1,1.01714882429,2018_Nov_26_1107,59.9881485422,spanish_cond2,001,1044,
images/crocodile.jpg,triangle ruler,x,sounds/animalfarm_english.wav,,,,,,,,,0,1,1,1,0,138,138,235,889.004901863,8.65943729877e-06,889.740679757,0.735786873498,,,,x,1,0.717096675537,2018_Nov_26_1107,59.9881485422,spanish_cond2,001,1044,
images/bench02.jpg,electric toothbrush,x,sounds/animalfarm_english.wav,,,,,,,,,0,1,1,1,0,139,139,172,890.849740763,9.30076930672e-06,891.741155703,0.891424561501,,,,x,1,0.86712467426,2018_Nov_26_1107,59.9881485422,spanish_cond2,001,1044,
images/beermug01b.jpg,beer mug,z,sounds/animalfarm_english.wav,,,,,,,,,0,1,1,1,0,140,140,111,892.859413637,8.98004509509e-06,893.741653458,0.882249443326,,,,z,1,0.86710190319,2018_Nov_26_1107,59.9881485422,spanish_cond2,001,1044,
images/lip.jpg,boxing glove,x,sounds/animalfarm_english.wav,,,,,,,,,0,1,1,1,0,141,141,136,894.845244288,8.98004509509e-06,896.075551043,1.23031605536,,,,x,1,1.21720764413,2018_Nov_26_1107,59.9881485422,spanish_cond2,001,1044,
images/weight01.jpg,weight,z,sounds/animalfarm_english.wav,,,,,,,,,0,1,1,1,0,142,142,67,897.180162078,8.65943729877e-06,898.326093859,1.14594140218,,,,z,1,1.1338509518,2018_Nov_26_1107,59.9881485422,spanish_cond2,001,1044,
images/cocktailshrimp01.jpg,cocktail shrimp,z,sounds/animalfarm_english.wav,,,,,,,,,0,1,1,1,0,143,143,30,899.441257499,9.30088572204e-06,900.293238482,0.851990604308,,,,z,1,0.833773466176,2018_Nov_26_1107,59.9881485422,spanish_cond2,001,1044,
images/medal01.jpg,medal,z,sounds/animalfarm_english.wav,,,,,,,,,0,1,1,1,0,144,144,115,901.394901151,8.98016151041e-06,902.343987392,0.949095862219,,,,x,0,0.934036198887,2018_Nov_26_1107,59.9881485422,spanish_cond2,001,1044,
images/spoon02b.jpg,spoon,z,sounds/animalfarm_english.wav,,,,,,,,,0,1,1,1,0,145,145,38,903.435760703,9.62160993367e-06,904.510950937,1.07520113874,,,,x,0,1.05051606835,2018_Nov_26_1107,59.9881485422,spanish_cond2,001,1044,
images/candycane01a.jpg,lip,x,sounds/animalfarm_english.wav,,,,,,,,,0,1,1,1,0,146,146,200,905.604926302,9.62149351835e-06,906.378063103,0.773147064261,,,,x,1,0.750408435124,2018_Nov_26_1107,59.9881485422,spanish_cond2,001,1044,
images/radish01.jpg,raisin,x,sounds/animalfarm_english.wav,,,,,,,,,0,1,1,1,0,147,147,214,907.490525651,8.65943729877e-06,908.895327707,1.40481199801,,,,x,1,1.38391076575,2018_Nov_26_1107,59.9881485422,spanish_cond2,001,1044,
images/lemon02.jpg,lemon,z,sounds/animalfarm_english.wav,,,,,,,,,0,1,1,1,0,148,148,14,910.007452538,9.62160993367e-06,912.079452585,2.0720103092,,,,z,1,2.05075564515,2018_Nov_26_1107,59.9881485422,spanish_cond2,001,1044,
images/rubberglove02a.jpg,lady bug,x,sounds/animalfarm_english.wav,,,,,,,,,0,1,1,1,0,149,149,192,913.184122953,8.98016151041e-06,914.179953611,0.995840279618,,,,x,1,0.983817821485,2018_Nov_26_1107,59.9881485422,spanish_cond2,001,1044,
images/gps.jpg,gps,z,sounds/animalfarm_english.wav,,,,,,,,,0,1,1,1,0,150,150,21,915.298541885,9.30088572204e-06,916.030429141,0.731897518854,,,,z,1,0.717111749342,2018_Nov_26_1107,59.9881485422,spanish_cond2,001,1044,
images/lightbulb03b.jpg,treadmill,x,sounds/animalfarm_english.wav,,,,,,,,,0,1,1,1,0,151,151,234,917.134977957,8.98016151041e-06,917.897521743,0.762553407694,,,,x,1,0.750417094561,2018_Nov_26_1107,59.9881485422,spanish_cond2,001,1044,
images/lollipop03b.jpg,lollipop,z,sounds/animalfarm_english.wav,,,,,,,,,0,1,1,1,0,152,152,42,918.99073925,9.62160993367e-06,919.681289725,0.69056073809,,,,z,1,0.667066495866,2018_Nov_26_1107,59.9881485422,spanish_cond2,001,1044,
images/basketball01.jpg,basket ball,z,sounds/animalfarm_english.wav,,,,,,,,,0,1,1,1,0,153,153,33,920.820492829,9.30088572204e-06,921.448388678,0.62790579081,,,,z,1,0.617057483643,2018_Nov_26_1107,59.9881485422,spanish_cond2,001,1044,
images/electricguitar02.jpg,electric guitar,z,sounds/animalfarm_english.wav,,,,,,,,,0,1,1,1,0,154,154,100,922.550335183,8.98016151041e-06,923.532351528,0.98202596663,,,,z,1,0.96726232674,2018_Nov_26_1107,59.9881485422,spanish_cond2,001,1044,
images/ashtray02b.jpg,ashtray,z,sounds/animalfarm_english.wav,,,,,,,,,0,1,1,1,0,155,155,43,924.644809266,9.30088572204e-06,925.849461738,1.20466273557,,,,z,1,1.18386188825,2018_Nov_26_1107,59.9881485422,spanish_cond2,001,1044,
images/tank.jpg,wallet,x,sounds/animalfarm_english.wav,,,,,,,,,0,1,1,1,0,156,156,237,926.953962767,9.30088572204e-06,927.733265704,0.779312879662,,,,x,1,0.76711210201,2018_Nov_26_1107,59.9881485422,spanish_cond2,001,1044,
images/acousticguitar02.jpg,acoustic guitar,z,sounds/animalfarm_english.wav,,,,,,,,,0,1,1,1,0,157,157,97,928.846398875,8.98004509509e-06,929.450333515,0.603944261675,,,,z,1,0.583712690044,2018_Nov_26_1107,59.9881485422,spanish_cond2,001,1044,
images/corn01.jpg,corn,z,sounds/animalfarm_english.wav,,,,,,,,,0,1,1,1,0,158,158,22,930.549796697,9.30076930672e-06,931.617545617,1.06775950466,,,,z,1,1.05051799258,2018_Nov_26_1107,59.9881485422,spanish_cond2,001,1044,
images/orange.jpg,bat,x,sounds/animalfarm_english.wav,,,,,,,,,0,1,1,1,0,159,159,128,932.742701567,9.62149351835e-06,933.718059794,0.975368168904,,,,x,1,0.950489063747,2018_Nov_26_1107,59.9881485422,spanish_cond2,001,1044,
images/scissors04a.jpg,leek,x,sounds/animalfarm_english.wav,,,,,,,,,0,1,1,1,0,160,160,194,934.812365499,9.30088572204e-06,935.701861579,0.889505702071,,,,x,1,0.867126277764,2018_Nov_26_1107,59.9881485422,spanish_cond2,001,1044,
images/worldmap.jpg,scooter,x,sounds/animalfarm_english.wav,,,,,,,,,0,1,1,1,0,161,161,220,936.833049604,9.62149351835e-06,937.60231437,0.769274707651,,,,x,1,0.750411642366,2018_Nov_26_1107,59.9881485422,spanish_cond2,001,1044,
images/chameleon.jpg,50 dollar bill,x,sounds/animalfarm_english.wav,,,,,,,,,0,1,1,1,0,162,162,120,938.712783652,8.98016151041e-06,939.586139247,0.873365537846,,,,x,1,0.85044987197,2018_Nov_26_1107,59.9881485422,spanish_cond2,001,1044,
images/plant01.jpg,plant,z,sounds/animalfarm_english.wav,,,,,,,,,0,1,1,1,0,163,163,47,940.697850351,9.62149351835e-06,941.40324208,0.705401671119,,,,z,1,0.683739053085,2018_Nov_26_1107,59.9881485422,spanish_cond2,001,1044,
images/hairband.jpg,hairband,z,sounds/animalfarm_english.wav,,,,,,,,,0,1,1,1,0,164,164,66,942.515126052,9.62149351835e-06,943.487094283,0.971978814574,,,,z,1,0.950481366599,2018_Nov_26_1107,59.9881485422,spanish_cond2,001,1044,
images/grandpiano.jpg,tulip,x,sounds/animalfarm_english.wav,,,,,,,,,0,1,1,1,0,165,165,236,944.602983068,8.65943729877e-06,945.420913997,0.817940550274,,,,x,1,0.80045721645,2018_Nov_26_1107,59.9881485422,spanish_cond2,001,1044,
images/printer03a.jpg,printer,z,sounds/animalfarm_english.wav,,,,,,,,,0,1,1,1,0,166,166,72,946.530466986,9.30088572204e-06,947.988194669,1.45773794595,,,,z,1,1.43393870047,2018_Nov_26_1107,59.9881485422,spanish_cond2,001,1044,
images/desktopcomputer.jpg,desktop computer,z,sounds/animalfarm_english.wav,,,,,,,,,0,1,1,1,0,167,167,16,949.124532472,8.98016151041e-06,949.988680237,0.864157385542,,,,z,1,0.850453720661,2018_Nov_26_1107,59.9881485422,spanish_cond2,001,1044,
images/ostrich.jpg,ostrich,z,sounds/animalfarm_english.wav,,,,,,,,,0,1,1,1,0,168,168,76,951.088988832,9.30076930672e-06,951.905801736,0.81682252523,,,,z,1,0.800435728277,2018_Nov_26_1107,59.9881485422,spanish_cond2,001,1044,
images/egg01b (1).jpg,egg,z,sounds/animalfarm_english.wav,,,,,,,,,0,1,1,1,0,169,169,19,953.018627337,1.02629419416e-05,953.656242243,0.637625489151,,,,z,1,0.617071916,2018_Nov_26_1107,59.9881485422,spanish_cond2,001,1044,
images/djmixer01.jpg,light bulb,x,sounds/animalfarm_english.wav,,,,,,,,,0,1,1,1,0,170,170,196,954.777795881,9.30088572204e-06,955.540015741,0.762230123277,,,,x,1,0.750409397297,2018_Nov_26_1107,59.9881485422,spanish_cond2,001,1044,
images/bowtie.jpg,bowtie,z,sounds/animalfarm_english.wav,,,,,,,,,0,1,1,1,0,171,171,89,956.650869885,8.98016151041e-06,959.4909846,2.84012433619,,,,z,1,2.81759706058,2018_Nov_26_1107,59.9881485422,spanish_cond2,001,1044,
images/cat.jpg,black olive,x,sounds/animalfarm_english.wav,,,,,,,,,0,1,1,1,0,172,172,133,960.620692509,9.30076930672e-06,961.858224412,1.23754216637,,,,x,1,1.21720155049,2018_Nov_26_1107,59.9881485422,spanish_cond2,001,1044,
images/shotglass.jpg,shot glass,z,sounds/animalfarm_english.wav,,,,,,,,,0,1,1,1,0,173,173,86,962.965588176,8.98016151041e-06,963.742028699,0.776450145291,,,,z,1,0.767107612104,2018_Nov_26_1107,59.9881485422,spanish_cond2,001,1044,
images/ant.jpg,ant,z,sounds/animalfarm_english.wav,,,,,,,,,0,1,1,1,0,174,174,98,964.836971031,9.30076930672e-06,965.609136375,0.77217528678,,,,z,1,0.750383419101,2018_Nov_26_1107,59.9881485422,spanish_cond2,001,1044,
images/gorilla.jpg,gorilla,z,sounds/animalfarm_english.wav,,,,,,,,,0,1,1,1,0,175,175,80,966.721397833,8.98016151041e-06,968.443176038,1.72178814735,,,,z,1,1.70066497801,2018_Nov_26_1107,59.9881485422,spanish_cond2,001,1044,
images/squirrel.jpg,binder,x,sounds/animalfarm_english.wav,,,,,,,,,0,1,1,1,0,176,176,132,969.546785149,9.62160993367e-06,970.493659072,0.946883545141,,,,x,1,0.933802074171,2018_Nov_26_1107,59.9881485422,spanish_cond2,001,1044,
images/swallow.jpg,mattress,x,sounds/animalfarm_english.wav,,,,,,,,,0,1,1,1,0,177,177,202,971.59547729,9.30088572204e-06,972.360781181,0.765313512064,,,,x,1,0.750422546756,2018_Nov_26_1107,59.9881485422,spanish_cond2,001,1044,
images/watermelon01.jpg,orange,x,sounds/animalfarm_english.wav,,,,,,,,,0,1,1,1,0,178,178,207,973.491270039,9.30076930672e-06,974.277916791,0.786656053038,,,,x,1,0.767098311218,2018_Nov_26_1107,59.9881485422,spanish_cond2,001,1044,
images/arrow02.jpg,hammer,x,sounds/animalfarm_english.wav,,,,,,,,,0,1,1,1,0,179,179,184,975.376309414,9.30088572204e-06,976.245064301,0.868764508516,,,,x,1,0.850446664728,2018_Nov_26_1107,59.9881485422,spanish_cond2,001,1044,
images/camera01a.jpg,bull,x,sounds/animalfarm_english.wav,,,,,,,,,0,1,1,1,0,180,180,138,977.357922616,8.98016151041e-06,977.978815573,0.620902258437,,,,x,1,0.60038973717,2018_Nov_26_1107,59.9881485422,spanish_cond2,001,1044,
images/battery03b.jpg,battery,z,sounds/animalfarm_english.wav,,,,,,,,,0,1,1,1,0,181,181,34,979.08866234,9.30076930672e-06,980.012642086,0.923989367555,,,,z,1,0.900463694939,2018_Nov_26_1107,59.9881485422,spanish_cond2,001,1044,
images/elbow.jpg,elbow,z,sounds/animalfarm_english.wav,,,,,,,,,0,1,1,1,0,182,182,105,981.126281993,9.30076930672e-06,983.063393883,1.9371215119,,,,z,1,1.91737775318,2018_Nov_26_1107,59.9881485422,spanish_cond2,001,1044,
images/ladybug03.jpg,giraffe,x,sounds/animalfarm_english.wav,,,,,,,,,0,1,1,1,0,183,183,178,984.166658221,9.30088572204e-06,985.180570353,1.01392175362,,,,x,1,1.00047979504,2018_Nov_26_1107,59.9881485422,spanish_cond2,001,1044,
images/bottleofredwine02.jpg,pipe,x,sounds/animalfarm_english.wav,,,,,,,,,0,1,1,1,0,184,184,213,986.279612431,9.30076930672e-06,986.931011502,0.65140901308,,,,z,0,0.633737417404,2018_Nov_26_1107,59.9881485422,spanish_cond2,001,1044,
images/remotecontrol01c.jpg,remote control,z,sounds/animalfarm_english.wav,,,,,,,,,0,1,1,1,0,185,185,85,988.041415036,8.98016151041e-06,988.898155162,0.856750389212,,,,z,1,0.833795275073,2018_Nov_26_1107,59.9881485422,spanish_cond2,001,1044,
images/hanger02a.jpg,hanger,z,sounds/animalfarm_english.wav,,,,,,,,,0,1,1,1,0,186,186,88,989.991784472,9.30076930672e-06,992.565711075,2.57393718662,,,,z,1,2.55087848031,2018_Nov_26_1107,59.9881485422,spanish_cond2,001,1044,
images/screwdriver02b.jpg,cola,x,sounds/animalfarm_english.wav,,,,,,,,,0,1,1,1,0,187,187,158,993.661165915,9.30076930672e-06,995.133005217,1.47184956493,,,,x,1,1.45060163608,2018_Nov_26_1107,59.9881485422,spanish_cond2,001,1044,
images/tape01a.jpg,tie,x,sounds/animalfarm_english.wav,,,,,,,,,0,1,1,1,0,188,188,232,996.258828582,9.62160993367e-06,999.250592207,2.99177452968,,,,None,0,,2018_Nov_26_1107,59.9881485422,spanish_cond2,001,1044,
images/pineapple01a.jpg,pineapple,z,sounds/animalfarm_english.wav,,,,,,,,,0,1,1,1,0,189,189,51,1000.36422345,8.98004509509e-06,1001.06777233,0.703557859873,,,,z,1,0.683745788177,2018_Nov_26_1107,59.9881485422,spanish_cond2,001,1044,
images/doll.jpg,carrot,x,sounds/animalfarm_english.wav,,,,,,,,,0,1,1,1,0,190,190,146,1002.17931602,9.30088572204e-06,1002.91821707,0.738910993561,,,,x,1,0.717084488133,2018_Nov_26_1107,59.9881485422,spanish_cond2,001,1044,
images/lion.jpg,lion,z,sounds/animalfarm_english.wav,,,,,,,,,0,1,1,1,0,191,191,44,1004.03106224,8.65943729877e-06,1005.15209311,1.12104080885,,,,z,1,1.10050423385,2018_Nov_26_1107,59.9881485422,spanish_cond2,001,1044,
images/broadsword.jpg,teapot,x,sounds/animalfarm_english.wav,,,,,,,,,0,1,1,1,0,192,192,231,1006.24527116,1.09045067802e-05,1007.40269526,1.15743339155,,,,x,1,1.13389649382,2018_Nov_26_1107,59.9881485422,spanish_cond2,001,1044,
images/comb02a.jpg,diploma,x,sounds/animalfarm_english.wav,,,,,,,,,0,1,1,1,0,193,193,166,1008.50829924,8.98016151041e-06,1009.91995377,1.4116638304,,,,x,1,1.40061154624,2018_Nov_26_1107,59.9881485422,spanish_cond2,001,1044,
images/apple06.jpg,apple,z,sounds/animalfarm_english.wav,,,,,,,,,0,1,1,1,0,194,194,13,1011.04882203,9.30076930672e-06,1013.13739008,2.08857799135,,,,z,1,2.06742916454,2018_Nov_26_1107,59.9881485422,spanish_cond2,001,1044,
images/ear.jpg,bullet,x,sounds/animalfarm_english.wav,,,,,,,,,0,1,1,1,0,195,195,139,1014.24260343,1.02630583569e-05,1015.02116615,0.778572661104,,,,x,1,0.767087085987,2018_Nov_26_1107,59.9881485422,spanish_cond2,001,1044,
images/ladder.jpg,ladder,z,sounds/animalfarm_english.wav,,,,,,,,,0,1,1,1,0,196,196,113,1016.11409148,9.30088572204e-06,1017.03833004,0.924248508178,,,,z,1,0.900465940009,2018_Nov_26_1107,59.9881485422,spanish_cond2,001,1044,
images/eraser.jpg,eraser,z,sounds/animalfarm_english.wav,,,,,,,,,0,1,1,1,0,197,197,110,1018.146155,9.62149351835e-06,1019.50559301,1.35944827413,,,,z,1,1.35056116141,2018_Nov_26_1107,59.9881485422,spanish_cond2,001,1044,
images/hand01a.jpg,cupcake,x,sounds/animalfarm_english.wav,,,,,,,,,0,1,1,1,0,198,198,163,1020.61784421,9.30088572204e-06,1021.52275306,0.90491847659,,,,x,1,0.883793703513,2018_Nov_26_1107,59.9881485422,spanish_cond2,001,1044,
images/cake.jpg,cake,z,sounds/animalfarm_english.wav,,,,,,,,,0,1,1,1,0,199,199,23,1022.63731343,8.98016151041e-06,1023.55659176,0.919288274134,,,,z,1,0.900472354377,2018_Nov_26_1107,59.9881485422,spanish_cond2,001,1044,
images/banjo.jpg,knife,x,sounds/animalfarm_english.wav,,,,,,,,,0,1,1,1,0,200,200,191,1024.65387021,9.30088572204e-06,1025.34034595,0.686485045822,,,,x,1,0.66706328874,2018_Nov_26_1107,59.9881485422,spanish_cond2,001,1044,
images/chessknight02b (1).jpg,cockroach,x,sounds/animalfarm_english.wav,,,,,,,,,0,1,1,1,0,201,201,155,1026.45016738,9.62160993367e-06,1027.94098906,1.49083225837,,,,x,1,1.46727291041,2018_Nov_26_1107,59.9881485422,spanish_cond2,001,1044,
images/rhinoceros01.jpg,envelope,x,sounds/animalfarm_english.wav,,,,,,,,,0,1,1,1,0,202,202,173,1029.05466937,9.30088572204e-06,1030.94176039,1.88710095396,,,,x,1,1.86741396238,2018_Nov_26_1107,59.9881485422,spanish_cond2,001,1044,
images/dice05a.jpg,band aid,x,sounds/animalfarm_english.wav,,,,,,,,,0,1,1,1,0,203,203,126,1032.05513762,8.98016151041e-06,1032.89219653,0.837068849942,,,,x,1,0.817116944934,2018_Nov_26_1107,59.9881485422,spanish_cond2,001,1044,
images/razor04a.jpg,razor,z,sounds/animalfarm_english.wav,,,,,,,,,0,1,1,1,0,204,204,36,1033.99230853,9.30088572204e-06,1034.72581958,0.733521317248,,,,z,1,0.716935995501,2018_Nov_26_1107,59.9881485422,spanish_cond2,001,1044,
images/saltshaker03c.jpg,salt shaker,z,sounds/animalfarm_english.wav,,,,,,,,,0,1,1,1,0,205,205,63,1035.83901882,8.98004509509e-06,1037.10972393,1.27071473422,,,,z,1,1.25038245693,2018_Nov_26_1107,59.9881485422,spanish_cond2,001,1044,
images/raisin.jpg,ruler,x,sounds/animalfarm_english.wav,,,,,,,,,0,1,1,1,0,206,206,218,1038.21557326,9.30088572204e-06,1039.01034542,0.79478177987,,,,x,1,0.783772792667,2018_Nov_26_1107,59.9881485422,spanish_cond2,001,1044,
images/hat05.jpg,hat,z,sounds/animalfarm_english.wav,,,,,,,,,0,1,1,1,0,207,207,15,1040.11452156,9.30076930672e-06,1040.72743055,0.612918930594,,,,z,1,0.600387171609,2018_Nov_26_1107,59.9881485422,spanish_cond2,001,1044,
images/magnifyingglass01b.jpg,magnifying glass,z,sounds/animalfarm_english.wav,,,,,,,,,0,1,1,1,0,208,208,64,1041.83597392,8.98016151041e-06,1042.49452662,0.658562321099,,,,z,1,0.650368281174,2018_Nov_26_1107,59.9881485422,spanish_cond2,001,1044,
images/clothespin02a.jpg,clothes pin,z,sounds/animalfarm_english.wav,,,,,,,,,0,1,1,1,0,209,209,79,1043.59971398,9.30088572204e-06,1044.5950347,0.995331299142,,,,z,1,0.983757526381,2018_Nov_26_1107,59.9881485422,spanish_cond2,001,1044,
images/teapot.jpg,light switch,x,sounds/animalfarm_english.wav,,,,,,,,,0,1,1,1,0,210,210,197,1045.71204119,9.30076930672e-06,1047.22886224,1.51683131291,,,,x,1,1.50045285479,2018_Nov_26_1107,59.9881485422,spanish_cond2,001,1044,
images/carrot02.jpg,corkscrew,x,sounds/animalfarm_english.wav,,,,,,,,,0,1,1,1,0,211,211,161,1048.33200502,9.30088572204e-06,1049.67962295,1.34762883105,,,,x,1,1.33390624367,2018_Nov_26_1107,59.9881485422,spanish_cond2,001,1044,
images/cupcake.jpg,scissors,x,sounds/animalfarm_english.wav,,,,,,,,,0,1,1,1,0,212,212,219,1050.79909705,9.94233414531e-06,1051.58006484,0.780978371389,,,,x,1,0.767080350895,2018_Nov_26_1107,59.9881485422,spanish_cond2,001,1044,
images/paintbrush03a.jpg,paint brush,z,sounds/animalfarm_english.wav,,,,,,,,,0,1,1,1,0,213,213,0,1052.68183847,8.98004509509e-06,1053.7139222,1.03209302889,,,,z,1,1.01715267298,2018_Nov_26_1107,59.9881485422,spanish_cond2,001,1044,
,,,sounds/animalfarm_english.wav,,,,,,,,,0,1,1,1,,,,,,,,,,,,,,,2018_Nov_26_1107,59.9881485422,spanish_cond2,001,1044,
