images,name,corrAns,sounds,trials_3.thisRepN,trials_3.thisTrialN,trials_3.thisN,trials_3.thisIndex,trials_4.thisRepN,trials_4.thisTrialN,trials_4.thisN,trials_4.thisIndex,trials_2.thisRepN,trials_2.thisTrialN,trials_2.thisN,trials_2.thisIndex,trials.thisRepN,trials.thisTrialN,trials.thisN,trials.thisIndex,begin_global,begin_routine,end_global,end_routine,key_resp_2.keys,key_resp_2.corr,key_resp_2.rt,begin_book,key_resp_1.keys,key_resp_1.corr,key_resp_1.rt,date,frameRate,expName,session,participant,
images/volleyball.jpg,volley ball,z,,0,0,0,0,,,,,,,,,,,,,,,,,,,,,,,,2018_Nov_26_1232,59.9831092423,spanish_cond1,001,1045,
images/puma.jpg,puma,z,,,,,,0,0,0,0,,,,,,,,,48.1584508985,9.94233414531e-06,50.4993694653,2.34092915046,z,1,2.31749384536,,,,,2018_Nov_26_1232,59.9831092423,spanish_cond1,001,1045,
images/chameleon.jpg,50 dollar bill,x,sounds/animalfarm_spanish.wav,,,,,,,,,0,0,0,1,0,0,0,120,92.6576763606,9.30088572204e-06,94.7436186413,2.08595254377,,,,82.4957074884,x,1,2.06742040056,2018_Nov_26_1232,59.9831092423,spanish_cond1,001,1045,
images/scissors04a.jpg,leek,x,sounds/animalfarm_spanish.wav,,,,,,,,,0,0,0,1,0,1,1,194,95.8416591084,9.30088572204e-06,97.5776452636,1.73599577672,,,,,x,1,1.71733406279,2018_Nov_26_1232,59.9831092423,spanish_cond1,001,1045,
images/cookingpot.jpg,grasshopper,x,sounds/animalfarm_spanish.wav,,,,,,,,,0,0,0,1,0,2,2,183,98.6942377585,9.30088572204e-06,100.044919993,1.35069217719,,,,,x,1,1.33390250383,2018_Nov_26_1232,59.9831092423,spanish_cond1,001,1045,
images/bull.jpg,button,x,sounds/animalfarm_spanish.wav,,,,,,,,,0,0,0,1,0,3,3,141,101.154230869,9.30088572204e-06,103.245710375,2.09148944775,,,,,x,1,2.06741655199,2018_Nov_26_1232,59.9831092423,spanish_cond1,001,1045,
images/hairdryer03a.jpg,hairdryer,z,sounds/animalfarm_spanish.wav,,,,,,,,,0,0,0,1,0,4,4,119,104.344565149,8.98016151041e-06,105.779662718,1.43510815315,,,,,z,1,1.41724855907,2018_Nov_26_1232,59.9831092423,spanish_cond1,001,1045,
images/volleyball.jpg,volley ball,z,sounds/animalfarm_spanish.wav,,,,,,,,,0,0,0,1,0,5,5,2,106.911249819,8.98016151041e-06,108.013551046,1.10231052851,,,,,z,1,1.08384028415,2018_Nov_26_1232,59.9831092423,spanish_cond1,001,1045,
images/8ball.jpg,nail clipper,x,sounds/animalfarm_spanish.wav,,,,,,,,,0,0,0,1,0,6,6,206,109.129622372,1.09045067802e-05,110.197432126,1.06782033795,,,,,x,1,1.0505082123,2018_Nov_26_1232,59.9831092423,spanish_cond1,001,1045,
images/grandpiano.jpg,tulip,x,sounds/animalfarm_spanish.wav,,,,,,,,,0,0,0,1,0,7,7,236,111.311756171,8.65943729877e-06,113.231499608,1.91975273797,,,,,x,1,1.90070583974,2018_Nov_26_1232,59.9831092423,spanish_cond1,001,1045,
images/snowman.jpg,globe,x,sounds/animalfarm_spanish.wav,,,,,,,,,0,0,0,1,0,8,8,180,114.342371427,8.98004509509e-06,116.899077546,2.55671574094,,,,,x,1,2.5342050707,2018_Nov_26_1232,59.9831092423,spanish_cond1,001,1045,
images/ostrich.jpg,ostrich,z,sounds/animalfarm_spanish.wav,,,,,,,,,0,0,0,1,0,9,9,76,117.998790887,8.98016151041e-06,119.166295701,1.16751475632,,,,,z,1,1.15051725658,2018_Nov_26_1232,59.9831092423,spanish_cond1,001,1045,
images/nailpolish02b.jpg,nail polish,z,sounds/animalfarm_spanish.wav,,,,,,,,,0,0,0,1,0,10,10,94,120.27438688,9.94233414531e-06,121.816959206,1.54258226778,,,,,z,1,1.53393662837,2018_Nov_26_1232,59.9831092423,spanish_cond1,001,1045,
images/scooter.jpg,pen,x,sounds/animalfarm_spanish.wav,,,,,,,,,0,0,0,1,0,11,11,212,122.908870721,8.98016151041e-06,123.967479349,1.05861792935,,,,,x,1,1.03381796216,2018_Nov_26_1232,59.9831092423,spanish_cond1,001,1045,
images/licenseplate.jpg,license plate,z,sounds/animalfarm_spanish.wav,,,,,,,,,0,0,0,1,0,12,12,40,125.084223544,9.30088572204e-06,126.78485998,1.70064605772,,,,,z,1,1.68400070816,2018_Nov_26_1232,59.9831092423,spanish_cond1,001,1045,
images/triangleruler02.jpg,bottle of red wine,x,sounds/animalfarm_spanish.wav,,,,,,,,,0,0,0,1,0,13,13,134,127.895292092,8.98016151041e-06,128.902043241,1.00676044938,,,,,x,1,0.983818731853,2018_Nov_26_1232,59.9831092423,spanish_cond1,001,1045,
images/swallow.jpg,mattress,x,sounds/animalfarm_spanish.wav,,,,,,,,,0,0,0,1,0,14,14,202,130.003457037,8.98016151041e-06,131.552683654,1.54923623824,,,,,x,1,1.53394689132,2018_Nov_26_1232,59.9831092423,spanish_cond1,001,1045,
images/candycane01a.jpg,lip,x,sounds/animalfarm_spanish.wav,,,,,,,,,0,0,0,1,0,15,15,200,132.645940267,9.30076930672e-06,134.019958063,1.37402805907,,,,,x,1,1.35056164418,2018_Nov_26_1232,59.9831092423,spanish_cond1,001,1045,
images/gps.jpg,gps,z,sounds/animalfarm_spanish.wav,,,,,,,,,0,0,0,1,0,16,16,21,135.138072372,8.65943729877e-06,136.603936256,1.46587318485,,,,,z,1,1.45059634617,2018_Nov_26_1232,59.9831092423,spanish_cond1,001,1045,
images/apricot.jpg,apricot,z,sounds/animalfarm_spanish.wav,,,,,,,,,0,0,0,1,0,17,17,32,137.719977114,8.98016151041e-06,140.438210474,2.71824330313,,,,,z,1,2.70090263337,2018_Nov_26_1232,59.9831092423,spanish_cond1,001,1045,
images/parkingmeter.jpg,ear,x,sounds/animalfarm_spanish.wav,,,,,,,,,0,0,0,1,0,18,18,171,141.539602141,9.30088572204e-06,142.70543793,1.16584541055,,,,,x,1,1.15051789803,2018_Nov_26_1232,59.9831092423,spanish_cond1,001,1045,
images/key03b.jpg,cigar,x,sounds/animalfarm_spanish.wav,,,,,,,,,0,0,0,1,0,19,19,153,143.806256471,9.30088572204e-06,145.206065258,1.39981872926,,,,,x,1,1.38391520421,2018_Nov_26_1232,59.9831092423,spanish_cond1,001,1045,
images/binder03b.jpg,dj mixer,x,sounds/animalfarm_spanish.wav,,,,,,,,,0,0,0,1,0,20,20,167,146.318175375,8.98016151041e-06,147.55663075,1.23846467654,,,,,x,1,1.21719903988,2018_Nov_26_1232,59.9831092423,spanish_cond1,001,1045,
images/cat.jpg,black olive,x,sounds/animalfarm_spanish.wav,,,,,,,,,0,0,0,1,0,21,21,133,148.686487889,8.98004509509e-06,149.807206442,1.12072881614,,,,,x,1,1.10052572365,2018_Nov_26_1232,59.9831092423,spanish_cond1,001,1045,
images/flashlight05.jpg,flash light,z,sounds/animalfarm_spanish.wav,,,,,,,,,0,0,0,1,0,22,22,8,150.908819726,9.30088572204e-06,152.257793808,1.34898402425,,,,,z,1,1.33389769297,2018_Nov_26_1232,59.9831092423,spanish_cond1,001,1045,
images/dolphin01.jpg,dolphin,z,sounds/animalfarm_spanish.wav,,,,,,,,,0,0,0,1,0,23,23,99,153.358418313,8.98016151041e-06,154.358310231,0.99990121834,,,,,z,1,0.983811996644,2018_Nov_26_1232,59.9831092423,spanish_cond1,001,1045,
images/medal01.jpg,medal,z,sounds/animalfarm_spanish.wav,,,,,,,,,0,0,0,1,0,24,24,115,155.458097337,9.30088572204e-06,156.492165781,1.03407806566,,,,,z,1,1.0171386163,2018_Nov_26_1232,59.9831092423,spanish_cond1,001,1045,
images/birthdaycandle.jpg,birthday candle,z,sounds/animalfarm_spanish.wav,,,,,,,,,0,0,0,1,0,25,25,55,157.587578272,8.98016151041e-06,158.70939561,1.12182728096,,,,,z,1,1.10051866784,2018_Nov_26_1232,59.9831092423,spanish_cond1,001,1045,
images/sunglasses03a.jpg,sun glasses,z,sounds/animalfarm_spanish.wav,,,,,,,,,0,0,0,1,0,26,26,17,159.817116358,8.65943729877e-06,160.893251353,1.07614429563,,,,,z,1,1.06715837261,2018_Nov_26_1232,59.9831092423,spanish_cond1,001,1045,
images/lightbulb03b.jpg,treadmill,x,sounds/animalfarm_spanish.wav,,,,,,,,,0,0,0,1,0,27,27,234,161.99480787,8.98016151041e-06,163.377203825,1.38240589772,,,,,x,1,1.36720699375,2018_Nov_26_1232,59.9831092423,spanish_cond1,001,1045,
images/pineapple01a.jpg,pineapple,z,sounds/animalfarm_spanish.wav,,,,,,,,,0,0,0,1,0,28,28,51,164.489489376,8.65943729877e-06,165.694436605,1.20495685039,,,,,z,1,1.18385991221,2018_Nov_26_1232,59.9831092423,spanish_cond1,001,1045,
images/atm.jpg,atm,z,sounds/animalfarm_spanish.wav,,,,,,,,,0,0,0,1,0,29,29,96,166.831923343,8.98016151041e-06,168.095048474,1.26313475228,,,,,z,1,1.25055516569,2018_Nov_26_1232,59.9831092423,spanish_cond1,001,1045,
images/candle08a.jpg,screw driver,x,sounds/animalfarm_spanish.wav,,,,,,,,,0,0,0,1,0,30,30,221,169.208091564,8.65943729877e-06,170.512292222,1.3042109207,,,,,x,1,1.28388467175,2018_Nov_26_1232,59.9831092423,spanish_cond1,001,1045,
images/carrot02.jpg,corkscrew,x,sounds/animalfarm_spanish.wav,,,,,,,,,0,0,0,1,0,31,31,161,171.613929239,8.65943729877e-06,173.212979011,1.59905907267,,,,,x,1,1.58396728907,2018_Nov_26_1232,59.9831092423,spanish_cond1,001,1045,
images/bowl02b (1).jpg,bowl,z,sounds/animalfarm_spanish.wav,,,,,,,,,0,0,0,1,0,32,32,24,174.33053174,8.65943729877e-06,177.180446814,2.84992437437,,,,,z,1,2.83410872659,2018_Nov_26_1232,59.9831092423,spanish_cond1,001,1045,
images/kiwi03.jpg,backpack,x,sounds/animalfarm_spanish.wav,,,,,,,,,0,0,0,1,0,33,33,125,178.308890541,9.30088572204e-06,179.464500505,1.15561958542,,,,,x,1,1.13384047663,2018_Nov_26_1232,59.9831092423,spanish_cond1,001,1045,
images/cupcake.jpg,scissors,x,sounds/animalfarm_spanish.wav,,,,,,,,,0,0,0,1,0,34,34,219,180.583453176,8.98016151041e-06,181.598433349,1.0149913982,,,,,x,1,1.00048428657,2018_Nov_26_1232,59.9831092423,spanish_cond1,001,1045,
images/bench02.jpg,electric toothbrush,x,sounds/animalfarm_spanish.wav,,,,,,,,,0,0,0,1,0,35,35,172,182.706637742,9.30088572204e-06,184.048961382,1.34233326104,,,,,x,1,1.33388165699,2018_Nov_26_1232,59.9831092423,spanish_cond1,001,1045,
images/hand01a.jpg,cupcake,x,sounds/animalfarm_spanish.wav,,,,,,,,,0,0,0,1,0,36,36,163,185.160566365,8.65943729877e-06,186.116167541,0.955611118465,,,,,x,1,0.933821746614,2018_Nov_26_1232,59.9831092423,spanish_cond1,001,1045,
images/radio03a.jpg,radio,z,sounds/animalfarm_spanish.wav,,,,,,,,,0,0,0,1,0,37,37,37,187.229372275,8.98016151041e-06,188.583436498,1.35407416569,,,,,z,1,1.33391404978,2018_Nov_26_1232,59.9831092423,spanish_cond1,001,1045,
images/panda.jpg,panda,z,sounds/animalfarm_spanish.wav,,,,,,,,,0,0,0,1,0,38,38,83,189.692098879,8.98016151041e-06,190.717283068,1.02519413165,,,,,z,1,1.00048075872,2018_Nov_26_1232,59.9831092423,spanish_cond1,001,1045,
images/raisin.jpg,ruler,x,sounds/animalfarm_spanish.wav,,,,,,,,,0,0,0,1,0,39,39,218,191.822308489,9.62160993367e-06,192.717882173,0.895583305624,,,,,x,1,0.88389531977,2018_Nov_26_1232,59.9831092423,spanish_cond1,001,1045,
images/bat.jpg,hand,x,sounds/animalfarm_spanish.wav,,,,,,,,,0,0,0,1,0,40,40,185,193.815718983,9.30088572204e-06,196.818636249,3.0029272082,,,,,None,0,,2018_Nov_26_1232,59.9831092423,spanish_cond1,001,1045,
images/donut.jpg,rhinoceros,x,sounds/animalfarm_spanish.wav,,,,,,,,,0,0,0,1,0,41,41,216,197.94391319,8.98016151041e-06,199.086024064,1.14212017495,,,,,x,1,1.13385939901,2018_Nov_26_1232,59.9831092423,spanish_cond1,001,1045,
images/acousticguitar02.jpg,acoustic guitar,z,sounds/animalfarm_spanish.wav,,,,,,,,,0,0,0,1,0,42,42,97,200.198386909,9.30088572204e-06,201.203198986,1.00482201984,,,,,z,1,0.983809110243,2018_Nov_26_1232,59.9831092423,spanish_cond1,001,1045,
images/charcoalbarbecue.jpg,charcoal barbecue,z,sounds/animalfarm_spanish.wav,,,,,,,,,0,0,0,1,0,43,43,77,202.319657741,8.65943729877e-06,203.570452163,1.25080404419,,,,,z,1,1.23387838562,2018_Nov_26_1232,59.9831092423,spanish_cond1,001,1045,
images/plate01b.jpg,plate,z,sounds/animalfarm_spanish.wav,,,,,,,,,0,0,0,1,0,44,44,3,204.668963768,9.30076930672e-06,205.604296425,0.93534291978,,,,,z,1,0.917139514233,2018_Nov_26_1232,59.9831092423,spanish_cond1,001,1045,
images/highlighter03b.jpg,coin,x,sounds/animalfarm_spanish.wav,,,,,,,,,0,0,0,1,0,45,45,156,206.706029978,9.30088572204e-06,207.821519198,1.1155014066,,,,,x,1,1.10051706422,2018_Nov_26_1232,59.9831092423,spanish_cond1,001,1045,
images/pingpongpaddle01c (1).jpg,ping pong paddle,z,sounds/animalfarm_spanish.wav,,,,,,,,,0,0,0,1,0,46,46,10,208.932538227,8.98016151041e-06,210.322116378,1.38958777254,,,,,z,1,1.36724323512,2018_Nov_26_1232,59.9831092423,spanish_cond1,001,1045,
images/hanger02a.jpg,hanger,z,sounds/animalfarm_spanish.wav,,,,,,,,,0,0,0,1,0,47,47,88,211.414838351,9.30088572204e-06,212.689368914,1.2745401843,,,,,z,1,1.25054682698,2018_Nov_26_1232,59.9831092423,spanish_cond1,001,1045,
images/nametag01a.jpg,name tag,z,sounds/animalfarm_spanish.wav,,,,,,,,,0,0,0,1,0,48,48,108,213.809093556,8.98016151041e-06,215.173318499,1.3642342434,,,,,z,1,1.35057254869,2018_Nov_26_1232,59.9831092423,spanish_cond1,001,1045,
images/pouch01b.jpg,pouch,z,sounds/animalfarm_spanish.wav,,,,,,,,,0,0,0,1,0,49,49,25,216.285309308,8.98016151041e-06,217.440528636,1.15522862819,,,,,z,1,1.13383566577,2018_Nov_26_1232,59.9831092423,spanish_cond1,001,1045,
images/diploma01.jpg,glasses,x,sounds/animalfarm_spanish.wav,,,,,,,,,0,0,0,1,0,50,50,179,218.57125268,9.30088572204e-06,219.457716964,0.886473905644,,,,,x,1,0.867124568787,2018_Nov_26_1232,59.9831092423,spanish_cond1,001,1045,
images/toothbrush03a.jpg,parrot,x,sounds/animalfarm_spanish.wav,,,,,,,,,0,0,0,1,0,51,51,210,220.549804554,9.30076930672e-06,221.908376812,1.35858220106,,,,,x,1,1.3339647234,2018_Nov_26_1232,59.9831092423,spanish_cond1,001,1045,
images/chessknight02b (1).jpg,cockroach,x,sounds/animalfarm_spanish.wav,,,,,,,,,0,0,0,1,0,52,52,155,223.017276526,9.30088572204e-06,224.242224152,1.22495788953,,,,,x,1,1.20054342726,2018_Nov_26_1232,59.9831092423,spanish_cond1,001,1045,
images/broadsword.jpg,teapot,x,sounds/animalfarm_spanish.wav,,,,,,,,,0,0,0,1,0,53,53,231,225.334317836,9.62160993367e-06,227.826451866,2.49214333086,,,,,x,1,2.46753098466,2018_Nov_26_1232,59.9831092423,spanish_cond1,001,1045,
images/dresser02.jpg,dresser,z,sounds/animalfarm_spanish.wav,,,,,,,,,0,0,0,1,0,54,54,87,228.948279467,9.30088572204e-06,229.976973613,1.02870440809,,,,,z,1,1.01716459461,2018_Nov_26_1232,59.9831092423,spanish_cond1,001,1045,
images/daisy.jpg,daisy,z,sounds/animalfarm_spanish.wav,,,,,,,,,0,0,0,1,0,55,55,6,231.078851169,9.30088572204e-06,231.960784006,0.881942457752,,,,,z,1,0.867120399489,2018_Nov_26_1232,59.9831092423,spanish_cond1,001,1045,
images/comb02a.jpg,diploma,x,sounds/animalfarm_spanish.wav,,,,,,,,,0,0,0,1,0,56,56,166,233.064783444,0.000105196028017,234.044671115,0.979988697916,,,,,x,1,0.967138103209,2018_Nov_26_1232,59.9831092423,spanish_cond1,001,1045,
images/watermelon01.jpg,orange,x,sounds/animalfarm_spanish.wav,,,,,,,,,0,0,0,1,0,57,57,207,235.173308877,8.98016151041e-06,236.411888051,1.23858879507,,,,,x,1,1.21716279851,2018_Nov_26_1232,59.9831092423,spanish_cond1,001,1045,
images/ashtray02b.jpg,ashtray,z,sounds/animalfarm_spanish.wav,,,,,,,,,0,0,0,1,0,58,58,43,237.524657568,8.98016151041e-06,238.729134942,1.20448667544,,,,,z,1,1.18386728875,2018_Nov_26_1232,59.9831092423,spanish_cond1,001,1045,
images/mitten01.jpg,mitten,z,sounds/animalfarm_spanish.wav,,,,,,,,,0,0,0,1,0,59,59,102,239.849363436,8.98016151041e-06,240.746286387,0.896932573174,,,,,z,1,0.883792368579,2018_Nov_26_1232,59.9831092423,spanish_cond1,001,1045,
images/screwdriver02b.jpg,cola,x,sounds/animalfarm_spanish.wav,,,,,,,,,0,0,0,1,0,60,60,158,241.8395786,9.30088572204e-06,242.880162143,1.04059348535,,,,,x,1,1.01716812258,2018_Nov_26_1232,59.9831092423,spanish_cond1,001,1045,
images/elbow.jpg,elbow,z,sounds/animalfarm_spanish.wav,,,,,,,,,0,0,0,1,0,61,61,105,243.991586882,9.30088572204e-06,245.280740016,1.28916339646,,,,,z,1,1.26721398544,2018_Nov_26_1232,59.9831092423,spanish_cond1,001,1045,
images/swan.jpg,swan,z,sounds/animalfarm_spanish.wav,,,,,,,,,0,0,0,1,0,62,62,54,246.371970001,9.30088572204e-06,247.547964906,1.17600452597,,,,,z,1,1.1671917917,2018_Nov_26_1232,59.9831092423,spanish_cond1,001,1045,
images/tank.jpg,wallet,x,sounds/animalfarm_spanish.wav,,,,,,,,,0,0,0,1,0,63,63,237,248.651966589,8.65943729877e-06,249.498440982,0.846484335489,,,,,x,1,0.83374855842,2018_Nov_26_1232,59.9831092423,spanish_cond1,001,1045,
images/plant01.jpg,plant,z,sounds/animalfarm_spanish.wav,,,,,,,,,0,0,0,1,0,64,64,47,250.609776882,9.30088572204e-06,252.065741113,1.45597385243,,,,,z,1,1.43392341479,2018_Nov_26_1232,59.9831092423,spanish_cond1,001,1045,
images/bowtie.jpg,bowtie,z,sounds/animalfarm_spanish.wav,,,,,,,,,0,0,0,1,0,65,65,89,253.176378806,8.98016151041e-06,254.516343873,1.33997468883,,,,,z,1,1.31721963012,2018_Nov_26_1232,59.9831092423,spanish_cond1,001,1045,
images/parrot01.jpg,chameleon,x,sounds/animalfarm_spanish.wav,,,,,,,,,0,0,0,1,0,66,66,150,255.629549569,9.62160993367e-06,257.783840092,2.15430014487,,,,,z,0,2.13410378748,2018_Nov_26_1232,59.9831092423,spanish_cond1,001,1045,
images/floorlamp.jpg,floor lamp,z,sounds/animalfarm_spanish.wav,,,,,,,,,0,0,0,1,0,67,67,26,258.876585157,8.65932088345e-06,260.534513603,1.65793774696,,,,,x,0,1.63398319681,2018_Nov_26_1232,59.9831092423,spanish_cond1,001,1045,
images/boxingglove02a.jpg,bracelet,x,sounds/animalfarm_spanish.wav,,,,,,,,,0,0,0,1,0,68,68,135,261.64599543,8.65943729877e-06,263.651930347,2.00594453851,,,,,z,0,1.9840493293,2018_Nov_26_1232,59.9831092423,spanish_cond1,001,1045,
images/candy.jpg,candy,z,sounds/animalfarm_spanish.wav,,,,,,,,,0,0,0,1,0,69,69,31,264.752779356,9.30088572204e-06,265.552409118,0.799640024314,,,,,x,0,0.783766005537,2018_Nov_26_1232,59.9831092423,spanish_cond1,001,1045,
images/showerhead01.jpg,skateboard,x,sounds/animalfarm_spanish.wav,,,,,,,,,0,0,0,1,0,70,70,223,266.65989542,9.30088572204e-06,269.186633496,2.52674769762,,,,,x,1,2.5175238006,2018_Nov_26_1232,59.9831092423,spanish_cond1,001,1045,
images/ant.jpg,ant,z,sounds/animalfarm_spanish.wav,,,,,,,,,0,0,0,1,0,71,71,98,270.280990498,8.65943729877e-06,271.520539848,1.23955865134,,,,,z,1,1.21719422913,2018_Nov_26_1232,59.9831092423,spanish_cond1,001,1045,
images/fireextinguisher02.jpg,fire extinguisher,x,sounds/animalfarm_spanish.wav,,,,,,,,,0,0,0,1,0,72,72,175,272.630757078,8.65943729877e-06,274.037830165,1.40708238771,,,,,z,0,1.38391135575,2018_Nov_26_1232,59.9831092423,spanish_cond1,001,1045,
images/eyedrops.jpg,bicycle,x,sounds/animalfarm_spanish.wav,,,,,,,,,0,0,0,1,0,73,73,131,275.138110217,9.62149351835e-06,277.088588539,1.95048858423,,,,,x,1,1.93404560885,2018_Nov_26_1232,59.9831092423,spanish_cond1,001,1045,
images/banana04a.jpg,banana,z,sounds/animalfarm_spanish.wav,,,,,,,,,0,0,0,1,0,74,74,118,278.194574193,9.30088572204e-06,279.422499702,1.22793545073,,,,,z,1,1.21720930294,2018_Nov_26_1232,59.9831092423,spanish_cond1,001,1045,
images/mirror02.jpg,8 ball,x,sounds/animalfarm_spanish.wav,,,,,,,,,0,0,0,1,0,75,75,121,280.524537619,9.30088572204e-06,281.823112854,1.29858453595,,,,,x,1,1.28391257441,2018_Nov_26_1232,59.9831092423,spanish_cond1,001,1045,
images/notebook02b.jpg,notebook,z,sounds/animalfarm_spanish.wav,,,,,,,,,0,0,0,1,0,76,76,7,282.929536611,9.30088572204e-06,284.44039682,1.51086983015,,,,,z,1,1.50061193306,2018_Nov_26_1232,59.9831092423,spanish_cond1,001,1045,
images/lip.jpg,boxing glove,x,sounds/animalfarm_spanish.wav,,,,,,,,,0,0,0,1,0,77,77,136,285.542695482,9.62160993367e-06,286.790982839,1.24829697877,,,,,x,1,1.2338764614,2018_Nov_26_1232,59.9831092423,spanish_cond1,001,1045,
images/mailbox01.jpg,mail box,z,sounds/animalfarm_spanish.wav,,,,,,,,,0,0,0,1,0,78,78,73,287.910500618,9.94233414531e-06,289.024858338,1.11436862487,,,,,z,1,1.10046703194,2018_Nov_26_1232,59.9831092423,spanish_cond1,001,1045,
images/beachumbrella01.jpg,beach umbrella,z,sounds/animalfarm_spanish.wav,,,,,,,,,0,0,0,1,0,79,79,92,290.130371573,9.62160993367e-06,291.358761163,1.22839921131,,,,,z,1,1.21717819315,2018_Nov_26_1232,59.9831092423,spanish_cond1,001,1045,
images/hairband.jpg,hairband,z,sounds/animalfarm_spanish.wav,,,,,,,,,0,0,0,1,0,80,80,66,292.467868382,9.30088572204e-06,293.692701191,1.22484243044,,,,,z,1,1.20055561466,2018_Nov_26_1232,59.9831092423,spanish_cond1,001,1045,
images/bowlingball.jpg,bowling ball,z,sounds/animalfarm_spanish.wav,,,,,,,,,0,0,0,1,0,81,81,20,294.82484506,9.30088572204e-06,295.993258794,1.16842367582,,,,,z,1,1.15053425485,2018_Nov_26_1232,59.9831092423,spanish_cond1,001,1045,
images/lollipop03b.jpg,lollipop,z,sounds/animalfarm_spanish.wav,,,,,,,,,0,0,0,1,0,82,82,42,297.086315919,9.62160993367e-06,298.110438526,1.02413222892,,,,,z,1,1.00048749382,2018_Nov_26_1232,59.9831092423,spanish_cond1,001,1045,
images/lock02a.jpg,lock,z,sounds/animalfarm_spanish.wav,,,,,,,,,0,0,0,1,0,83,83,65,299.219591288,9.30088572204e-06,301.161185675,1.94160465023,,,,,z,1,1.91737716761,2018_Nov_26_1232,59.9831092423,spanish_cond1,001,1045,
images/lipstick04.jpg,lipstick,z,sounds/animalfarm_spanish.wav,,,,,,,,,0,0,0,1,0,84,84,56,302.260636667,8.98004509509e-06,303.211714734,0.951087047113,,,,,z,1,0.933814370073,2018_Nov_26_1232,59.9831092423,spanish_cond1,001,1045,
images/knife04.jpg,tooth brush,x,sounds/animalfarm_spanish.wav,,,,,,,,,0,0,0,1,0,85,85,233,304.30810125,9.30088572204e-06,305.078821663,0.770730676362,,,,,x,1,0.750416935538,2018_Nov_26_1232,59.9831092423,spanish_cond1,001,1045,
images/bandaid01.jpg,door handle,x,sounds/animalfarm_spanish.wav,,,,,,,,,0,0,0,1,0,86,86,170,306.185503921,8.98016151041e-06,307.346051043,1.1605564229,,,,,x,1,1.15047267661,2018_Nov_26_1232,59.9831092423,spanish_cond1,001,1045,
images/doorhandle.jpg,doll,x,sounds/animalfarm_spanish.wav,,,,,,,,,0,0,0,1,0,87,87,168,308.448655992,8.98016151041e-06,310.030047582,1.5814008906,,,,,x,1,1.56729596143,2018_Nov_26_1232,59.9831092423,spanish_cond1,001,1045,
images/lychee02a.jpg,lychee,z,sounds/animalfarm_spanish.wav,,,,,,,,,0,0,0,1,0,88,88,62,311.154519517,9.30088572204e-06,312.797398194,1.64288829849,,,,,x,0,1.63397710316,2018_Nov_26_1232,59.9831092423,spanish_cond1,001,1045,
images/dreamcatcher.jpg,dream catcher,z,sounds/animalfarm_spanish.wav,,,,,,,,,0,0,0,1,0,89,89,48,313.895634942,8.98016151041e-06,315.648096786,1.75247114478,,,,,z,1,1.73399608978,2018_Nov_26_1232,59.9831092423,spanish_cond1,001,1045,
images/fork01.jpg,cooking pot,x,sounds/animalfarm_spanish.wav,,,,,,,,,0,0,0,1,0,90,90,160,316.741932939,8.65943729877e-06,318.082033029,1.3401090703,,,,,x,1,1.31723662815,2018_Nov_26_1232,59.9831092423,spanish_cond1,001,1045,
images/cactus.jpg,cactus,z,sounds/animalfarm_spanish.wav,,,,,,,,,0,0,0,1,0,91,91,70,319.192806707,9.62160993367e-06,322.182884283,2.990087518,,,,,None,0,,2018_Nov_26_1232,59.9831092423,spanish_cond1,001,1045,
images/egg01b (1).jpg,egg,z,sounds/animalfarm_spanish.wav,,,,,,,,,0,0,0,1,0,92,92,19,323.294137437,9.62160993367e-06,324.133531944,0.839405090665,,,,,z,1,0.81711603771,2018_Nov_26_1232,59.9831092423,spanish_cond1,001,1045,
images/hairpin.jpg,hair pin,z,sounds/animalfarm_spanish.wav,,,,,,,,,0,0,0,1,0,93,93,28,325.223170198,9.62149351835e-06,326.117340092,0.894180157105,,,,,z,1,0.883778577787,2018_Nov_26_1232,59.9831092423,spanish_cond1,001,1045,
images/treadmill.jpg,lily,x,sounds/animalfarm_spanish.wav,,,,,,,,,0,0,0,1,0,94,94,199,327.22177154,8.98016151041e-06,328.117856451,0.896094532683,,,,,x,1,0.88380359381,2018_Nov_26_1232,59.9831092423,spanish_cond1,001,1045,
images/cola.jpg,comb,x,sounds/animalfarm_spanish.wav,,,,,,,,,0,0,0,1,0,95,95,157,329.237139784,9.62160993367e-06,331.568873581,2.33178671636,,,,,x,1,2.31758877845,2018_Nov_26_1232,59.9831092423,spanish_cond1,001,1045,
images/icecube02 (2).jpg,aloe,x,sounds/animalfarm_spanish.wav,,,,,,,,,0,0,0,1,0,96,96,122,332.678815954,9.30088572204e-06,333.60252509,0.923719077837,,,,,x,1,0.900460809935,2018_Nov_26_1232,59.9831092423,spanish_cond1,001,1045,
images/lion.jpg,lion,z,sounds/animalfarm_spanish.wav,,,,,,,,,0,0,0,1,0,97,97,44,334.71325066,8.98016151041e-06,335.586380705,0.873140307143,,,,,z,1,0.85048338864,2018_Nov_26_1232,59.9831092423,spanish_cond1,001,1045,
images/corn01.jpg,corn,z,sounds/animalfarm_spanish.wav,,,,,,,,,0,0,0,1,0,98,98,22,336.684261132,9.62160993367e-06,337.853571919,1.16932072863,,,,,z,1,1.15051789803,2018_Nov_26_1232,59.9831092423,spanish_cond1,001,1045,
images/paintbrush03a.jpg,paint brush,z,sounds/animalfarm_spanish.wav,,,,,,,,,0,0,0,1,0,99,99,0,338.952489875,1.12252309918e-05,340.870981223,1.91850289353,,,,,z,1,1.90070648119,2018_Nov_26_1232,59.9831092423,spanish_cond1,001,1045,
images/table02.jpg,table,z,sounds/animalfarm_spanish.wav,,,,,,,,,0,0,0,1,0,100,100,49,341.983420077,9.62149351835e-06,343.071558005,1.08814786968,,,,,z,1,1.06720006617,2018_Nov_26_1232,59.9831092423,spanish_cond1,001,1045,
images/cherry01.jpg,highlighter,x,sounds/animalfarm_spanish.wav,,,,,,,,,0,0,0,1,0,101,101,187,344.178931093,8.98016151041e-06,344.871974491,0.693053340772,,,,,x,1,0.683733228012,2018_Nov_26_1232,59.9831092423,spanish_cond1,001,1045,
images/nailclipper03a.jpg,aquarium,x,sounds/animalfarm_spanish.wav,,,,,,,,,0,0,0,1,0,102,102,123,345.969768325,8.98016151041e-06,347.089194057,1.11943503306,,,,,x,1,1.10051706422,2018_Nov_26_1232,59.9831092423,spanish_cond1,001,1045,
images/tissuebox03.jpg,tissue box,z,sounds/animalfarm_spanish.wav,,,,,,,,,0,0,0,1,0,103,103,58,348.214499222,8.98016151041e-06,349.573127927,1.35863864783,,,,,z,1,1.3338925615,2018_Nov_26_1232,59.9831092423,spanish_cond1,001,1045,
images/eraser.jpg,eraser,z,sounds/animalfarm_spanish.wav,,,,,,,,,0,0,0,1,0,104,104,110,350.680446814,8.98016151041e-06,351.556947621,0.876510749804,,,,,z,1,0.867086403072,2018_Nov_26_1232,59.9831092423,spanish_cond1,001,1045,
images/hammer02a.jpg,flower,x,sounds/animalfarm_spanish.wav,,,,,,,,,0,0,0,1,0,105,105,176,352.651862355,9.30088572204e-06,354.190942685,1.53908963082,,,,,x,1,1.51729063748,2018_Nov_26_1232,59.9831092423,spanish_cond1,001,1045,
images/backpack01b.jpg,swallow,x,sounds/animalfarm_spanish.wav,,,,,,,,,0,0,0,1,0,106,106,228,355.321322597,8.98016151041e-06,356.558181751,1.23686877557,,,,,x,1,1.21720096411,2018_Nov_26_1232,59.9831092423,spanish_cond1,001,1045,
images/umbrella01.jpg,umbrella,z,sounds/animalfarm_spanish.wav,,,,,,,,,0,0,0,1,0,107,107,53,357.671118683,9.30088572204e-06,358.725384126,1.05427506461,,,,,z,1,1.03382309363,2018_Nov_26_1232,59.9831092423,spanish_cond1,001,1045,
images/beermug01b.jpg,beer mug,z,sounds/animalfarm_spanish.wav,,,,,,,,,0,0,0,1,0,108,108,111,359.842498752,8.98016151041e-06,361.659436149,1.81694701838,,,,,z,1,1.80067466584,2018_Nov_26_1232,59.9831092423,spanish_cond1,001,1045,
images/weight01.jpg,weight,z,sounds/animalfarm_spanish.wav,,,,,,,,,0,0,0,1,0,109,109,67,362.763950022,9.30088572204e-06,364.277118449,1.51317772875,,,,,z,1,1.50096664904,2018_Nov_26_1232,59.9831092423,spanish_cond1,001,1045,
images/grasshopper.jpg,cauliflower,x,sounds/animalfarm_spanish.wav,,,,,,,,,0,0,0,1,0,110,110,148,365.370286544,8.65943729877e-06,366.644004403,1.27372715995,,,,,x,1,1.25054361974,2018_Nov_26_1232,59.9831092423,spanish_cond1,001,1045,
images/broom02.jpg,broom,z,sounds/animalfarm_spanish.wav,,,,,,,,,0,0,0,1,0,111,111,116,367.737131766,8.98016151041e-06,368.661170601,0.924048136221,,,,,z,1,0.900461130659,2018_Nov_26_1232,59.9831092423,spanish_cond1,001,1045,
images/puzzle.jpg,puzzle,z,sounds/animalfarm_spanish.wav,,,,,,,,,0,0,0,1,0,112,112,57,369.781506856,8.98016151041e-06,371.311821277,1.53032468376,,,,,z,1,1.51728261937,2018_Nov_26_1232,59.9831092423,spanish_cond1,001,1045,
images/tent.jpg,tent,z,sounds/animalfarm_spanish.wav,,,,,,,,,0,0,0,1,0,113,113,11,372.43836025,9.30088572204e-06,373.529028976,1.09067834774,,,,,z,1,1.06715548609,2018_Nov_26_1232,59.9831092423,spanish_cond1,001,1045,
images/camera01a.jpg,bull,x,sounds/animalfarm_spanish.wav,,,,,,,,,0,0,0,1,0,114,114,138,374.64147168,8.98016151041e-06,375.49622064,0.854758260772,,,,,x,1,0.833805325674,2018_Nov_26_1232,59.9831092423,spanish_cond1,001,1045,
images/cigar.jpg,crocodile,x,sounds/animalfarm_spanish.wav,,,,,,,,,0,0,0,1,0,115,115,162,376.594163287,9.30088572204e-06,377.630046042,1.03589301824,,,,,x,1,1.01715336938,2018_Nov_26_1232,59.9831092423,spanish_cond1,001,1045,
images/computermouse02a.jpg,world map,x,sounds/animalfarm_spanish.wav,,,,,,,,,0,0,0,1,0,116,116,239,378.731269331,9.30088572204e-06,381.73090788,2.99964881199,,,,,None,0,,2018_Nov_26_1232,59.9831092423,spanish_cond1,001,1045,
images/baseball01a.jpg,baseball,z,sounds/animalfarm_spanish.wav,,,,,,,,,0,0,0,1,0,117,117,74,382.862960345,9.62149351835e-06,383.814903714,0.951953631593,,,,,z,1,0.933763375622,2018_Nov_26_1232,59.9831092423,spanish_cond1,001,1045,
images/microphone01.jpg,diaper,x,sounds/animalfarm_spanish.wav,,,,,,,,,0,0,0,1,0,118,118,164,384.913918206,9.30088572204e-06,386.398708077,1.48479981325,,,,,x,1,1.46708133584,2018_Nov_26_1232,59.9831092423,spanish_cond1,001,1045,
images/safe.jpg,safe,z,sounds/animalfarm_spanish.wav,,,,,,,,,0,0,0,1,0,119,119,78,387.509909596,9.30076930672e-06,389.082876201,1.57297622692,,,,,z,1,1.55062399211,2018_Nov_26_1232,59.9831092423,spanish_cond1,001,1045,
images/lily.jpg,kiwi,x,sounds/animalfarm_spanish.wav,,,,,,,,,0,0,0,1,0,120,120,190,390.182092106,9.62160993367e-06,391.183394227,1.00131206412,,,,,x,1,0.983808468794,2018_Nov_26_1232,59.9831092423,spanish_cond1,001,1045,
images/flipflop01b.jpg,flip flop,z,sounds/animalfarm_spanish.wav,,,,,,,,,0,0,0,1,0,121,121,27,392.3000034,8.98016151041e-06,393.533969021,1.23397524306,,,,,z,1,1.21720256784,2018_Nov_26_1232,59.9831092423,spanish_cond1,001,1045,
images/aloe02.jpg,broad sword,x,sounds/animalfarm_spanish.wav,,,,,,,,,0,0,0,1,0,122,122,137,394.65528732,9.62160993367e-06,395.601320146,0.946067143348,,,,,x,1,0.933885890525,2018_Nov_26_1232,59.9831092423,spanish_cond1,001,1045,
images/remotecontrol01c.jpg,remote control,z,sounds/animalfarm_spanish.wav,,,,,,,,,0,0,0,1,0,123,123,85,396.71088856,8.65943729877e-06,398.201789103,1.49090984312,,,,,z,1,1.46726254246,2018_Nov_26_1232,59.9831092423,spanish_cond1,001,1045,
images/mushroom01.jpg,shower head,x,sounds/animalfarm_spanish.wav,,,,,,,,,0,0,0,1,0,124,124,222,399.318328999,9.30088572204e-06,400.71907108,1.40075170272,,,,,x,1,1.38388184947,2018_Nov_26_1232,59.9831092423,spanish_cond1,001,1045,
images/saltshaker03c.jpg,salt shaker,z,sounds/animalfarm_spanish.wav,,,,,,,,,0,0,0,1,0,125,125,63,401.830329366,9.94233414531e-06,402.786253507,0.955933762365,,,,,z,1,0.933798975428,2018_Nov_26_1232,59.9831092423,spanish_cond1,001,1045,
images/tulip02.jpg,sport shorts,x,sounds/animalfarm_spanish.wav,,,,,,,,,0,0,0,1,0,126,126,225,403.880270867,8.98004509509e-06,404.670061591,0.789800345548,,,,,x,1,0.767102695652,2018_Nov_26_1232,59.9831092423,spanish_cond1,001,1045,
images/flower01.jpg,bus,x,sounds/animalfarm_spanish.wav,,,,,,,,,0,0,0,1,0,127,127,140,405.784284609,9.30088572204e-06,406.670530162,0.886255495599,,,,,x,1,0.86710853281,2018_Nov_26_1232,59.9831092423,spanish_cond1,001,1045,
images/electrictoothbrush01a.jpg,banjo,x,sounds/animalfarm_spanish.wav,,,,,,,,,0,0,0,1,0,128,128,127,407.765593068,9.30088572204e-06,409.504583725,1.73900059913,,,,,x,1,1.71733342146,2018_Nov_26_1232,59.9831092423,spanish_cond1,001,1045,
images/bicycle.jpg,hand bag,x,sounds/animalfarm_spanish.wav,,,,,,,,,0,0,0,1,0,129,129,186,410.614641878,9.30088572204e-06,411.738460187,1.12382793007,,,,,x,1,1.10050327331,2018_Nov_26_1232,59.9831092423,spanish_cond1,001,1045,
images/ceilingfan02.jpg,paper clip,x,sounds/animalfarm_spanish.wav,,,,,,,,,0,0,0,1,0,130,130,208,412.836845427,9.30076930672e-06,414.005680266,1.16884445993,,,,,x,1,1.15051789815,2018_Nov_26_1232,59.9831092423,spanish_cond1,001,1045,
images/aquarium.jpg,computer mouse,x,sounds/animalfarm_spanish.wav,,,,,,,,,0,0,0,1,0,131,131,159,415.140711574,8.98016151041e-06,416.873053071,1.73235047737,,,,,x,1,1.71731738548,2018_Nov_26_1232,59.9831092423,spanish_cond1,001,1045,
images/lantern03.jpg,lantern,z,sounds/animalfarm_spanish.wav,,,,,,,,,0,0,0,1,0,132,132,5,417.979482282,8.98016151041e-06,418.940239667,0.960767007433,,,,,z,1,0.950461643864,2018_Nov_26_1232,59.9831092423,spanish_cond1,001,1045,
images/peach01.jpg,peach,z,sounds/animalfarm_spanish.wav,,,,,,,,,0,0,0,1,0,133,133,106,420.068880316,9.62149351835e-06,421.140774756,1.07190374041,,,,,z,1,1.05049025198,2018_Nov_26_1232,59.9831092423,spanish_cond1,001,1045,
images/giraffe.jpg,lettuce,x,sounds/animalfarm_spanish.wav,,,,,,,,,0,0,0,1,0,134,134,195,422.241298555,9.30076930672e-06,423.107938837,0.866649903706,,,,,x,1,0.850452599581,2018_Nov_26_1232,59.9831092423,spanish_cond1,001,1045,
images/toucan.jpg,toucan,z,sounds/animalfarm_spanish.wav,,,,,,,,,0,0,0,1,0,135,135,81,424.208437621,9.62160993367e-06,427.208795865,3.00036914833,,,,,None,0,,2018_Nov_26_1232,59.9831092423,spanish_cond1,001,1045,
images/apple06.jpg,apple,z,sounds/animalfarm_spanish.wav,,,,,,,,,0,0,0,1,0,136,136,13,428.335836764,8.98016151041e-06,429.02605334,0.690226517851,,,,,z,1,0.667069918127,2018_Nov_26_1232,59.9831092423,spanish_cond1,001,1045,
images/dryingmachine01.jpg,drying machine,z,sounds/animalfarm_spanish.wav,,,,,,,,,0,0,0,1,0,137,137,18,430.147057975,9.30088572204e-06,432.393581694,2.24653302063,,,,,z,1,2.23415067664,2018_Nov_26_1232,59.9831092423,spanish_cond1,001,1045,
images/stapler03a.jpg,candy cane,x,sounds/animalfarm_spanish.wav,,,,,,,,,0,0,0,1,0,138,138,145,433.503960246,8.98016151041e-06,434.394064377,0.890113111469,,,,,x,1,0.867136114743,2018_Nov_26_1232,59.9831092423,spanish_cond1,001,1045,
images/pen03c.jpg,pepper,x,sounds/animalfarm_spanish.wav,,,,,,,,,0,0,0,1,0,139,139,211,435.487583018,8.98016151041e-06,436.5445842,1.05700984097,,,,,x,1,1.03383207379,2018_Nov_26_1232,59.9831092423,spanish_cond1,001,1045,
images/pepper05a.jpg,lighter,x,sounds/animalfarm_spanish.wav,,,,,,,,,0,0,0,1,0,140,140,198,437.665354389,9.30088572204e-06,438.811812297,1.14646720898,,,,,x,1,1.13385426765,2018_Nov_26_1232,59.9831092423,spanish_cond1,001,1045,
images/pictureframe04.jpg,picture frame,z,sounds/animalfarm_spanish.wav,,,,,,,,,0,0,0,1,0,141,141,41,439.933358948,9.62160993367e-06,442.029325642,2.095976957,,,,,z,1,2.08414272277,2018_Nov_26_1232,59.9831092423,spanish_cond1,001,1045,
images/coin01b.jpg,arrow,x,sounds/animalfarm_spanish.wav,,,,,,,,,0,0,0,1,0,142,142,124,443.134249073,9.30088572204e-06,444.313151943,1.17891217023,,,,,x,1,1.16717383126,2018_Nov_26_1232,59.9831092423,spanish_cond1,001,1045,
images/desktopcomputer.jpg,desktop computer,z,sounds/animalfarm_spanish.wav,,,,,,,,,0,0,0,1,0,143,143,16,445.448712118,8.98016151041e-06,446.880457205,1.43175470852,,,,,z,1,1.41724984185,2018_Nov_26_1232,59.9831092423,spanish_cond1,001,1045,
images/belt02a.jpg,snowman,x,sounds/animalfarm_spanish.wav,,,,,,,,,0,0,0,1,0,144,144,224,447.983429699,9.30088572204e-06,448.714242326,0.730822248268,,,,,x,1,0.717080373666,2018_Nov_26_1232,59.9831092423,spanish_cond1,001,1045,
images/teapot.jpg,light switch,x,sounds/animalfarm_spanish.wav,,,,,,,,,0,0,0,1,0,145,145,197,449.831420775,8.98016151041e-06,450.76474252,0.933331366279,,,,,x,1,0.917121554026,2018_Nov_26_1232,59.9831092423,spanish_cond1,001,1045,
images/seagull.jpg,seagull,z,sounds/animalfarm_spanish.wav,,,,,,,,,0,0,0,1,0,146,146,50,451.872230105,9.62160993367e-06,452.765240277,0.893020114279,,,,,z,1,0.883764145314,2018_Nov_26_1232,59.9831092423,spanish_cond1,001,1045,
images/shotglass.jpg,shot glass,z,sounds/animalfarm_spanish.wav,,,,,,,,,0,0,0,1,0,147,147,86,453.873821836,9.30088572204e-06,455.099181267,1.22536905203,,,,,z,1,1.21721475513,2018_Nov_26_1232,59.9831092423,spanish_cond1,001,1045,
images/wallet01.jpg,lamp,x,sounds/animalfarm_spanish.wav,,,,,,,,,0,0,0,1,0,148,148,193,456.256574111,8.65943729877e-06,457.082976586,0.826412417227,,,,,x,1,0.817109623225,2018_Nov_26_1232,59.9831092423,spanish_cond1,001,1045,
images/rhinoceros01.jpg,envelope,x,sounds/animalfarm_spanish.wav,,,,,,,,,0,0,0,1,0,149,149,173,458.194883046,9.30088572204e-06,459.333541373,1.1386682695,,,,,x,1,1.11718742992,2018_Nov_26_1232,59.9831092423,spanish_cond1,001,1045,
images/headphones02b.jpg,headphones,z,sounds/animalfarm_spanish.wav,,,,,,,,,0,0,0,1,0,150,150,101,460.441138324,9.62149351835e-06,461.384040285,0.942911903374,,,,,z,1,0.933786146692,2018_Nov_26_1232,59.9831092423,spanish_cond1,001,1045,
images/redfox.jpg,red fox,z,sounds/animalfarm_spanish.wav,,,,,,,,,0,0,0,1,0,151,151,1,462.496597806,9.30088572204e-06,463.717940223,1.22135235928,,,,,z,1,1.20051776979,2018_Nov_26_1232,59.9831092423,spanish_cond1,001,1045,
images/corkscrew02a.jpg,masquerade mask,x,sounds/animalfarm_spanish.wav,,,,,,,,,0,0,0,1,0,152,152,201,464.822003164,9.62149351835e-06,466.45196197,1.62996906973,,,,,x,1,1.61730577541,2018_Nov_26_1232,59.9831092423,spanish_cond1,001,1045,
images/crocodile.jpg,triangle ruler,x,sounds/animalfarm_spanish.wav,,,,,,,,,0,0,0,1,0,153,153,235,467.549335341,9.30088572204e-06,468.969248118,1.41992239864,,,,,x,1,1.40058043832,2018_Nov_26_1232,59.9831092423,spanish_cond1,001,1045,
images/radish01.jpg,raisin,x,sounds/animalfarm_spanish.wav,,,,,,,,,0,0,0,1,0,154,154,214,470.080242131,9.30076930672e-06,471.653243053,1.57301054394,,,,,x,1,1.55062335066,2018_Nov_26_1232,59.9831092423,spanish_cond1,001,1045,
images/bottleofredwine02.jpg,pipe,x,sounds/animalfarm_spanish.wav,,,,,,,,,0,0,0,1,0,155,155,213,472.751600391,9.30088572204e-06,473.603713035,0.852122266078,,,,,x,1,0.833767480799,2018_Nov_26_1232,59.9831092423,spanish_cond1,001,1045,
images/magnifyingglass01b.jpg,magnifying glass,z,sounds/animalfarm_spanish.wav,,,,,,,,,0,0,0,1,0,156,156,64,474.710267326,9.62160993367e-06,475.670892255,0.960634229588,,,,,z,1,0.950461643864,2018_Nov_26_1232,59.9831092423,spanish_cond1,001,1045,
images/50dollarbill.jpg,cherry,x,sounds/animalfarm_spanish.wav,,,,,,,,,0,0,0,1,0,157,157,151,476.790854551,8.98004509509e-06,478.35489585,1.56405091996,,,,,x,1,1.55061533267,2018_Nov_26_1232,59.9831092423,spanish_cond1,001,1045,
images/dice05a.jpg,band aid,x,sounds/animalfarm_spanish.wav,,,,,,,,,0,0,0,1,0,158,158,126,479.467169534,8.98016151041e-06,480.28889303,0.821733117569,,,,,x,1,0.800625275122,2018_Nov_26_1232,59.9831092423,spanish_cond1,001,1045,
images/gamecontroller01.jpg,game controller,z,sounds/animalfarm_spanish.wav,,,,,,,,,0,0,0,1,0,159,159,112,481.408337043,9.30088572204e-06,482.505921768,1.09759402531,,,,,z,1,1.08384605707,2018_Nov_26_1232,59.9831092423,spanish_cond1,001,1045,
images/bracelet02a.jpg,chess knight,x,sounds/animalfarm_spanish.wav,,,,,,,,,0,0,0,1,0,160,160,152,483.614135782,8.65943729877e-06,484.856480525,1.24235372292,,,,,x,1,1.23385785962,2018_Nov_26_1232,59.9831092423,spanish_cond1,001,1045,
images/ruler02b.jpg,watermelon,x,sounds/animalfarm_spanish.wav,,,,,,,,,0,0,0,1,0,161,161,238,485.958476107,8.65943729877e-06,486.840155254,0.881688447902,,,,,x,1,0.866956191021,2018_Nov_26_1232,59.9831092423,spanish_cond1,001,1045,
images/cauliflower01.jpg,glue stick,x,sounds/animalfarm_spanish.wav,,,,,,,,,0,0,0,1,0,162,162,181,487.956004641,9.62160993367e-06,488.840802787,0.884808087721,,,,,x,1,0.867095062509,2018_Nov_26_1232,59.9831092423,spanish_cond1,001,1045,
images/button07.jpg,radish,x,sounds/animalfarm_spanish.wav,,,,,,,,,0,0,0,1,0,163,163,215,489.951258953,8.98016151041e-06,491.007846727,1.05659707484,,,,,x,1,1.03365888516,2018_Nov_26_1232,59.9831092423,spanish_cond1,001,1045,
images/banjo.jpg,knife,x,sounds/animalfarm_spanish.wav,,,,,,,,,0,0,0,1,0,164,164,191,492.103107517,9.62160993367e-06,492.90865648,0.805559546687,,,,,x,1,0.783935345593,2018_Nov_26_1232,59.9831092423,spanish_cond1,001,1045,
images/lighter02b.jpg,stapler,x,sounds/animalfarm_spanish.wav,,,,,,,,,0,0,0,1,0,165,165,227,494.008461226,3.07890586555e-05,497.009331017,3.00089609064,,,,,None,0,,2018_Nov_26_1232,59.9831092423,spanish_cond1,001,1045,
images/tape01a.jpg,tie,x,sounds/animalfarm_spanish.wav,,,,,,,,,0,0,0,1,0,166,166,232,498.133152533,9.30088572204e-06,499.076677332,0.943534420221,,,,,x,1,0.933803465567,2018_Nov_26_1232,59.9831092423,spanish_cond1,001,1045,
images/squirrel.jpg,binder,x,sounds/animalfarm_spanish.wav,,,,,,,,,0,0,0,1,0,167,167,132,500.179258868,9.30088572204e-06,501.127177526,0.94792860013,,,,,x,1,0.933799616992,2018_Nov_26_1232,59.9831092423,spanish_cond1,001,1045,
images/arrow02.jpg,hammer,x,sounds/animalfarm_spanish.wav,,,,,,,,,0,0,0,1,0,168,168,184,502.224055064,8.98016151041e-06,503.527786509,1.30374074564,,,,,x,1,1.28390263207,2018_Nov_26_1232,59.9831092423,spanish_cond1,001,1045,
images/ladder.jpg,ladder,z,sounds/animalfarm_spanish.wav,,,,,,,,,0,0,0,1,0,169,169,113,504.618973518,8.98016151041e-06,505.728318069,1.1093541733,,,,,z,1,1.10046157974,2018_Nov_26_1232,59.9831092423,spanish_cond1,001,1045,
images/leaf01a.jpg,leaf,z,sounds/animalfarm_spanish.wav,,,,,,,,,0,0,0,1,0,170,170,68,506.829584014,8.98016151041e-06,507.928851554,1.09927716211,,,,,z,1,1.08383515268,2018_Nov_26_1232,59.9831092423,spanish_cond1,001,1045,
images/sportshorts02.jpg,tape,x,sounds/animalfarm_spanish.wav,,,,,,,,,0,0,0,1,0,171,171,230,509.034930218,8.98016151041e-06,509.862653737,0.827733140788,,,,,x,1,0.817091663019,2018_Nov_26_1232,59.9831092423,spanish_cond1,001,1045,
images/hat05.jpg,hat,z,sounds/animalfarm_spanish.wav,,,,,,,,,0,0,0,1,0,172,172,15,510.965434761,9.30088572204e-06,513.830305954,2.86488113482,,,,,z,1,2.85093271686,2018_Nov_26_1232,59.9831092423,spanish_cond1,001,1045,
images/lightswitch02a.jpg,fork,x,sounds/animalfarm_spanish.wav,,,,,,,,,0,0,0,1,0,173,173,177,514.94064185,8.65943729877e-06,515.847471831,0.906839282252,,,,,x,1,0.883789161569,2018_Nov_26_1232,59.9831092423,spanish_cond1,001,1045,
images/cloud.jpg,ceiling fan,x,sounds/animalfarm_spanish.wav,,,,,,,,,0,0,0,1,0,174,174,149,516.951442725,8.98016151041e-06,518.314738543,1.36330575997,,,,,x,1,1.35056036129,2018_Nov_26_1232,59.9831092423,spanish_cond1,001,1045,
images/tie01.jpg,bench,x,sounds/animalfarm_spanish.wav,,,,,,,,,0,0,0,1,0,175,175,130,519.411999982,9.62149351835e-06,520.58199326,1.17000289925,,,,,x,1,1.15053906559,2018_Nov_26_1232,59.9831092423,spanish_cond1,001,1045,
images/cockroach02.jpg,belt,x,sounds/animalfarm_spanish.wav,,,,,,,,,0,0,0,1,0,176,176,129,521.679400626,8.98016151041e-06,522.615793582,0.936402577558,,,,,x,1,0.917118346901,2018_Nov_26_1232,59.9831092423,spanish_cond1,001,1045,
images/electricguitar02.jpg,electric guitar,z,sounds/animalfarm_spanish.wav,,,,,,,,,0,0,0,1,0,177,177,100,523.716504041,9.30088572204e-06,524.749665169,1.0331707499,,,,,z,1,1.01714054064,2018_Nov_26_1232,59.9831092423,spanish_cond1,001,1045,
images/diaper01a.jpg,camera,x,sounds/animalfarm_spanish.wav,,,,,,,,,0,0,0,1,0,178,178,143,525.868026432,9.30088572204e-06,526.933546569,1.06553007895,,,,,x,1,1.05050083576,2018_Nov_26_1232,59.9831092423,spanish_cond1,001,1045,
images/straw.jpg,straw,z,sounds/animalfarm_spanish.wav,,,,,,,,,0,0,0,1,0,179,179,109,528.023070005,9.30088572204e-06,529.117404236,1.0943438526,,,,,z,1,1.0838354734,2018_Nov_26_1232,59.9831092423,spanish_cond1,001,1045,
images/butterfly.jpg,butterfly,z,sounds/animalfarm_spanish.wav,,,,,,,,,0,0,0,1,0,180,180,91,530.223423567,8.98004509509e-06,531.217918735,0.994504789589,,,,,z,1,0.983796281507,2018_Nov_26_1232,59.9831092423,spanish_cond1,001,1045,
images/calculator02b.jpg,dice,x,sounds/animalfarm_spanish.wav,,,,,,,,,0,0,0,1,0,181,181,165,532.317963058,8.98016151041e-06,533.285119122,0.967165364302,,,,,x,1,0.95048409421,2018_Nov_26_1232,59.9831092423,spanish_cond1,001,1045,
images/honeycomb.jpg,honey comb,z,sounds/animalfarm_spanish.wav,,,,,,,,,0,0,0,1,0,182,182,59,534.398347909,8.98016151041e-06,535.452316686,1.05397871963,,,,,z,1,1.03382886655,2018_Nov_26_1232,59.9831092423,spanish_cond1,001,1045,
images/bed.jpg,bed,z,sounds/animalfarm_spanish.wav,,,,,,,,,0,0,0,1,0,183,183,103,536.570586866,9.30088572204e-06,537.436134456,0.865556570468,,,,,z,1,0.850392624969,2018_Nov_26_1232,59.9831092423,spanish_cond1,001,1045,
images/razor04a.jpg,razor,z,sounds/animalfarm_spanish.wav,,,,,,,,,0,0,0,1,0,184,184,36,538.533984095,9.30088572204e-06,539.38661406,0.852639266057,,,,,z,1,0.833783837501,2018_Nov_26_1232,59.9831092423,spanish_cond1,001,1045,
images/mattress.jpg,cat,x,sounds/animalfarm_spanish.wav,,,,,,,,,0,0,0,1,0,185,185,147,540.48932645,9.30088572204e-06,541.520468648,1.03115181962,,,,,x,1,1.01715048298,2018_Nov_26_1232,59.9831092423,spanish_cond1,001,1045,
images/bus.jpg,microphone,x,sounds/animalfarm_spanish.wav,,,,,,,,,0,0,0,1,0,186,186,203,542.6386641,9.30088572204e-06,543.604310857,0.965656699147,,,,,x,1,0.950469661853,2018_Nov_26_1232,59.9831092423,spanish_cond1,001,1045,
images/masquerademask02b.jpg,mirror,x,sounds/animalfarm_spanish.wav,,,,,,,,,0,0,0,1,0,187,187,204,544.70768393,9.62160993367e-06,545.921541712,1.21386772499,,,,,x,1,1.20052193908,2018_Nov_26_1232,59.9831092423,spanish_cond1,001,1045,
images/envelope02a.jpg,grand piano,x,sounds/animalfarm_spanish.wav,,,,,,,,,0,0,0,1,0,188,188,182,547.043180089,8.65943729877e-06,547.805361983,0.762190874317,,,,,x,1,0.750408276101,2018_Nov_26_1232,59.9831092423,spanish_cond1,001,1045,
images/blackolive.jpg,tank,x,sounds/animalfarm_spanish.wav,,,,,,,,,0,0,0,1,0,189,189,229,548.919055814,9.30088572204e-06,549.772512595,0.853466402041,,,,,x,1,0.833787686191,2018_Nov_26_1232,59.9831092423,spanish_cond1,001,1045,
images/lemon02.jpg,lemon,z,sounds/animalfarm_spanish.wav,,,,,,,,,0,0,0,1,0,190,190,14,550.882584218,9.62149351835e-06,551.672969235,0.79039431829,,,,,z,1,0.767084414605,2018_Nov_26_1232,59.9831092423,spanish_cond1,001,1045,
images/rubberglove02a.jpg,lady bug,x,sounds/animalfarm_spanish.wav,,,,,,,,,0,0,0,1,0,191,191,192,552.775881434,9.30088572204e-06,553.656795985,0.880923852208,,,,,x,1,0.867113343556,2018_Nov_26_1232,59.9831092423,spanish_cond1,001,1045,
images/lamp04b.jpg,parking meter,x,sounds/animalfarm_spanish.wav,,,,,,,,,0,0,0,1,0,192,192,209,554.776705683,8.98016151041e-06,555.757319464,0.980623401934,,,,,x,1,0.967149649048,2018_Nov_26_1232,59.9831092423,spanish_cond1,001,1045,
images/paperclip04.jpg,eye drops,x,sounds/animalfarm_spanish.wav,,,,,,,,,0,0,0,1,0,193,193,174,556.86304726,8.98016151041e-06,558.424646278,1.56160863989,,,,,x,1,1.55059512728,2018_Nov_26_1232,59.9831092423,spanish_cond1,001,1045,
images/clothespin02a.jpg,clothes pin,z,sounds/animalfarm_spanish.wav,,,,,,,,,0,0,0,1,0,194,194,79,559.529518715,8.98016151041e-06,561.958851991,2.42934321752,,,,,z,1,2.41750449326,2018_Nov_26_1232,59.9831092423,spanish_cond1,001,1045,
,,,sounds/animalfarm_spanish.wav,,,,,,,,,0,0,0,1,,,,,,,,,,,,,,,,2018_Nov_26_1232,59.9831092423,spanish_cond1,001,1045,
images/rubberglove02a.jpg,lady bug,x,sounds/greatgatsby_english.wav,,,,,,,,,0,1,1,0,0,0,0,192,583.089541076,9.30088572204e-06,585.014535014,1.9250032393,,,,572.961771822,x,1,1.90071032988,2018_Nov_26_1232,59.9831092423,spanish_cond1,001,1045,
images/hammer02a.jpg,flower,x,sounds/greatgatsby_english.wav,,,,,,,,,0,1,1,0,0,1,1,176,586.109269503,8.98016151041e-06,586.881871579,0.772611697088,,,,,x,1,0.750629572663,2018_Nov_26_1232,59.9831092423,spanish_cond1,001,1045,
images/parkbench03.jpg,park bench,z,sounds/greatgatsby_english.wav,,,,,,,,,0,1,1,0,0,2,2,71,587.985755879,9.30088572204e-06,588.932176134,0.946430839365,,,,,z,1,0.933811483555,2018_Nov_26_1232,59.9831092423,spanish_cond1,001,1045,
images/puzzle.jpg,puzzle,z,sounds/greatgatsby_english.wav,,,,,,,,,0,1,1,0,0,3,3,57,590.050967804,8.65943729877e-06,591.249440344,1.1984821622,,,,,z,1,1.18389743636,2018_Nov_26_1232,59.9831092423,spanish_cond1,001,1045,
images/volleyball.jpg,volley ball,z,sounds/greatgatsby_english.wav,,,,,,,,,0,1,1,0,0,4,4,2,592.379324423,9.94233414531e-06,593.099865041,0.720550880884,,,,,z,1,0.700417063897,2018_Nov_26_1232,59.9831092423,spanish_cond1,001,1045,
images/hairdryer03a.jpg,hairdryer,z,sounds/greatgatsby_english.wav,,,,,,,,,0,1,1,0,0,5,5,119,594.198290693,9.30076930672e-06,595.167036563,0.968755492242,,,,,z,1,0.950466775335,2018_Nov_26_1232,59.9831092423,spanish_cond1,001,1045,
images/djmixer01.jpg,light bulb,x,sounds/greatgatsby_english.wav,,,,,,,,,0,1,1,0,0,6,6,196,596.287459092,8.98016151041e-06,597.034162415,0.74671262363,,,,,x,1,0.733749456354,2018_Nov_26_1232,59.9831092423,spanish_cond1,001,1045,
images/arrow02.jpg,hammer,x,sounds/greatgatsby_english.wav,,,,,,,,,0,1,1,0,0,7,7,184,598.130528726,9.94233414531e-06,598.984652924,0.85413414042,,,,,x,1,0.833789931261,2018_Nov_26_1232,59.9831092423,spanish_cond1,001,1045,
images/ashtray02b.jpg,ashtray,z,sounds/greatgatsby_english.wav,,,,,,,,,0,1,1,0,0,8,8,43,600.097251497,8.98016151041e-06,601.035147986,0.937906111358,,,,,z,1,0.917130534188,2018_Nov_26_1232,59.9831092423,spanish_cond1,001,1045,
images/nametag01a.jpg,name tag,z,sounds/greatgatsby_english.wav,,,,,,,,,0,1,1,0,0,9,9,108,602.15459649,9.30088572204e-06,603.068980381,0.914394154213,,,,,z,1,0.900458564865,2018_Nov_26_1232,59.9831092423,spanish_cond1,001,1045,
images/printer03a.jpg,printer,z,sounds/greatgatsby_english.wav,,,,,,,,,0,1,1,0,0,10,10,72,604.177141798,8.65943729877e-06,605.002786733,0.825653915294,,,,,z,1,0.817095190869,2018_Nov_26_1232,59.9831092423,spanish_cond1,001,1045,
images/squirrel.jpg,binder,x,sounds/greatgatsby_english.wav,,,,,,,,,0,1,1,0,0,11,11,132,606.104986934,8.98016151041e-06,606.936611687,0.831634695176,,,,,x,1,0.81711732049,2018_Nov_26_1232,59.9831092423,spanish_cond1,001,1045,
images/weight01.jpg,weight,z,sounds/greatgatsby_english.wav,,,,,,,,,0,1,1,0,0,12,12,67,608.041106637,9.62160993367e-06,608.870421887,0.829324872233,,,,,z,1,0.817115075421,2018_Nov_26_1232,59.9831092423,spanish_cond1,001,1045,
images/microphone01.jpg,diaper,x,sounds/greatgatsby_english.wav,,,,,,,,,0,1,1,0,0,13,13,164,609.969630095,9.30088572204e-06,610.704031895,0.734412063146,,,,,x,1,0.716913599405,2018_Nov_26_1232,59.9831092423,spanish_cond1,001,1045,
images/pouch01b.jpg,pouch,z,sounds/greatgatsby_english.wav,,,,,,,,,0,1,1,0,0,14,14,25,611.815692363,8.98016151041e-06,612.604671667,0.788988924818,,,,,z,1,0.767095639952,2018_Nov_26_1232,59.9831092423,spanish_cond1,001,1045,
images/bottleofredwine02.jpg,pipe,x,sounds/greatgatsby_english.wav,,,,,,,,,0,1,1,0,0,15,15,213,613.702512005,8.98016151041e-06,614.671681546,0.969179162988,,,,,x,1,0.950309622684,2018_Nov_26_1232,59.9831092423,spanish_cond1,001,1045,
images/raisin.jpg,ruler,x,sounds/greatgatsby_english.wav,,,,,,,,,0,1,1,0,0,16,16,218,615.776225887,9.30088572204e-06,616.555652235,0.779435969656,,,,,x,1,0.767102375044,2018_Nov_26_1232,59.9831092423,spanish_cond1,001,1045,
images/coin01b.jpg,arrow,x,sounds/greatgatsby_english.wav,,,,,,,,,0,1,1,0,0,17,17,124,617.657780594,9.30088572204e-06,618.472788221,0.815017889719,,,,,x,1,0.800441181869,2018_Nov_26_1232,59.9831092423,spanish_cond1,001,1045,
images/hairpin.jpg,hair pin,z,sounds/greatgatsby_english.wav,,,,,,,,,0,1,1,0,0,18,18,28,619.56381006,9.30088572204e-06,620.423271033,0.859470915166,,,,,z,1,0.850420206902,2018_Nov_26_1232,59.9831092423,spanish_cond1,001,1045,
images/bed.jpg,bed,z,sounds/greatgatsby_english.wav,,,,,,,,,0,1,1,0,0,19,19,103,621.542276622,8.98004509509e-06,622.340404774,0.79813777341,,,,,z,1,0.783766326262,2018_Nov_26_1232,59.9831092423,spanish_cond1,001,1045,
images/skateboard.jpg,key,x,sounds/greatgatsby_english.wav,,,,,,,,,0,1,1,0,0,20,20,189,623.430555859,9.30088572204e-06,624.340892588,0.910346351564,,,,,x,1,0.900437076692,2018_Nov_26_1232,59.9831092423,spanish_cond1,001,1045,
images/paintbrush03a.jpg,paint brush,z,sounds/greatgatsby_english.wav,,,,,,,,,0,1,1,0,0,21,21,0,625.440471227,9.30088572204e-06,626.224697144,0.784235539148,,,,,z,1,0.767097884906,2018_Nov_26_1232,59.9831092423,spanish_cond1,001,1045,
images/screwdriver02b.jpg,cola,x,sounds/greatgatsby_english.wav,,,,,,,,,0,1,1,0,0,22,22,158,627.317713859,9.30088572204e-06,629.075392529,1.7576886121,,,,,x,1,1.73399737268,2018_Nov_26_1232,59.9831092423,spanish_cond1,001,1045,
images/toothbrush03a.jpg,parrot,x,sounds/greatgatsby_english.wav,,,,,,,,,0,1,1,0,0,23,23,210,630.167279348,8.98016151041e-06,631.175917611,1.0086482052,,,,,x,1,1.00048492814,2018_Nov_26_1232,59.9831092423,spanish_cond1,001,1045,
images/lettuce.jpg,mushroom,x,sounds/greatgatsby_english.wav,,,,,,,,,0,1,1,0,0,24,24,205,632.298483509,8.98016151041e-06,633.25976431,0.961290421896,,,,,x,1,0.950471586082,2018_Nov_26_1232,59.9831092423,spanish_cond1,001,1045,
images/battery03b.jpg,battery,z,sounds/greatgatsby_english.wav,,,,,,,,,0,1,1,0,0,25,25,34,634.367943045,9.62160993367e-06,635.560334421,1.19240099704,,,,,z,1,1.18387081672,2018_Nov_26_1232,59.9831092423,spanish_cond1,001,1045,
images/cake.jpg,cake,z,sounds/greatgatsby_english.wav,,,,,,,,,0,1,1,0,0,26,26,23,636.673343836,9.30088572204e-06,637.644180799,0.970847225864,,,,,z,1,0.950477679842,2018_Nov_26_1232,59.9831092423,spanish_cond1,001,1045,
images/lemon02.jpg,lemon,z,sounds/greatgatsby_english.wav,,,,,,,,,0,1,1,0,0,27,27,14,638.754218425,9.30088572204e-06,639.661334809,0.907126005623,,,,,z,1,0.883781784913,2018_Nov_26_1232,59.9831092423,spanish_cond1,001,1045,
images/radio03a.jpg,radio,z,sounds/greatgatsby_english.wav,,,,,,,,,0,1,1,0,0,28,28,37,640.774238387,8.98016151041e-06,641.611818583,0.837590459036,,,,,z,1,0.817100643064,2018_Nov_26_1232,59.9831092423,spanish_cond1,001,1045,
images/tent.jpg,tent,z,sounds/greatgatsby_english.wav,,,,,,,,,0,1,1,0,0,29,29,11,642.73772638,8.98016151041e-06,643.462282408,0.724565328681,,,,,z,1,0.700408083736,2018_Nov_26_1232,59.9831092423,spanish_cond1,001,1045,
images/candy.jpg,candy,z,sounds/greatgatsby_english.wav,,,,,,,,,0,1,1,0,0,30,30,31,644.562066628,8.98016151041e-06,645.196031864,0.633974537486,,,,,z,1,0.617042785278,2018_Nov_26_1232,59.9831092423,spanish_cond1,001,1045,
images/camera01a.jpg,bull,x,sounds/greatgatsby_english.wav,,,,,,,,,0,1,1,0,0,31,31,138,646.306640372,9.30088572204e-06,647.34657125,1.03994050017,,,,,x,1,1.01713637135,2018_Nov_26_1232,59.9831092423,spanish_cond1,001,1045,
images/safe.jpg,safe,z,sounds/greatgatsby_english.wav,,,,,,,,,0,1,1,0,0,32,32,78,648.456827608,9.30088572204e-06,649.530456179,1.07363819238,,,,,z,1,1.05050981592,2018_Nov_26_1232,59.9831092423,spanish_cond1,001,1045,
images/tank.jpg,wallet,x,sounds/greatgatsby_english.wav,,,,,,,,,0,1,1,0,0,33,33,237,650.634189099,9.30088572204e-06,652.081071191,1.44689235499,,,,,x,1,1.43392341468,2018_Nov_26_1232,59.9831092423,spanish_cond1,001,1045,
images/charcoalbarbecue.jpg,charcoal barbecue,z,sounds/greatgatsby_english.wav,,,,,,,,,0,1,1,0,0,34,34,77,653.19748729,8.98016151041e-06,655.248525652,2.05104830419,,,,,z,1,2.03402386408,2018_Nov_26_1232,59.9831092423,spanish_cond1,001,1045,
images/eraser.jpg,eraser,z,sounds/greatgatsby_english.wav,,,,,,,,,0,1,1,0,0,35,35,110,656.353381732,8.98016151041e-06,657.215666641,0.862294530962,,,,,z,1,0.850440733018,2018_Nov_26_1232,59.9831092423,spanish_cond1,001,1045,
images/banana04a.jpg,banana,z,sounds/greatgatsby_english.wav,,,,,,,,,0,1,1,0,0,36,36,118,658.320978144,8.65943729877e-06,659.149495123,0.828526601079,,,,,z,1,0.817118282779,2018_Nov_26_1232,59.9831092423,spanish_cond1,001,1045,
images/mattress.jpg,cat,x,sounds/greatgatsby_english.wav,,,,,,,,,0,1,1,0,0,37,37,147,660.253586287,9.30088572204e-06,661.350013534,1.09643718961,,,,,x,1,1.08382809674,2018_Nov_26_1232,59.9831092423,spanish_cond1,001,1045,
images/sunglasses03a.jpg,sun glasses,z,sounds/greatgatsby_english.wav,,,,,,,,,0,1,1,0,0,38,38,17,662.458028383,9.62160993367e-06,663.433875628,0.975857508136,,,,,z,1,0.967146121082,2018_Nov_26_1232,59.9831092423,spanish_cond1,001,1045,
images/bat.jpg,hand,x,sounds/greatgatsby_english.wav,,,,,,,,,0,1,1,0,0,39,39,185,664.529974779,8.98016151041e-06,665.534392692,1.00442785537,,,,,x,1,0.983820335357,2018_Nov_26_1232,59.9831092423,spanish_cond1,001,1045,
images/boxingglove02a.jpg,bracelet,x,sounds/greatgatsby_english.wav,,,,,,,,,0,1,1,0,0,40,40,135,666.645232759,9.30088572204e-06,668.301734644,1.65651182749,,,,,x,1,1.63394214469,2018_Nov_26_1232,59.9831092423,spanish_cond1,001,1045,
images/lightswitch02a.jpg,fork,x,sounds/greatgatsby_english.wav,,,,,,,,,0,1,1,0,0,41,41,177,669.412600049,9.30088572204e-06,670.25221938,0.839628953021,,,,,x,1,0.817103850306,2018_Nov_26_1232,59.9831092423,spanish_cond1,001,1045,
images/lightbulb03b.jpg,treadmill,x,sounds/greatgatsby_english.wav,,,,,,,,,0,1,1,0,0,42,42,234,671.353963518,8.98016151041e-06,672.202700588,0.848747012555,,,,,x,1,0.833770046593,2018_Nov_26_1232,59.9831092423,spanish_cond1,001,1045,
images/donut.jpg,rhinoceros,x,sounds/greatgatsby_english.wav,,,,,,,,,0,1,1,0,0,43,43,216,673.328385485,8.98016151041e-06,674.419911174,1.09153498989,,,,,x,1,1.06715997634,2018_Nov_26_1232,59.9831092423,spanish_cond1,001,1045,
images/cat.jpg,black olive,x,sounds/greatgatsby_english.wav,,,,,,,,,0,1,1,0,0,44,44,133,675.55035106,9.30088572204e-06,676.653794049,1.10345261102,,,,,x,1,1.08383002109,2018_Nov_26_1232,59.9831092423,spanish_cond1,001,1045,
images/croissant02b.jpg,croissant,z,sounds/greatgatsby_english.wav,,,,,,,,,0,1,1,0,0,45,45,39,677.764507112,9.30088572204e-06,678.804320607,1.03982311673,,,,,z,1,1.01714246499,2018_Nov_26_1232,59.9831092423,spanish_cond1,001,1045,
images/ladder.jpg,ladder,z,sounds/greatgatsby_english.wav,,,,,,,,,0,1,1,0,0,46,46,113,679.89679306,9.30088572204e-06,680.704800018,0.808016900672,,,,,z,1,0.783765684813,2018_Nov_26_1232,59.9831092423,spanish_cond1,001,1045,
images/handbag02a.jpg,candle,x,sounds/greatgatsby_english.wav,,,,,,,,,0,1,1,0,0,47,47,144,681.820340553,8.98016151041e-06,682.655275133,0.834944201168,,,,,x,1,0.817101605237,2018_Nov_26_1232,59.9831092423,spanish_cond1,001,1045,
images/feather03b.jpg,feather,z,sounds/greatgatsby_english.wav,,,,,,,,,0,1,1,0,0,48,48,114,683.755816251,3.49584734067e-05,684.755809516,1.00000833871,,,,,z,1,0.983825466945,2018_Nov_26_1232,59.9831092423,spanish_cond1,001,1045,
images/electrictoothbrush01a.jpg,banjo,x,sounds/greatgatsby_english.wav,,,,,,,,,0,1,1,0,0,49,49,127,685.850837142,9.30088572204e-06,686.639594508,0.788766986923,,,,,x,1,0.767090187641,2018_Nov_26_1232,59.9831092423,spanish_cond1,001,1045,
images/lock02a.jpg,lock,z,sounds/greatgatsby_english.wav,,,,,,,,,0,1,1,0,0,50,50,65,687.749728992,9.30088572204e-06,688.540064298,0.790345248301,,,,,z,1,0.767096281284,2018_Nov_26_1232,59.9831092423,spanish_cond1,001,1045,
images/gorilla.jpg,gorilla,z,sounds/greatgatsby_english.wav,,,,,,,,,0,1,1,0,0,51,51,80,689.650467866,9.30076930672e-06,690.557239797,0.906781873433,,,,,z,1,0.88379429304,2018_Nov_26_1232,59.9831092423,spanish_cond1,001,1045,
images/dragonfly02.jpg,dragon fly,z,sounds/greatgatsby_english.wav,,,,,,,,,0,1,1,0,0,52,52,29,691.654071792,9.30088572204e-06,692.557715745,0.903653894668,,,,,z,1,0.883780181408,2018_Nov_26_1232,59.9831092423,spanish_cond1,001,1045,
images/eyedrops.jpg,bicycle,x,sounds/greatgatsby_english.wav,,,,,,,,,0,1,1,0,0,53,53,131,693.658212924,8.98016151041e-06,694.374847819,0.716644836357,,,,,x,1,0.700413856655,2018_Nov_26_1232,59.9831092423,spanish_cond1,001,1045,
images/swan.jpg,swan,z,sounds/greatgatsby_english.wav,,,,,,,,,0,1,1,0,0,54,54,54,695.466384091,9.30088572204e-06,696.375342368,0.90896789846,,,,,z,1,0.900454395567,2018_Nov_26_1232,59.9831092423,spanish_cond1,001,1045,
images/radish01.jpg,raisin,x,sounds/greatgatsby_english.wav,,,,,,,,,0,1,1,0,0,55,55,214,697.486118933,8.98016151041e-06,698.225787591,0.73967827973,,,,,x,1,0.717079732101,2018_Nov_26_1232,59.9831092423,spanish_cond1,001,1045,
images/bullet (2).jpg,rubber glove,x,sounds/greatgatsby_english.wav,,,,,,,,,0,1,1,0,0,56,56,217,699.330031739,9.62160993367e-06,700.309625951,0.979604155058,,,,,x,1,0.967134575243,2018_Nov_26_1232,59.9831092423,spanish_cond1,001,1045,
images/globe.jpg,cloud,x,sounds/greatgatsby_english.wav,,,,,,,,,0,1,1,0,0,57,57,154,701.43691188,8.98016151041e-06,702.426814985,0.989912405028,,,,,x,1,0.967135216692,2018_Nov_26_1232,59.9831092423,spanish_cond1,001,1045,
images/cactus.jpg,cactus,z,sounds/greatgatsby_english.wav,,,,,,,,,0,1,1,0,0,58,58,70,703.536979616,9.30076930672e-06,704.477332177,0.940361861489,,,,,z,1,0.91713726928,2018_Nov_26_1232,59.9831092423,spanish_cond1,001,1045,
images/crocodile.jpg,triangle ruler,x,sounds/greatgatsby_english.wav,,,,,,,,,0,1,1,0,0,59,59,235,705.572659356,8.98016151041e-06,706.26110171,0.688451976166,,,,,x,1,0.667071842588,2018_Nov_26_1232,59.9831092423,spanish_cond1,001,1045,
images/cherry01.jpg,highlighter,x,sounds/greatgatsby_english.wav,,,,,,,,,0,1,1,0,0,60,60,187,707.36947801,9.62160993367e-06,708.161590744,0.792122355895,,,,,x,1,0.783781720791,2018_Nov_26_1232,59.9831092423,spanish_cond1,001,1045,
images/flamingo.jpg,flamingo,z,sounds/greatgatsby_english.wav,,,,,,,,,0,1,1,0,0,61,61,52,709.257819466,8.98016151041e-06,710.228749116,0.970938951708,,,,,z,1,0.950477679842,2018_Nov_26_1232,59.9831092423,spanish_cond1,001,1045,
images/antelope.jpg,antelope,z,sounds/greatgatsby_english.wav,,,,,,,,,0,1,1,0,0,62,62,12,711.332097494,9.30076930672e-06,712.779398446,1.44731121475,,,,,z,1,1.43393624341,2018_Nov_26_1232,59.9831092423,spanish_cond1,001,1045,
images/kiwi03.jpg,backpack,x,sounds/greatgatsby_english.wav,,,,,,,,,0,1,1,0,0,63,63,125,713.906605157,8.98016151041e-06,714.846546234,0.939951019711,,,,,x,1,0.917125081993,2018_Nov_26_1232,59.9831092423,spanish_cond1,001,1045,
images/carrot02.jpg,corkscrew,x,sounds/greatgatsby_english.wav,,,,,,,,,0,1,1,0,0,64,64,161,715.946927634,9.94233414531e-06,716.997073754,1.05015606224,,,,,x,1,1.03381411347,2018_Nov_26_1232,59.9831092423,spanish_cond1,001,1045,
images/seagull.jpg,seagull,z,sounds/greatgatsby_english.wav,,,,,,,,,0,1,1,0,0,65,65,50,718.102848696,9.30088572204e-06,718.864222697,0.761383623001,,,,,z,1,0.750411483343,2018_Nov_26_1232,59.9831092423,spanish_cond1,001,1045,
images/50dollarbill.jpg,cherry,x,sounds/greatgatsby_english.wav,,,,,,,,,0,1,1,0,0,66,66,151,719.984753309,1.18665629998e-05,721.114764393,1.13002166781,,,,,x,1,1.11717716686,2018_Nov_26_1232,59.9831092423,spanish_cond1,001,1045,
images/barrel01.jpg,barrel,z,sounds/greatgatsby_english.wav,,,,,,,,,0,1,1,0,0,67,67,9,722.243271302,4.20142896473e-05,723.315306858,1.07205832738,,,,,z,1,1.05048736557,2018_Nov_26_1232,59.9831092423,spanish_cond1,001,1045,
images/pen03c.jpg,pepper,x,sounds/greatgatsby_english.wav,,,,,,,,,0,1,1,0,0,68,68,211,724.407463723,8.98016151041e-06,725.149089092,0.741634990205,,,,,x,1,0.733747532009,2018_Nov_26_1232,59.9831092423,spanish_cond1,001,1045,
images/ear.jpg,bullet,x,sounds/greatgatsby_english.wav,,,,,,,,,0,1,1,0,0,69,69,139,726.250652344,8.98016151041e-06,727.232955996,0.982313273824,,,,,x,1,0.9671490076,2018_Nov_26_1232,59.9831092423,spanish_cond1,001,1045,
images/orange.jpg,bat,x,sounds/greatgatsby_english.wav,,,,,,,,,0,1,1,0,0,70,70,128,728.355845821,9.30088572204e-06,729.516833291,1.1609974124,,,,,x,1,1.15051950165,2018_Nov_26_1232,59.9831092423,spanish_cond1,001,1045,
images/graduationcap.jpg,graduation cap,z,sounds/greatgatsby_english.wav,,,,,,,,,0,1,1,0,0,71,71,35,730.617769215,8.98016151041e-06,731.550664724,0.932905129855,,,,,z,1,0.917105518049,2018_Nov_26_1232,59.9831092423,spanish_cond1,001,1045,
images/straw.jpg,straw,z,sounds/greatgatsby_english.wav,,,,,,,,,0,1,1,0,0,72,72,109,732.6397337,9.30088572204e-06,733.7345442,1.09482076264,,,,,z,1,1.08384413284,2018_Nov_26_1232,59.9831092423,spanish_cond1,001,1045,
images/parkfountain.jpg,park fountain,z,sounds/greatgatsby_english.wav,,,,,,,,,0,1,1,0,0,73,73,93,734.853089236,8.98016151041e-06,736.201816684,1.34873707022,,,,,z,1,1.33389224077,2018_Nov_26_1232,59.9831092423,spanish_cond1,001,1045,
images/pepper05a.jpg,lighter,x,sounds/greatgatsby_english.wav,,,,,,,,,0,1,1,0,0,74,74,198,737.321168972,8.98016151041e-06,738.135632658,0.814473307692,,,,,x,1,0.800432522548,2018_Nov_26_1232,59.9831092423,spanish_cond1,001,1045,
images/table02.jpg,table,z,sounds/greatgatsby_english.wav,,,,,,,,,0,1,1,0,0,75,75,49,739.248090756,9.94221772999e-06,740.402863642,1.15478314855,,,,,z,1,1.13386164408,2018_Nov_26_1232,59.9831092423,spanish_cond1,001,1045,
images/triangleruler02.jpg,bottle of red wine,x,sounds/greatgatsby_english.wav,,,,,,,,,0,1,1,0,0,76,76,134,741.512168424,9.62160993367e-06,742.470034202,0.9578760406,,,,,x,1,0.933805389912,2018_Nov_26_1232,59.9831092423,spanish_cond1,001,1045,
images/bowl02b (1).jpg,bowl,z,sounds/greatgatsby_english.wav,,,,,,,,,0,1,1,0,0,77,77,24,743.585604242,9.30088572204e-06,744.503862106,0.918267485336,,,,,z,1,0.900451829773,2018_Nov_26_1232,59.9831092423,spanish_cond1,001,1045,
images/button07.jpg,radish,x,sounds/greatgatsby_english.wav,,,,,,,,,0,1,1,0,0,78,78,215,745.614091203,8.98016151041e-06,746.587705597,0.973623695783,,,,,x,1,0.950460681692,2018_Nov_26_1232,59.9831092423,spanish_cond1,001,1045,
images/hanger02a.jpg,hanger,z,sounds/greatgatsby_english.wav,,,,,,,,,0,1,1,0,0,79,79,88,747.679158483,8.98016151041e-06,749.071663201,1.39251401869,,,,,z,1,1.38391327998,2018_Nov_26_1232,59.9831092423,spanish_cond1,001,1045,
images/swallow.jpg,mattress,x,sounds/greatgatsby_english.wav,,,,,,,,,0,1,1,0,0,80,80,202,750.171280326,8.98016151041e-06,751.022148257,0.850877553108,,,,,x,1,0.83378608257,2018_Nov_26_1232,59.9831092423,spanish_cond1,001,1045,
images/stapler03a.jpg,candy cane,x,sounds/greatgatsby_english.wav,,,,,,,,,0,1,1,0,0,81,81,145,752.131094796,8.98016151041e-06,752.85592568,0.724840826821,,,,,x,1,0.700410007965,2018_Nov_26_1232,59.9831092423,spanish_cond1,001,1045,
images/beermug01b.jpg,beer mug,z,sounds/greatgatsby_english.wav,,,,,,,,,0,1,1,0,0,82,82,111,753.971766729,1.41117488965e-05,754.956442424,0.984686278505,,,,,z,1,0.967140668887,2018_Nov_26_1232,59.9831092423,spanish_cond1,001,1045,
images/giraffe.jpg,lettuce,x,sounds/greatgatsby_english.wav,,,,,,,,,0,1,1,0,0,83,83,195,756.055638765,9.30088572204e-06,756.890239796,0.834610011312,,,,,x,1,0.817075947765,2018_Nov_26_1232,59.9831092423,spanish_cond1,001,1045,
images/bowlingball.jpg,bowling ball,z,sounds/greatgatsby_english.wav,,,,,,,,,0,1,1,0,0,84,84,20,758.02045582,9.30088572204e-06,758.957450766,0.937005209853,,,,,z,1,0.917151381029,2018_Nov_26_1232,59.9831092423,spanish_cond1,001,1045,
images/8ball.jpg,nail clipper,x,sounds/greatgatsby_english.wav,,,,,,,,,0,1,1,0,0,85,85,206,760.07278155,8.98016151041e-06,760.791224341,0.718452412286,,,,,x,1,0.70034554333,2018_Nov_26_1232,59.9831092423,spanish_cond1,001,1045,
images/saltshaker03c.jpg,salt shaker,z,sounds/greatgatsby_english.wav,,,,,,,,,0,1,1,0,0,86,86,63,761.902732467,9.62149351835e-06,763.525220751,1.62249822635,,,,,z,1,1.60061424226,2018_Nov_26_1232,59.9831092423,spanish_cond1,001,1045,
images/peach01.jpg,peach,z,sounds/greatgatsby_english.wav,,,,,,,,,0,1,1,0,0,87,87,106,764.654192383,9.62160993367e-06,765.542384384,0.888201622292,,,,,z,1,0.867104042671,2018_Nov_26_1232,59.9831092423,spanish_cond1,001,1045,
images/fork01.jpg,cooking pot,x,sounds/greatgatsby_english.wav,,,,,,,,,0,1,1,0,0,88,88,160,766.636022012,8.65943729877e-06,767.609826593,0.973813882563,,,,,x,1,0.950710201636,2018_Nov_26_1232,59.9831092423,spanish_cond1,001,1045,
images/lychee02a.jpg,lychee,z,sounds/greatgatsby_english.wav,,,,,,,,,0,1,1,0,0,89,89,62,768.733812638,9.30088572204e-06,769.893442502,1.15963948553,,,,,z,1,1.1505009,2018_Nov_26_1232,59.9831092423,spanish_cond1,001,1045,
images/ruler02b.jpg,watermelon,x,sounds/greatgatsby_english.wav,,,,,,,,,0,1,1,0,0,90,90,238,770.995452837,9.30088572204e-06,771.693917039,0.698474464938,,,,,x,1,0.683753433288,2018_Nov_26_1232,59.9831092423,spanish_cond1,001,1045,
images/notebook02b.jpg,notebook,z,sounds/greatgatsby_english.wav,,,,,,,,,0,1,1,0,0,91,91,7,772.800067864,3.01477266476e-05,774.027819543,1.22777733591,,,,,z,1,1.21720513352,2018_Nov_26_1232,59.9831092423,spanish_cond1,001,1045,
images/fireextinguisher02.jpg,fire extinguisher,x,sounds/greatgatsby_english.wav,,,,,,,,,0,1,1,0,0,92,92,175,775.137842096,8.98016151041e-06,776.261704022,1.12387154798,,,,,z,0,1.10050744261,2018_Nov_26_1232,59.9831092423,spanish_cond1,001,1045,
images/treadmill.jpg,lily,x,sounds/greatgatsby_english.wav,,,,,,,,,0,1,1,0,0,93,93,199,777.367077102,9.30088572204e-06,779.095714608,1.72864712751,,,,,x,1,1.71730936738,2018_Nov_26_1232,59.9831092423,spanish_cond1,001,1045,
images/tie01.jpg,bench,x,sounds/greatgatsby_english.wav,,,,,,,,,0,1,1,0,0,94,94,130,780.193823709,9.30088572204e-06,781.162912429,0.969098662375,,,,,x,1,0.950477359118,2018_Nov_26_1232,59.9831092423,spanish_cond1,001,1045,
images/floorlamp.jpg,floor lamp,z,sounds/greatgatsby_english.wav,,,,,,,,,0,1,1,0,0,95,95,26,782.25480438,9.30088572204e-06,783.080071508,0.825276748976,,,,,z,1,0.817137205158,2018_Nov_26_1232,59.9831092423,spanish_cond1,001,1045,
images/wallet01.jpg,lamp,x,sounds/greatgatsby_english.wav,,,,,,,,,0,1,1,0,0,96,96,193,784.184772039,9.62149351835e-06,786.297519426,2.11275797081,,,,,x,1,2.10076754622,2018_Nov_26_1232,59.9831092423,spanish_cond1,001,1045,
images/bus.jpg,microphone,x,sounds/greatgatsby_english.wav,,,,,,,,,0,1,1,0,0,97,97,203,787.415763627,8.98016151041e-06,788.714760609,1.29900628224,,,,,x,1,1.28387280507,2018_Nov_26_1232,59.9831092423,spanish_cond1,001,1045,
images/aloe02.jpg,broad sword,x,sounds/greatgatsby_english.wav,,,,,,,,,0,1,1,0,0,98,98,137,789.834770692,9.62160993367e-06,791.382096083,1.54733533296,,,,,x,1,1.53395009856,2018_Nov_26_1232,59.9831092423,spanish_cond1,001,1045,
images/cola.jpg,comb,x,sounds/greatgatsby_english.wav,,,,,,,,,0,1,1,0,0,99,99,157,792.502701422,8.98016151041e-06,793.415928156,0.91323635634,,,,,x,1,0.900458244258,2018_Nov_26_1232,59.9831092423,spanish_cond1,001,1045,
images/tape01a.jpg,tie,x,sounds/greatgatsby_english.wav,,,,,,,,,0,1,1,0,0,100,100,232,794.541554361,8.33871308714e-06,795.54978531,1.00824024982,,,,,x,1,0.983800450806,2018_Nov_26_1232,59.9831092423,spanish_cond1,001,1045,
images/corkscrew02a.jpg,masquerade mask,x,sounds/greatgatsby_english.wav,,,,,,,,,0,1,1,0,0,101,101,201,796.653479423,9.30088572204e-06,799.434082492,2.78061269003,,,,,x,1,2.76758954814,2018_Nov_26_1232,59.9831092423,spanish_cond1,001,1045,
images/mushroom01.jpg,shower head,x,sounds/greatgatsby_english.wav,,,,,,,,,0,1,1,0,0,102,102,222,800.550343362,9.30076930672e-06,802.151425535,1.60109211446,,,,,x,1,1.58395830903,2018_Nov_26_1232,59.9831092423,spanish_cond1,001,1045,
images/parrot01.jpg,chameleon,x,sounds/greatgatsby_english.wav,,,,,,,,,0,1,1,0,0,103,103,150,803.264706599,8.98016151041e-06,804.368643176,1.10394684004,,,,,z,0,1.08384413284,2018_Nov_26_1232,59.9831092423,spanish_cond1,001,1045,
images/cupcake.jpg,scissors,x,sounds/greatgatsby_english.wav,,,,,,,,,0,1,1,0,0,104,104,219,805.487219964,8.98016151041e-06,806.019033107,0.53182276513,,,,,x,1,0.517026364454,2018_Nov_26_1232,59.9831092423,spanish_cond1,001,1045,
images/dryingmachine01.jpg,drying machine,z,sounds/greatgatsby_english.wav,,,,,,,,,0,1,1,0,0,105,105,18,807.140186556,8.98016151041e-06,809.269842283,2.12966534833,,,,,z,1,2.11742380017,2018_Nov_26_1232,59.9831092423,spanish_cond1,001,1045,
images/dresser02.jpg,dresser,z,sounds/greatgatsby_english.wav,,,,,,,,,0,1,1,0,0,106,106,87,810.391866806,8.65943729877e-06,811.120294883,0.728437697631,,,,,z,1,0.717083580792,2018_Nov_26_1232,59.9831092423,spanish_cond1,001,1045,
images/key03b.jpg,cigar,x,sounds/greatgatsby_english.wav,,,,,,,,,0,1,1,0,0,107,107,153,812.221469743,8.65943729877e-06,813.504216822,1.28275638004,,,,,x,1,1.26721270254,2018_Nov_26_1232,59.9831092423,spanish_cond1,001,1045,
images/lipstick04.jpg,lipstick,z,sounds/greatgatsby_english.wav,,,,,,,,,0,1,1,0,0,108,108,56,814.60379065,9.30088572204e-06,815.971490589,1.36770924076,,,,,z,1,1.35056645505,2018_Nov_26_1232,59.9831092423,spanish_cond1,001,1045,
images/beachumbrella01.jpg,beach umbrella,z,sounds/greatgatsby_english.wav,,,,,,,,,0,1,1,0,0,109,109,92,817.076842502,8.98016151041e-06,817.988659995,0.911827114178,,,,,z,1,0.900461451383,2018_Nov_26_1232,59.9831092423,spanish_cond1,001,1045,
images/cheetah.jpg,cheetah,z,sounds/greatgatsby_english.wav,,,,,,,,,0,1,1,0,0,110,110,82,819.090797976,9.62160993367e-06,820.03917398,0.948385946336,,,,,z,1,0.933807634865,2018_Nov_26_1232,59.9831092423,spanish_cond1,001,1045,
images/gps.jpg,gps,z,sounds/greatgatsby_english.wav,,,,,,,,,0,1,1,0,0,111,111,21,821.157501568,9.30088572204e-06,822.106343578,0.948851310532,,,,,z,1,0.933804748463,2018_Nov_26_1232,59.9831092423,spanish_cond1,001,1045,
images/diploma01.jpg,glasses,x,sounds/greatgatsby_english.wav,,,,,,,,,0,1,1,0,0,112,112,179,823.237284749,8.65943729877e-06,825.723896628,2.48662150069,,,,,x,1,2.46750564792,2018_Nov_26_1232,59.9831092423,spanish_cond1,001,1045,
images/envelope02a.jpg,grand piano,x,sounds/greatgatsby_english.wav,,,,,,,,,0,1,1,0,0,113,113,182,826.846161691,9.30088572204e-06,827.774415104,0.928262713016,,,,,x,1,0.917135665659,2018_Nov_26_1232,59.9831092423,spanish_cond1,001,1045,
images/marker01a.jpg,marker,z,sounds/greatgatsby_english.wav,,,,,,,,,0,1,1,0,0,114,114,95,828.872178469,9.62160993367e-06,830.241521135,1.36935228738,,,,,z,1,1.35040769889,2018_Nov_26_1232,59.9831092423,spanish_cond1,001,1045,
images/remotecontrol01c.jpg,remote control,z,sounds/greatgatsby_english.wav,,,,,,,,,0,1,1,0,0,115,115,85,831.350912832,9.30076930672e-06,833.125732043,1.7748288319,,,,,z,1,1.75066902116,2018_Nov_26_1232,59.9831092423,spanish_cond1,001,1045,
images/highlighter03b.jpg,coin,x,sounds/greatgatsby_english.wav,,,,,,,,,0,1,1,0,0,116,116,156,834.227350779,8.98016151041e-06,835.042874443,0.815533606918,,,,,x,1,0.800443106215,2018_Nov_26_1232,59.9831092423,spanish_cond1,001,1045,
images/flipflop01b.jpg,flip flop,z,sounds/greatgatsby_english.wav,,,,,,,,,0,1,1,0,0,117,117,27,836.159517291,8.98016151041e-06,837.376782079,1.21727440902,,,,,z,1,1.20052707056,2018_Nov_26_1232,59.9831092423,spanish_cond1,001,1045,
images/pipe.jpg,icecube,x,sounds/greatgatsby_english.wav,,,,,,,,,0,1,1,0,0,118,118,188,838.485923294,8.33871308714e-06,839.443943659,0.95802998601,,,,,x,1,0.933798013255,2018_Nov_26_1232,59.9831092423,spanish_cond1,001,1045,
images/candycane01a.jpg,lip,x,sounds/greatgatsby_english.wav,,,,,,,,,0,1,1,0,0,119,119,200,840.537442736,9.62160993367e-06,841.377750011,0.840317538125,,,,,x,1,0.817092304467,2018_Nov_26_1232,59.9831092423,spanish_cond1,001,1045,
images/corn01.jpg,corn,z,sounds/greatgatsby_english.wav,,,,,,,,,0,1,1,0,0,120,120,22,842.477049302,8.98016151041e-06,843.761699211,1.28465985111,,,,,z,1,1.26722970069,2018_Nov_26_1232,59.9831092423,spanish_cond1,001,1045,
images/toucan.jpg,toucan,z,sounds/greatgatsby_english.wav,,,,,,,,,0,1,1,0,0,121,121,81,844.861930193,8.98004509509e-06,845.795525191,0.933603977901,,,,,z,1,0.917132458533,2018_Nov_26_1232,59.9831092423,spanish_cond1,001,1045,
images/hat05.jpg,hat,z,sounds/greatgatsby_english.wav,,,,,,,,,0,1,1,0,0,122,122,15,846.899002498,8.98016151041e-06,847.745995174,0.84700229764,,,,,z,1,0.833778385306,2018_Nov_26_1232,59.9831092423,spanish_cond1,001,1045,
images/bracelet02a.jpg,chess knight,x,sounds/greatgatsby_english.wav,,,,,,,,,0,1,1,0,0,123,123,152,848.854981161,9.30088572204e-06,849.913206529,1.05823531072,,,,,x,1,1.03383367741,2018_Nov_26_1232,59.9831092423,spanish_cond1,001,1045,
images/electricguitar02.jpg,electric guitar,z,sounds/greatgatsby_english.wav,,,,,,,,,0,1,1,0,0,124,124,100,851.016352853,8.65943729877e-06,851.847009353,0.830665801186,,,,,z,1,0.817090380122,2018_Nov_26_1232,59.9831092423,spanish_cond1,001,1045,
images/tulip02.jpg,sport shorts,x,sounds/greatgatsby_english.wav,,,,,,,,,0,1,1,0,0,125,125,225,852.940974757,8.98004509509e-06,854.447653423,1.50668828737,,,,,x,1,1.48394541605,2018_Nov_26_1232,59.9831092423,spanish_cond1,001,1045,
images/lollipop03b.jpg,lollipop,z,sounds/greatgatsby_english.wav,,,,,,,,,0,1,1,0,0,126,126,42,855.540229789,8.98016151041e-06,857.164994541,1.62477469444,,,,,z,1,1.60063573043,2018_Nov_26_1232,59.9831092423,spanish_cond1,001,1045,
images/thumbtack02a.jpg,thumb tack,z,sounds/greatgatsby_english.wav,,,,,,,,,0,1,1,0,0,127,127,60,858.275035375,8.98016151041e-06,859.59891507,1.32388995728,,,,,z,1,1.30055247166,2018_Nov_26_1232,59.9831092423,spanish_cond1,001,1045,
images/redfox.jpg,red fox,z,sounds/greatgatsby_english.wav,,,,,,,,,0,1,1,0,0,128,128,1,860.710792024,9.30088572204e-06,862.866395573,2.15561317105,,,,,z,1,2.13409705227,2018_Nov_26_1232,59.9831092423,spanish_cond1,001,1045,
images/drink.jpg,drink,z,sounds/greatgatsby_english.wav,,,,,,,,,0,1,1,0,0,129,129,117,863.966287555,9.30076930672e-06,865.250316871,1.28403893788,,,,,z,1,1.26721623039,2018_Nov_26_1232,59.9831092423,spanish_cond1,001,1045,
images/magnifyingglass01b.jpg,magnifying glass,z,sounds/greatgatsby_english.wav,,,,,,,,,0,1,1,0,0,130,130,64,866.356826261,8.98016151041e-06,867.100768188,0.74395154824,,,,,z,1,0.733752342872,2018_Nov_26_1232,59.9831092423,spanish_cond1,001,1045,
images/apple06.jpg,apple,z,sounds/greatgatsby_english.wav,,,,,,,,,0,1,1,0,0,131,131,13,868.227330894,9.30076930672e-06,869.034582237,0.807260964415,,,,,z,1,0.783763760468,2018_Nov_26_1232,59.9831092423,spanish_cond1,001,1045,
images/candle08a.jpg,screw driver,x,sounds/greatgatsby_english.wav,,,,,,,,,0,1,1,0,0,132,132,221,870.148198774,8.98016151041e-06,871.085096543,0.936908031697,,,,,x,1,0.91713726928,2018_Nov_26_1232,59.9831092423,spanish_cond1,001,1045,
images/baseball01a.jpg,baseball,z,sounds/greatgatsby_english.wav,,,,,,,,,0,1,1,0,0,133,133,74,872.216834382,9.62160993367e-06,873.20226505,0.985439969576,,,,,z,1,0.967132650898,2018_Nov_26_1232,59.9831092423,spanish_cond1,001,1045,
images/ceilingfan02.jpg,paper clip,x,sounds/greatgatsby_english.wav,,,,,,,,,0,1,1,0,0,134,134,208,874.300271842,8.98016151041e-06,875.186098215,0.885835994268,,,,,x,1,0.867115267902,2018_Nov_26_1232,59.9831092423,spanish_cond1,001,1045,
images/daisy.jpg,daisy,z,sounds/greatgatsby_english.wav,,,,,,,,,0,1,1,0,0,135,135,6,876.28846102,8.98016151041e-06,877.203265054,0.914813655545,,,,,z,1,0.900455037015,2018_Nov_26_1232,59.9831092423,spanish_cond1,001,1045,
images/masquerademask02b.jpg,mirror,x,sounds/greatgatsby_english.wav,,,,,,,,,0,1,1,0,0,136,136,204,878.307817092,8.98016151041e-06,878.987033626,0.679226154811,,,,,x,1,0.667069276678,2018_Nov_26_1232,59.9831092423,spanish_cond1,001,1045,
images/puma.jpg,puma,z,sounds/greatgatsby_english.wav,,,,,,,,,0,1,1,0,0,137,137,4,880.085427205,8.98016151041e-06,880.987526251,0.902108667535,,,,,z,1,0.88378819928,2018_Nov_26_1232,59.9831092423,spanish_cond1,001,1045,
images/acousticguitar02.jpg,acoustic guitar,z,sounds/greatgatsby_english.wav,,,,,,,,,0,1,1,0,0,138,138,97,882.099967672,8.98016151041e-06,882.921332924,0.821374553139,,,,,z,1,0.8004318811,2018_Nov_26_1232,59.9831092423,spanish_cond1,001,1045,
images/blueberry02.jpg,blueberry,z,sounds/greatgatsby_english.wav,,,,,,,,,0,1,1,0,0,139,139,46,884.033859335,8.98016151041e-06,884.838474362,0.804624648998,,,,,z,1,0.783759591053,2018_Nov_26_1232,59.9831092423,spanish_cond1,001,1045,
images/basketball01.jpg,basket ball,z,sounds/greatgatsby_english.wav,,,,,,,,,0,1,1,0,0,140,140,33,885.976906582,8.98016151041e-06,886.772476033,0.795595108182,,,,,x,0,0.783891406958,2018_Nov_26_1232,59.9831092423,spanish_cond1,001,1045,
images/calculator02b.jpg,dice,x,sounds/greatgatsby_english.wav,,,,,,,,,0,1,1,0,0,141,141,165,887.87385904,8.98016151041e-06,889.639663463,1.76581468561,,,,,x,1,1.75067126611,2018_Nov_26_1232,59.9831092423,spanish_cond1,001,1045,
images/diaper01a.jpg,camera,x,sounds/greatgatsby_english.wav,,,,,,,,,0,1,1,0,0,142,142,143,890.759330376,8.98016151041e-06,891.923557114,1.16423636011,,,,,x,1,1.15051533235,2018_Nov_26_1232,59.9831092423,spanish_cond1,001,1045,
images/broom02.jpg,broom,z,sounds/greatgatsby_english.wav,,,,,,,,,0,1,1,0,0,143,143,116,893.016737717,8.98016151041e-06,893.774032164,0.757304069237,,,,,z,1,0.73377062392,2018_Nov_26_1232,59.9831092423,spanish_cond1,001,1045,
images/shotglass.jpg,shot glass,z,sounds/greatgatsby_english.wav,,,,,,,,,0,1,1,0,0,144,144,86,894.88185875,8.98016151041e-06,895.607802532,0.725953403278,,,,,z,1,0.717087108642,2018_Nov_26_1232,59.9831092423,spanish_cond1,001,1045,
images/lily.jpg,kiwi,x,sounds/greatgatsby_english.wav,,,,,,,,,0,1,1,0,0,145,145,190,896.707548907,9.30088572204e-06,897.624967126,0.917428482673,,,,,x,1,0.900465620682,2018_Nov_26_1232,59.9831092423,spanish_cond1,001,1045,
images/tissuebox03.jpg,tissue box,z,sounds/greatgatsby_english.wav,,,,,,,,,0,1,1,0,0,146,146,58,898.749725464,8.98004509509e-06,900.508849938,1.75913377467,,,,,z,1,1.75050673704,2018_Nov_26_1232,59.9831092423,spanish_cond1,001,1045,
images/snowman.jpg,globe,x,sounds/greatgatsby_english.wav,,,,,,,,,0,1,1,0,0,147,147,180,901.620047928,9.62160993367e-06,903.07631107,1.45627372526,,,,,x,1,1.43393079122,2018_Nov_26_1232,59.9831092423,spanish_cond1,001,1045,
images/gamecontroller01.jpg,game controller,z,sounds/greatgatsby_english.wav,,,,,,,,,0,1,1,0,0,148,148,112,904.196106271,8.98016151041e-06,905.72696367,1.53086766205,,,,,z,1,1.5172803743,2018_Nov_26_1232,59.9831092423,spanish_cond1,001,1045,
images/flashlight05.jpg,flash light,z,sounds/greatgatsby_english.wav,,,,,,,,,0,1,1,0,0,149,149,8,906.829349888,9.62160993367e-06,907.644105109,0.81476516265,,,,,z,1,0.800429315306,2018_Nov_26_1232,59.9831092423,spanish_cond1,001,1045,
images/grasshopper.jpg,cauliflower,x,sounds/greatgatsby_english.wav,,,,,,,,,0,1,1,0,0,150,150,148,908.737438374,8.98016151041e-06,909.844649819,1.10722074623,,,,,x,1,1.08383803919,2018_Nov_26_1232,59.9831092423,spanish_cond1,001,1045,
images/sportshorts02.jpg,tape,x,sounds/greatgatsby_english.wav,,,,,,,,,0,1,1,0,0,151,151,230,910.952272106,9.30088572204e-06,911.678427242,0.726165399072,,,,,x,1,0.717060488998,2018_Nov_26_1232,59.9831092423,spanish_cond1,001,1045,
images/plate01b.jpg,plate,z,sounds/greatgatsby_english.wav,,,,,,,,,0,1,1,0,0,152,152,3,912.777222683,9.30088572204e-06,913.628915506,0.851702764747,,,,,z,1,0.833778064465,2018_Nov_26_1232,59.9831092423,spanish_cond1,001,1045,
images/watermelon01.jpg,orange,x,sounds/greatgatsby_english.wav,,,,,,,,,0,1,1,0,0,153,153,207,914.757673538,8.98016151041e-06,916.462944694,1.70528141863,,,,,x,1,1.68397986144,2018_Nov_26_1232,59.9831092423,spanish_cond1,001,1045,
images/cigar.jpg,crocodile,x,sounds/greatgatsby_english.wav,,,,,,,,,0,1,1,0,0,154,154,162,917.560735962,8.98016151041e-06,918.74684027,1.18611457129,,,,,x,1,1.16718730156,2018_Nov_26_1232,59.9831092423,spanish_cond1,001,1045,
images/desktopcomputer.jpg,desktop computer,z,sounds/greatgatsby_english.wav,,,,,,,,,0,1,1,0,0,155,155,16,919.882487681,8.98016151041e-06,920.780698322,0.898220262607,,,,,z,1,0.883808725397,2018_Nov_26_1232,59.9831092423,spanish_cond1,001,1045,
images/pineapple01a.jpg,pineapple,z,sounds/greatgatsby_english.wav,,,,,,,,,0,1,1,0,0,156,156,51,921.893829611,8.98016151041e-06,923.11458479,1.22076544235,,,,,z,1,1.20052899502,2018_Nov_26_1232,59.9831092423,spanish_cond1,001,1045,
images/showerhead01.jpg,skateboard,x,sounds/greatgatsby_english.wav,,,,,,,,,0,1,1,0,0,157,157,223,924.221902073,9.30088572204e-06,925.098404805,0.876512674149,,,,,x,1,0.867116550799,2018_Nov_26_1232,59.9831092423,spanish_cond1,001,1045,
images/hand01a.jpg,cupcake,x,sounds/greatgatsby_english.wav,,,,,,,,,0,1,1,0,0,158,158,163,926.209388875,8.65943729877e-06,926.965530977,0.756151723443,,,,,x,1,0.733750739251,2018_Nov_26_1232,59.9831092423,spanish_cond1,001,1045,
images/nailclipper03a.jpg,aquarium,x,sounds/greatgatsby_english.wav,,,,,,,,,0,1,1,0,0,159,159,123,928.064518209,8.98016151041e-06,928.866023538,0.801514630672,,,,,x,1,0.783782041515,2018_Nov_26_1232,59.9831092423,spanish_cond1,001,1045,
images/bicycle.jpg,hand bag,x,sounds/greatgatsby_english.wav,,,,,,,,,0,1,1,0,0,160,160,186,929.975612799,8.98016151041e-06,930.783145413,0.807541914866,,,,,x,1,0.783763760468,2018_Nov_26_1232,59.9831092423,spanish_cond1,001,1045,
images/aquarium.jpg,computer mouse,x,sounds/greatgatsby_english.wav,,,,,,,,,0,1,1,0,0,161,161,159,931.918328422,8.65943729877e-06,933.583830342,1.66551186214,,,,,x,1,1.65064009221,2018_Nov_26_1232,59.9831092423,spanish_cond1,001,1045,
images/doll.jpg,carrot,x,sounds/greatgatsby_english.wav,,,,,,,,,0,1,1,0,0,162,162,146,934.694797094,8.65943729877e-06,937.684690897,2.98990342487,,,,,None,0,,2018_Nov_26_1232,59.9831092423,spanish_cond1,001,1045,
images/spoon02b.jpg,spoon,z,sounds/greatgatsby_english.wav,,,,,,,,,0,1,1,0,0,163,163,38,938.776028323,9.30076930672e-06,939.635329899,0.859311517444,,,,,x,0,0.850444902317,2018_Nov_26_1232,59.9831092423,spanish_cond1,001,1045,
images/binder03b.jpg,dj mixer,x,sounds/greatgatsby_english.wav,,,,,,,,,0,1,1,0,0,164,164,167,940.747870101,9.30076930672e-06,941.702508797,0.954648318002,,,,,x,1,0.933781335829,2018_Nov_26_1232,59.9831092423,spanish_cond1,001,1045,
images/egg01b (1).jpg,egg,z,sounds/greatgatsby_english.wav,,,,,,,,,0,1,1,0,0,165,165,19,942.815017569,8.98016151041e-06,943.602972173,0.78796422563,,,,,z,1,0.767093394767,2018_Nov_26_1232,59.9831092423,spanish_cond1,001,1045,
images/highheelshoe02a.jpg,high heel shoe,z,sounds/greatgatsby_english.wav,,,,,,,,,0,1,1,0,0,166,166,75,944.709329863,8.98016151041e-06,945.98689732,1.27757739928,,,,,z,1,1.26722007908,2018_Nov_26_1232,59.9831092423,spanish_cond1,001,1045,
images/chameleon.jpg,50 dollar bill,x,sounds/greatgatsby_english.wav,,,,,,,,,0,1,1,0,0,167,167,120,947.096507107,8.98004509509e-06,948.020739015,0.92424153001,,,,,x,1,0.900468507316,2018_Nov_26_1232,59.9831092423,spanish_cond1,001,1045,
images/clothespin02a.jpg,clothes pin,z,sounds/greatgatsby_english.wav,,,,,,,,,0,1,1,0,0,168,168,79,949.125330181,9.94233414531e-06,950.271279748,1.14595983049,,,,,z,1,1.13384208013,2018_Nov_26_1232,59.9831092423,spanish_cond1,001,1045,
images/razor04a.jpg,razor,z,sounds/greatgatsby_english.wav,,,,,,,,,0,1,1,0,0,169,169,36,951.371038631,9.30088572204e-06,952.155093285,0.784064274747,,,,,z,1,0.767102695769,2018_Nov_26_1232,59.9831092423,spanish_cond1,001,1045,
images/paperclip04.jpg,eye drops,x,sounds/greatgatsby_english.wav,,,,,,,,,0,1,1,0,0,170,170,174,953.260556166,9.30088572204e-06,954.272275904,1.01172935881,,,,,x,1,1.00049005973,2018_Nov_26_1232,59.9831092423,spanish_cond1,001,1045,
images/comb02a.jpg,diploma,x,sounds/greatgatsby_english.wav,,,,,,,,,0,1,1,0,0,171,171,166,955.376169825,9.30088572204e-06,956.306114071,0.929953867686,,,,,x,1,0.917125081876,2018_Nov_26_1232,59.9831092423,spanish_cond1,001,1045,
images/dice05a.jpg,band aid,x,sounds/greatgatsby_english.wav,,,,,,,,,0,1,1,0,0,172,172,126,957.418715531,9.62160993367e-06,958.22324236,0.804536771844,,,,,x,1,0.783754138974,2018_Nov_26_1232,59.9831092423,spanish_cond1,001,1045,
images/doorhandle.jpg,doll,x,sounds/greatgatsby_english.wav,,,,,,,,,0,1,1,0,0,173,173,168,959.325568925,9.30088572204e-06,960.707192587,1.38163360476,,,,,x,1,1.3672445179,2018_Nov_26_1232,59.9831092423,spanish_cond1,001,1045,
images/computermouse02a.jpg,world map,x,sounds/greatgatsby_english.wav,,,,,,,,,0,1,1,0,0,174,174,239,961.808432233,8.98016151041e-06,963.174458016,1.36603572557,,,,,x,1,1.35056164418,2018_Nov_26_1232,59.9831092423,spanish_cond1,001,1045,
images/umbrella01.jpg,umbrella,z,sounds/greatgatsby_english.wav,,,,,,,,,0,1,1,0,0,175,175,53,964.287425417,9.30088572204e-06,966.408590412,2.12117429578,,,,,z,1,2.10074285092,2018_Nov_26_1232,59.9831092423,spanish_cond1,001,1045,
images/headphones02b.jpg,headphones,z,sounds/greatgatsby_english.wav,,,,,,,,,0,1,1,0,0,176,176,101,967.516537267,8.98016151041e-06,969.225972005,1.70944435964,,,,,z,1,1.70066081081,2018_Nov_26_1232,59.9831092423,spanish_cond1,001,1045,
images/bench02.jpg,electric toothbrush,x,sounds/greatgatsby_english.wav,,,,,,,,,0,1,1,0,0,177,177,172,970.334323609,9.62160993367e-06,971.826620564,1.49230689788,,,,,x,1,1.48395311343,2018_Nov_26_1232,59.9831092423,spanish_cond1,001,1045,
images/leaf01a.jpg,leaf,z,sounds/greatgatsby_english.wav,,,,,,,,,0,1,1,0,0,178,178,68,972.929722308,9.30088572204e-06,973.777129033,0.847416346776,,,,,z,1,0.833823927562,2018_Nov_26_1232,59.9831092423,spanish_cond1,001,1045,
images/hairband.jpg,hairband,z,sounds/greatgatsby_english.wav,,,,,,,,,0,1,1,0,0,179,179,66,974.886804888,9.30088572204e-06,975.77759536,0.890800092951,,,,,z,1,0.867137397639,2018_Nov_26_1232,59.9831092423,spanish_cond1,001,1045,
images/panda.jpg,panda,z,sounds/greatgatsby_english.wav,,,,,,,,,0,1,1,0,0,180,180,83,976.88718462,9.62160993367e-06,978.794990872,1.90781779785,,,,,z,1,1.88403515343,2018_Nov_26_1232,59.9831092423,spanish_cond1,001,1045,
images/scissors04a.jpg,leek,x,sounds/greatgatsby_english.wav,,,,,,,,,0,1,1,0,0,181,181,194,979.889263525,9.62160993367e-06,980.96218523,1.07293132623,,,,,x,1,1.05048800702,2018_Nov_26_1232,59.9831092423,spanish_cond1,001,1045,
images/nailpolish02b.jpg,nail polish,z,sounds/greatgatsby_english.wav,,,,,,,,,0,1,1,0,0,182,182,94,982.071049023,9.62160993367e-06,982.879319292,0.808280211524,,,,,z,1,0.783757025376,2018_Nov_26_1232,59.9831092423,spanish_cond1,001,1045,
images/belt02a.jpg,snowman,x,sounds/greatgatsby_english.wav,,,,,,,,,0,1,1,0,0,183,183,224,983.98244541,8.98016151041e-06,985.146559576,1.16412378754,,,,,x,1,1.15051372873,2018_Nov_26_1232,59.9831092423,spanish_cond1,001,1045,
images/computerkeyboard01a.jpg,computer keyboard,z,sounds/greatgatsby_english.wav,,,,,,,,,0,1,1,0,0,184,184,61,986.263604286,9.30076930672e-06,988.047287225,1.78369288135,,,,,z,1,1.76735542284,2018_Nov_26_1232,59.9831092423,spanish_cond1,001,1045,
images/ostrich.jpg,ostrich,z,sounds/greatgatsby_english.wav,,,,,,,,,0,1,1,0,0,185,185,76,989.147523018,9.30088572204e-06,990.147787291,1.00027389452,,,,,z,1,0.983813600382,2018_Nov_26_1232,59.9831092423,spanish_cond1,001,1045,
images/pingpongpaddle01c (1).jpg,ping pong paddle,z,sounds/greatgatsby_english.wav,,,,,,,,,0,1,1,0,0,186,186,10,991.2608384,9.30088572204e-06,994.248643035,2.98781425715,,,,,None,0,,2018_Nov_26_1232,59.9831092423,spanish_cond1,001,1045,
images/leek.jpg,donut,x,sounds/greatgatsby_english.wav,,,,,,,,,0,1,1,0,0,187,187,169,995.349576393,8.98016151041e-06,996.165936495,0.816369402339,,,,,x,1,0.800435088342,2018_Nov_26_1232,59.9831092423,spanish_cond1,001,1045,
images/icecube02 (2).jpg,aloe,x,sounds/greatgatsby_english.wav,,,,,,,,,0,1,1,0,0,188,188,122,997.276460654,9.62149351835e-06,998.149758434,0.873308043461,,,,,x,1,0.850451637409,2018_Nov_26_1232,59.9831092423,spanish_cond1,001,1045,
images/fryingpan01.jpg,frying pan,z,sounds/greatgatsby_english.wav,,,,,,,,,0,1,1,0,0,189,189,45,999.250240219,8.98016151041e-06,1000.48366254,1.2334316232,,,,,z,1,1.21719326696,2018_Nov_26_1232,59.9831092423,spanish_cond1,001,1045,
images/gluestick.jpg,squirrel,x,sounds/greatgatsby_english.wav,,,,,,,,,0,1,1,0,0,190,190,226,1001.59159496,8.98004509509e-06,1004.584534,2.99294897856,,,,,None,0,,2018_Nov_26_1232,59.9831092423,spanish_cond1,001,1045,
images/sock03.jpg,sock,z,sounds/greatgatsby_english.wav,,,,,,,,,0,1,1,0,0,191,191,90,1005.69059502,8.98016151041e-06,1007.10196126,1.41137586161,,,,,z,1,1.40058075916,2018_Nov_26_1232,59.9831092423,spanish_cond1,001,1045,
images/scooter.jpg,pen,x,sounds/greatgatsby_english.wav,,,,,,,,,0,1,1,0,0,192,192,212,1008.19471659,9.30088572204e-06,1009.08578513,0.891078156768,,,,,x,1,0.867113985005,2018_Nov_26_1232,59.9831092423,spanish_cond1,001,1045,
images/cauliflower01.jpg,glue stick,x,sounds/greatgatsby_english.wav,,,,,,,,,0,1,1,0,0,193,193,181,1010.20238211,8.98016151041e-06,1010.86957326,0.667201413191,,,,,x,1,0.650412060553,2018_Nov_26_1232,59.9831092423,spanish_cond1,001,1045,
images/cockroach02.jpg,belt,x,sounds/greatgatsby_english.wav,,,,,,,,,0,1,1,0,0,194,194,129,1011.96862624,9.30076930672e-06,1013.18680091,1.21818429057,,,,,x,1,1.20052546705,2018_Nov_26_1232,59.9831092423,spanish_cond1,001,1045,
images/parkingmeter.jpg,ear,x,sounds/greatgatsby_english.wav,,,,,,,,,0,1,1,0,0,195,195,171,1014.28848187,9.30088572204e-06,1015.08726814,0.798795890179,,,,,x,1,0.783695767983,2018_Nov_26_1232,59.9831092423,spanish_cond1,001,1045,
images/worldmap.jpg,scooter,x,sounds/greatgatsby_english.wav,,,,,,,,,0,1,1,0,0,196,196,220,1016.21664355,9.30088572204e-06,1017.60454851,1.38791457831,,,,,x,1,1.3672307271,2018_Nov_26_1232,59.9831092423,spanish_cond1,001,1045,
images/lighter02b.jpg,stapler,x,sounds/greatgatsby_english.wav,,,,,,,,,0,1,1,0,0,197,197,227,1018.70627437,8.98016151041e-06,1019.80509803,1.09883296536,,,,,x,1,1.08383739775,2018_Nov_26_1232,59.9831092423,spanish_cond1,001,1045,
images/ladybug03.jpg,giraffe,x,sounds/greatgatsby_english.wav,,,,,,,,,0,1,1,0,0,198,198,178,1020.90792941,8.98016151041e-06,1021.55553581,0.64761602669,,,,,x,1,0.633735601325,2018_Nov_26_1232,59.9831092423,spanish_cond1,001,1045,
images/cloud.jpg,ceiling fan,x,sounds/greatgatsby_english.wav,,,,,,,,,0,1,1,0,0,199,199,149,1022.66084956,8.98016151041e-06,1023.27261715,0.611777210259,,,,,x,1,0.600383003475,2018_Nov_26_1232,59.9831092423,spanish_cond1,001,1045,
images/teapot.jpg,light switch,x,sounds/greatgatsby_english.wav,,,,,,,,,0,1,1,0,0,200,200,197,1024.38919938,9.62160993367e-06,1025.02321818,0.634028418339,,,,,x,1,0.617219501757,2018_Nov_26_1232,59.9831092423,spanish_cond1,001,1045,
images/axe01.jpg,axe,z,sounds/greatgatsby_english.wav,,,,,,,,,0,1,1,0,0,201,201,104,1026.12559125,9.30088572204e-06,1026.72347232,0.597891332465,,,,,x,0,0.583707506303,2018_Nov_26_1232,59.9831092423,spanish_cond1,001,1045,
images/handfan01b.jpg,handfan,z,sounds/greatgatsby_english.wav,,,,,,,,,0,1,1,0,0,202,202,69,1027.83767096,9.30088572204e-06,1029.20742286,1.36976184638,,,,,z,1,1.35056292708,2018_Nov_26_1232,59.9831092423,spanish_cond1,001,1045,
images/ant.jpg,ant,z,sounds/greatgatsby_english.wav,,,,,,,,,0,1,1,0,0,203,203,98,1030.30202778,9.62149351835e-06,1030.95785423,0.655836391845,,,,,z,1,0.633735280484,2018_Nov_26_1232,59.9831092423,spanish_cond1,001,1045,
images/butterfly.jpg,butterfly,z,sounds/greatgatsby_english.wav,,,,,,,,,0,1,1,0,0,204,204,91,1032.0658447,8.98016151041e-06,1032.95835199,0.892516905093,,,,,z,1,0.883799424511,2018_Nov_26_1232,59.9831092423,spanish_cond1,001,1045,
images/broadsword.jpg,teapot,x,sounds/greatgatsby_english.wav,,,,,,,,,0,1,1,0,0,205,205,231,1034.05109513,9.30076930672e-06,1035.14221415,1.09112863801,,,,,x,1,1.06716061768,2018_Nov_26_1232,59.9831092423,spanish_cond1,001,1045,
images/pictureframe04.jpg,picture frame,z,sounds/greatgatsby_english.wav,,,,,,,,,0,1,1,0,0,206,206,41,1036.2644946,8.98016151041e-06,1037.57615071,1.31166572799,,,,,z,1,1.30055599962,2018_Nov_26_1232,59.9831092423,spanish_cond1,001,1045,
images/lamp04b.jpg,parking meter,x,sounds/greatgatsby_english.wav,,,,,,,,,0,1,1,0,0,207,207,209,1038.69712905,9.30088572204e-06,1039.82670652,1.12958709267,,,,,x,1,1.11718358123,2018_Nov_26_1232,59.9831092423,spanish_cond1,001,1045,
images/licenseplate.jpg,license plate,z,sounds/greatgatsby_english.wav,,,,,,,,,0,1,1,0,0,208,208,40,1040.94369414,8.98016151041e-06,1042.07725815,1.13357331709,,,,,z,1,1.11717203539,2018_Nov_26_1232,59.9831092423,spanish_cond1,001,1045,
images/grandpiano.jpg,tulip,x,sounds/greatgatsby_english.wav,,,,,,,,,0,1,1,0,0,209,209,236,1043.19240613,9.30076930672e-06,1043.99439607,0.802000200027,,,,,x,1,0.78376343986,2018_Nov_26_1232,59.9831092423,spanish_cond1,001,1045,
images/lion.jpg,lion,z,sounds/greatgatsby_english.wav,,,,,,,,,0,1,1,0,0,210,210,44,1045.10657802,9.62160993367e-06,1045.84488779,0.738319711294,,,,,z,1,0.717106993427,2018_Nov_26_1232,59.9831092423,spanish_cond1,001,1045,
images/knife04.jpg,tooth brush,x,sounds/greatgatsby_english.wav,,,,,,,,,0,1,1,0,0,211,211,233,1046.94157386,3.2071955502e-05,1047.59528677,0.653734395397,,,,,x,1,0.633720848244,2018_Nov_26_1232,59.9831092423,spanish_cond1,001,1045,
images/lantern03.jpg,lantern,z,sounds/greatgatsby_english.wav,,,,,,,,,0,1,1,0,0,212,212,5,1048.70190584,9.30088572204e-06,1049.82917542,1.12727983564,,,,,z,1,1.11715599929,2018_Nov_26_1232,59.9831092423,spanish_cond1,001,1045,
images/glasses01b.jpg,calculator,x,sounds/greatgatsby_english.wav,,,,,,,,,0,1,1,0,0,213,213,142,1050.92177872,9.30088572204e-06,1052.39646849,1.47469938954,,,,,x,1,1.45058127225,2018_Nov_26_1232,59.9831092423,spanish_cond1,001,1045,
,,,sounds/greatgatsby_english.wav,,,,,,,,,0,1,1,0,,,,,,,,,,,,,,,,2018_Nov_26_1232,59.9831092423,spanish_cond1,001,1045,
