images,name,corrAns,sounds,trials_3.thisRepN,trials_3.thisTrialN,trials_3.thisN,trials_3.thisIndex,trials_4.thisRepN,trials_4.thisTrialN,trials_4.thisN,trials_4.thisIndex,trials_2.thisRepN,trials_2.thisTrialN,trials_2.thisN,trials_2.thisIndex,trials.thisRepN,trials.thisTrialN,trials.thisN,trials.thisIndex,begin_global,begin_routine,end_global,end_routine,key_resp_2.keys,key_resp_2.corr,begin_book,key_resp_1.keys,key_resp_1.corr,key_resp_1.rt,date,frameRate,expName,session,participant,
images\volleyball.jpg,volley ball,z,,0,0,0,0,,,,,,,,,,,,,,,,,,,,,,,2018_Nov_26_1232,59.9829937212,spanish_cond2,001,1046,
images\puma.jpg,puma,z,,,,,,0,0,0,0,,,,,,,,,48.1481918615,1.02631747723e-05,51.0126454558,2.86446449894,None,0,,,,,2018_Nov_26_1232,59.9829937212,spanish_cond2,001,1046,
images\lollipop03b.jpg,lollipop,z,sounds\greatgatsby_spanish.wav,,,,,,,,,0,0,0,0,0,0,0,42,93.1583324727,9.30088572204e-06,95.024139517,1.86581634509,,,83.0094045526,z,1,1.85070741817,2018_Nov_26_1232,59.9829937212,spanish_cond2,001,1046,
images\coin01b.jpg,arrow,x,sounds\greatgatsby_spanish.wav,,,,,,,,,0,0,0,0,0,1,1,124,96.1323629118,9.30088572204e-06,97.6081480251,1.47579537623,,,,x,1,1.46727216977,2018_Nov_26_1232,59.9829937212,spanish_cond2,001,1046,
images\aloe02.jpg,broad sword,x,sounds\greatgatsby_spanish.wav,,,,,,,,,0,0,0,0,0,2,2,137,98.7319174921,9.30100213736e-06,100.809121868,2.07722393959,,,,x,1,2.06753875455,2018_Nov_26_1232,59.9829937212,spanish_cond2,001,1046,
images\pingpongpaddle01c (1).jpg,ping pong paddle,z,sounds\greatgatsby_spanish.wav,,,,,,,,,0,0,0,0,0,3,3,10,101.919652862,8.98016151041e-06,103.042858178,1.12321429595,,,,z,1,1.10051642777,2018_Nov_26_1232,59.9829937212,spanish_cond2,001,1046,
images\beermug01b.jpg,beer mug,z,sounds\greatgatsby_spanish.wav,,,,,,,,,0,0,0,0,0,4,4,111,104.158359093,9.94233414531e-06,107.16043898,3.00209047075,,,,None,0,,2018_Nov_26_1232,59.9829937212,spanish_cond2,001,1046,
images\charcoalbarbecue.jpg,charcoal barbecue,z,sounds\greatgatsby_spanish.wav,,,,,,,,,0,0,0,0,0,5,5,77,108.275666959,9.30088572204e-06,110.027976964,1.75231962709,,,,z,1,1.73400475574,2018_Nov_26_1232,59.9829937212,spanish_cond2,001,1046,
images\ostrich.jpg,ostrich,z,sounds\greatgatsby_spanish.wav,,,,,,,,,0,0,0,0,0,6,6,76,111.127881774,8.6595537141e-06,112.095176074,0.967303921352,,,,x,0,0.950471109594,2018_Nov_26_1232,59.9829937212,spanish_cond2,001,1046,
images\envelope02a.jpg,grand piano,x,sounds\greatgatsby_spanish.wav,,,,,,,,,0,0,0,0,0,7,7,182,113.217904475,9.30088572204e-06,114.945921337,1.72802712535,,,,x,1,1.71734417207,2018_Nov_26_1232,59.9829937212,spanish_cond2,001,1046,
images\donut.jpg,rhinoceros,x,sounds\greatgatsby_spanish.wav,,,,,,,,,0,0,0,0,0,8,8,216,116.069933912,9.62160993367e-06,117.246495623,1.17657165357,,,,x,1,1.16718698584,2018_Nov_26_1232,59.9829937212,spanish_cond2,001,1046,
images\birthdaycandle.jpg,birthday candle,z,sounds\greatgatsby_spanish.wav,,,,,,,,,0,0,0,0,0,9,9,55,118.342535082,9.30100213736e-06,119.697123887,1.35459810554,,,,z,1,1.33390090568,2018_Nov_26_1232,59.9829937212,spanish_cond2,001,1046,
images\lightswitch02a.jpg,fork,x,sounds\greatgatsby_spanish.wav,,,,,,,,,0,0,0,0,0,10,10,177,120.808911794,9.621726349e-06,122.781243365,1.97234183399,,,,x,1,1.95072672574,2018_Nov_26_1232,59.9829937212,spanish_cond2,001,1046,
images\cauliflower01.jpg,glue stick,x,sounds\greatgatsby_spanish.wav,,,,,,,,,0,0,0,0,0,11,11,181,123.896984501,9.30088572204e-06,125.115178267,1.21820338815,,,,x,1,1.20053541451,2018_Nov_26_1232,59.9829937212,spanish_cond2,001,1046,
images\hand01a.jpg,cupcake,x,sounds\greatgatsby_spanish.wav,,,,,,,,,0,0,0,0,0,12,12,163,126.226220494,8.98016151041e-06,128.249320549,2.0231096762,,,,x,1,2.00073221,2018_Nov_26_1232,59.9829937212,spanish_cond2,001,1046,
images\desktopcomputer.jpg,desktop computer,z,sounds\greatgatsby_spanish.wav,,,,,,,,,0,0,0,0,0,13,13,16,129.384118388,8.98027792573e-06,131.500160041,2.11605159531,,,,z,1,2.10076242208,2018_Nov_26_1232,59.9829937212,spanish_cond2,001,1046,
images\remotecontrol01c.jpg,remote control,z,sounds\greatgatsby_spanish.wav,,,,,,,,,0,0,0,0,0,14,14,85,132.609466837,9.30100213736e-06,134.167506426,1.55804921046,,,,z,1,1.53396581998,2018_Nov_26_1232,59.9829937212,spanish_cond2,001,1046,
images\cherry01.jpg,highlighter,x,sounds\greatgatsby_spanish.wav,,,,,,,,,0,0,0,0,0,15,15,187,135.276345608,9.30088572204e-06,136.567996426,1.29166043922,,,,x,1,1.26710398274,2018_Nov_26_1232,59.9829937212,spanish_cond2,001,1046,
images\flamingo.jpg,flamingo,z,sounds\greatgatsby_spanish.wav,,,,,,,,,0,0,0,0,0,16,16,52,137.665701719,9.30100213736e-06,138.918740727,1.25304895057,,,,z,1,1.23385754391,2018_Nov_26_1232,59.9829937212,spanish_cond2,001,1046,
images\parrot01.jpg,chameleon,x,sounds\greatgatsby_spanish.wav,,,,,,,,,0,0,0,0,0,17,17,150,140.031611074,9.30100213736e-06,142.819729772,2.78812831989,,,,z,0,2.76759917871,2018_Nov_26_1232,59.9829937212,spanish_cond2,001,1046,
images\masquerademask02b.jpg,mirror,x,sounds\greatgatsby_spanish.wav,,,,,,,,,0,0,0,0,0,18,18,204,143.923748171,9.30100213736e-06,146.287273594,2.36353440303,,,,x,1,2.35082351975,2018_Nov_26_1232,59.9829937212,spanish_cond2,001,1046,
images\lychee02a.jpg,lychee,z,sounds\greatgatsby_spanish.wav,,,,,,,,,0,0,0,0,0,19,19,62,147.410336188,9.30088572204e-06,148.621202082,1.21087583597,,,,z,1,1.20053381089,2018_Nov_26_1232,59.9829937212,spanish_cond2,001,1046,
images\acousticguitar02.jpg,acoustic guitar,z,sounds\greatgatsby_spanish.wav,,,,,,,,,0,0,0,0,0,20,20,97,149.733787306,9.621726349e-06,151.255237242,1.52145987854,,,,z,1,1.50057441439,2018_Nov_26_1232,59.9829937212,spanish_cond2,001,1046,
images\fryingpan01.jpg,frying pan,z,sounds\greatgatsby_spanish.wav,,,,,,,,,0,0,0,0,0,21,21,45,152.354882907,9.30100213736e-06,153.455780033,1.100907068,,,,z,1,1.08384718467,2018_Nov_26_1232,59.9829937212,spanish_cond2,001,1046,
images\hairdryer03a.jpg,hairdryer,z,sounds\greatgatsby_spanish.wav,,,,,,,,,0,0,0,0,0,22,22,119,154.554173918,8.6595537141e-06,157.10671247,2.55254817416,,,,z,1,2.53420315473,2018_Nov_26_1232,59.9829937212,spanish_cond2,001,1046,
images\blueberry02.jpg,blueberry,z,sounds\greatgatsby_spanish.wav,,,,,,,,,0,0,0,0,0,23,23,46,158.217576696,8.98016151041e-06,159.42399192,1.20642484596,,,,z,1,1.18388637691,2018_Nov_26_1232,59.9829937212,spanish_cond2,001,1046,
images\butterfly.jpg,butterfly,z,sounds\greatgatsby_spanish.wav,,,,,,,,,0,0,0,0,0,24,24,91,160.531095031,8.98016151041e-06,161.257788912,0.726703502703,,,,z,1,0.717091442551,2018_Nov_26_1232,59.9829937212,spanish_cond2,001,1046,
images\watermelon01.jpg,orange,x,sounds\greatgatsby_spanish.wav,,,,,,,,,0,0,0,0,0,25,25,207,162.386225857,9.30088572204e-06,163.241616789,0.855401195236,,,,x,1,0.833777427441,2018_Nov_26_1232,59.9829937212,spanish_cond2,001,1046,
images\dolphin01.jpg,dolphin,z,sounds\greatgatsby_spanish.wav,,,,,,,,,0,0,0,0,0,26,26,99,164.340733583,9.62160993367e-06,165.442171447,1.10144812718,,,,z,1,1.08382729976,2018_Nov_26_1232,59.9829937212,spanish_cond2,001,1046,
images\doll.jpg,carrot,x,sounds\greatgatsby_spanish.wav,,,,,,,,,0,0,0,0,0,27,27,146,166.551236097,8.6595537141e-06,169.109785315,2.55855851807,,,,x,1,2.53421309718,2018_Nov_26_1232,59.9829937212,spanish_cond2,001,1046,
images\rubberglove02a.jpg,lady bug,x,sounds\greatgatsby_spanish.wav,,,,,,,,,0,0,0,0,0,28,28,192,170.213635976,9.30100213736e-06,171.593759441,1.38013308716,,,,x,1,1.36714093003,2018_Nov_26_1232,59.9829937212,spanish_cond2,001,1046,
images\orange.jpg,bat,x,sounds\greatgatsby_spanish.wav,,,,,,,,,0,0,0,0,0,29,29,128,172.71818222,8.98016151041e-06,173.927686646,1.20951436798,,,,x,1,1.20053284871,2018_Nov_26_1232,59.9829937212,spanish_cond2,001,1046,
images\boxingglove02a.jpg,bracelet,x,sounds\greatgatsby_spanish.wav,,,,,,,,,0,0,0,0,0,30,30,135,175.036767974,8.98027792573e-06,177.17853127,2.14177291677,,,,x,1,2.11740921461,2018_Nov_26_1232,59.9829937212,spanish_cond2,001,1046,
images\glasses01b.jpg,calculator,x,sounds\greatgatsby_spanish.wav,,,,,,,,,0,0,0,0,0,31,31,142,178.270752525,9.62160993367e-06,179.679168225,1.40842596337,,,,x,1,1.38392435049,2018_Nov_26_1232,59.9829937212,spanish_cond2,001,1046,
images\weight01.jpg,weight,z,sounds\greatgatsby_spanish.wav,,,,,,,,,0,0,0,0,0,32,32,67,180.782988417,8.98027792573e-06,181.779711593,0.996732476866,,,,z,1,0.983804785064,2018_Nov_26_1232,59.9829937212,spanish_cond2,001,1046,
images\ruler02b.jpg,watermelon,x,sounds\greatgatsby_spanish.wav,,,,,,,,,0,0,0,0,0,33,33,238,182.881343815,8.98027792573e-06,184.797147684,1.91581381147,,,,x,1,1.90069975285,2018_Nov_26_1232,59.9829937212,spanish_cond2,001,1046,
images\sock03.jpg,sock,z,sounds\greatgatsby_spanish.wav,,,,,,,,,0,0,0,0,0,34,34,90,185.902312988,8.6595537141e-06,187.181095448,1.27879208128,,,,z,1,1.2672277817,2018_Nov_26_1232,59.9829937212,spanish_cond2,001,1046,
images\candy.jpg,candy,z,sounds\greatgatsby_spanish.wav,,,,,,,,,0,0,0,0,0,35,35,31,188.282667695,9.30088572204e-06,190.115172494,1.83251442132,,,,z,1,1.8173631588,2018_Nov_26_1232,59.9829937212,spanish_cond2,001,1046,
images\gluestick.jpg,squirrel,x,sounds\greatgatsby_spanish.wav,,,,,,,,,0,0,0,0,0,36,36,226,191.222668811,9.30088572204e-06,192.365775934,1.14311674493,,,,x,1,1.13385940413,2018_Nov_26_1232,59.9829937212,spanish_cond2,001,1046,
images\gamecontroller01.jpg,game controller,z,sounds\greatgatsby_spanish.wav,,,,,,,,,0,0,0,0,0,37,37,112,193.485226549,9.30088572204e-06,194.499629886,1.01441327936,,,,z,1,1.00049134716,2018_Nov_26_1232,59.9829937212,spanish_cond2,001,1046,
images\squirrel.jpg,binder,x,sounds\greatgatsby_spanish.wav,,,,,,,,,0,0,0,0,0,38,38,132,195.601924401,9.94233414531e-06,196.583488617,0.981574479141,,,,x,1,0.967139069806,2018_Nov_26_1232,59.9829937212,spanish_cond2,001,1046,
images\mattress.jpg,cat,x,sounds\greatgatsby_spanish.wav,,,,,,,,,0,0,0,0,0,39,39,147,197.687085586,9.94245056063e-06,198.717393563,1.03031791968,,,,x,1,1.01713364967,2018_Nov_26_1232,59.9829937212,spanish_cond2,001,1046,
images\flipflop01b.jpg,flip flop,z,sounds\greatgatsby_spanish.wav,,,,,,,,,0,0,0,0,0,40,40,27,199.833823932,9.621726349e-06,200.651216598,0.817402928486,,,,z,1,0.800447600544,2018_Nov_26_1232,59.9829937212,spanish_cond2,001,1046,
images\comb02a.jpg,diploma,x,sounds\greatgatsby_spanish.wav,,,,,,,,,0,0,0,0,0,41,41,166,201.757057664,9.30100213736e-06,203.501934599,1.74488719867,,,,x,1,1.73400475574,2018_Nov_26_1232,59.9829937212,spanish_cond2,001,1046,
images\worldmap.jpg,scooter,x,sounds\greatgatsby_spanish.wav,,,,,,,,,0,0,0,0,0,42,42,220,204.632147707,9.30100213736e-06,207.636174702,3.00403693703,,,,None,0,,2018_Nov_26_1232,59.9829937212,spanish_cond2,001,1046,
images\binder03b.jpg,dj mixer,x,sounds\greatgatsby_spanish.wav,,,,,,,,,0,0,0,0,0,43,43,167,208.748120404,9.621726349e-06,209.936916405,1.18880626361,,,,x,1,1.16719372105,2018_Nov_26_1232,59.9829937212,spanish_cond2,001,1046,
images\lightbulb03b.jpg,treadmill,x,sounds\greatgatsby_spanish.wav,,,,,,,,,0,0,0,0,0,44,44,234,211.040333449,9.30100213736e-06,212.287516702,1.24719479866,,,,x,1,1.23387133505,2018_Nov_26_1232,59.9829937212,spanish_cond2,001,1046,
images\icecube02 (2).jpg,aloe,x,sounds\greatgatsby_spanish.wav,,,,,,,,,0,0,0,0,0,45,45,122,213.398023963,9.621726349e-06,214.48808483,1.09007048851,,,,x,1,1.06717377203,2018_Nov_26_1232,59.9829937212,spanish_cond2,001,1046,
images\chessknight02b (1).jpg,cockroach,x,sounds\greatgatsby_spanish.wav,,,,,,,,,0,0,0,0,0,46,46,155,215.596453512,8.98027792573e-06,216.872029386,1.2755854954,,,,x,1,1.26721719792,2018_Nov_26_1232,59.9829937212,spanish_cond2,001,1046,
images\aquarium.jpg,computer mouse,x,sounds\greatgatsby_spanish.wav,,,,,,,,,0,0,0,0,0,47,47,159,218.006731008,9.94233414531e-06,219.005900336,0.999179591192,,,,x,1,0.983807992307,2018_Nov_26_1232,59.9829937212,spanish_cond2,001,1046,
images\eraser.jpg,eraser,z,sounds\greatgatsby_spanish.wav,,,,,,,,,0,0,0,0,0,48,48,110,220.114199101,9.30088572204e-06,220.906392902,0.792203102144,,,,z,1,0.783760396997,2018_Nov_26_1232,59.9829937212,spanish_cond2,001,1046,
images\axe01.jpg,axe,z,sounds\greatgatsby_spanish.wav,,,,,,,,,0,0,0,0,0,49,49,104,222.00893758,9.621726349e-06,222.923590055,0.914662096184,,,,z,1,0.900470436085,2018_Nov_26_1232,59.9829937212,spanish_cond2,001,1046,
images\croissant02b.jpg,croissant,z,sounds\greatgatsby_spanish.wav,,,,,,,,,0,0,0,0,0,50,50,39,224.03485358,9.621726349e-06,224.924095834,0.889252196532,,,,z,1,0.867118800292,2018_Nov_26_1232,59.9829937212,spanish_cond2,001,1046,
images\ladybug03.jpg,giraffe,x,sounds\greatgatsby_spanish.wav,,,,,,,,,0,0,0,0,0,51,51,178,226.026641796,9.621726349e-06,227.107982532,1.08135067893,,,,x,1,1.06716254679,2018_Nov_26_1232,59.9829937212,spanish_cond2,001,1046,
images\raisin.jpg,ruler,x,sounds\greatgatsby_spanish.wav,,,,,,,,,0,0,0,0,0,52,52,218,228.212850205,9.30100213736e-06,229.275214419,1.06237383571,,,,x,1,1.05050613254,2018_Nov_26_1232,59.9829937212,spanish_cond2,001,1046,
images\hairband.jpg,hairband,z,sounds\greatgatsby_spanish.wav,,,,,,,,,0,0,0,0,0,53,53,66,230.384493313,8.98027792573e-06,231.642505447,1.25802175654,,,,z,1,1.23390501086,2018_Nov_26_1232,59.9829937212,spanish_cond2,001,1046,
images\redfox.jpg,red fox,z,sounds\greatgatsby_spanish.wav,,,,,,,,,0,0,0,0,0,54,54,1,232.754814208,8.98027792573e-06,234.009748688,1.2549437806,,,,z,1,1.23388159811,2018_Nov_26_1232,59.9829937212,spanish_cond2,001,1046,
images\triangleruler02.jpg,bottle of red wine,x,sounds\greatgatsby_spanish.wav,,,,,,,,,0,0,0,0,0,55,55,134,235.120000334,9.621726349e-06,236.160315822,1.04032575164,,,,x,1,1.01716668403,2018_Nov_26_1232,59.9829937212,spanish_cond2,001,1046,
images\sunglasses03a.jpg,sun glasses,z,sounds\greatgatsby_spanish.wav,,,,,,,,,0,0,0,0,0,56,56,17,237.26891767,9.30088572204e-06,238.410886869,1.14197849995,,,,z,1,1.11718919885,2018_Nov_26_1232,59.9829937212,spanish_cond2,001,1046,
images\cloud.jpg,ceiling fan,x,sounds\greatgatsby_spanish.wav,,,,,,,,,0,0,0,0,0,57,57,149,239.516211251,8.98027792573e-06,240.478075073,0.961873123422,,,,x,1,0.950473675388,2018_Nov_26_1232,59.9829937212,spanish_cond2,001,1046,
images\lion.jpg,lion,z,sounds\greatgatsby_spanish.wav,,,,,,,,,0,0,0,0,0,58,58,44,241.588519794,9.30100213736e-06,242.445246857,0.856736684684,,,,z,1,0.833768767887,2018_Nov_26_1232,59.9829937212,spanish_cond2,001,1046,
images\volleyball.jpg,volley ball,z,sounds\greatgatsby_spanish.wav,,,,,,,,,0,0,0,0,0,59,59,2,243.57687339,9.30100213736e-06,244.412427942,0.835563853034,,,,z,1,0.817112674355,2018_Nov_26_1232,59.9829937212,spanish_cond2,001,1046,
images\electricguitar02.jpg,electric guitar,z,sounds\greatgatsby_spanish.wav,,,,,,,,,0,0,0,0,0,60,60,100,245.514172737,9.30100213736e-06,247.013086129,1.4989230131,,,,z,1,1.48394301662,2018_Nov_26_1232,59.9829937212,spanish_cond2,001,1046,
images\sportshorts02.jpg,tape,x,sounds\greatgatsby_spanish.wav,,,,,,,,,0,0,0,0,0,61,61,230,248.120544279,8.33871308714e-06,249.997183092,1.87664875528,,,,x,1,1.8673756991,2018_Nov_26_1232,59.9829937212,spanish_cond2,001,1046,
images\chameleon.jpg,50 dollar bill,x,sounds\greatgatsby_spanish.wav,,,,,,,,,0,0,0,0,0,62,62,120,251.10862077,9.621726349e-06,252.147745736,1.03913522884,,,,x,1,1.01716957055,2018_Nov_26_1232,59.9829937212,spanish_cond2,001,1046,
images\puma.jpg,puma,z,sounds\greatgatsby_spanish.wav,,,,,,,,,0,0,0,0,0,63,63,4,253.245974128,9.30100213736e-06,254.448329965,1.20236642065,,,,z,1,1.18387194443,2018_Nov_26_1232,59.9829937212,spanish_cond2,001,1046,
images\broom02.jpg,broom,z,sounds\greatgatsby_spanish.wav,,,,,,,,,0,0,0,0,0,64,64,116,255.542633993,9.62160993367e-06,256.732237894,1.18961384334,,,,z,1,1.16718826874,2018_Nov_26_1232,59.9829937212,spanish_cond2,001,1046,
images\bowlingball.jpg,bowling ball,z,sounds\greatgatsby_spanish.wav,,,,,,,,,0,0,0,0,0,65,65,20,257.863980528,9.30088572204e-06,259.466277609,1.60230670194,,,,z,1,1.58397034206,2018_Nov_26_1232,59.9829937212,spanish_cond2,001,1046,
images\microphone01.jpg,diaper,x,sounds\greatgatsby_spanish.wav,,,,,,,,,0,0,0,0,0,66,66,164,260.564974256,8.98016151041e-06,261.633509816,1.06854550319,,,,x,1,1.05050709471,2018_Nov_26_1232,59.9829937212,spanish_cond2,001,1046,
images\ear.jpg,bullet,x,sounds\greatgatsby_spanish.wav,,,,,,,,,0,0,0,0,0,67,67,139,262.736957971,8.98027792573e-06,264.667608736,1.93066038738,,,,x,1,1.91737284476,2018_Nov_26_1232,59.9829937212,spanish_cond2,001,1046,
images\tent.jpg,tent,z,sounds\greatgatsby_spanish.wav,,,,,,,,,0,0,0,0,0,68,68,11,265.79348471,9.30100213736e-06,267.501675135,1.70820036705,,,,z,1,1.68399510195,2018_Nov_26_1232,59.9829937212,spanish_cond2,001,1046,
images\lantern03.jpg,lantern,z,sounds\greatgatsby_spanish.wav,,,,,,,,,0,0,0,0,0,69,69,5,268.608157326,8.33882950246e-06,271.602569695,2.99442199036,,,,None,0,,2018_Nov_26_1232,59.9829937212,spanish_cond2,001,1046,
images\egg01b (1).jpg,egg,z,sounds\greatgatsby_spanish.wav,,,,,,,,,0,0,0,0,0,70,70,19,272.715189557,9.30100213736e-06,274.120040745,1.40486113029,,,,z,1,1.38392755773,2018_Nov_26_1232,59.9829937212,spanish_cond2,001,1046,
images\bandaid01.jpg,door handle,x,sounds\greatgatsby_spanish.wav,,,,,,,,,0,0,0,0,0,71,71,170,275.226844621,9.62160993367e-06,276.620680907,1.39384558739,,,,x,1,1.38392755773,2018_Nov_26_1232,59.9829937212,spanish_cond2,001,1046,
images\showerhead01.jpg,skateboard,x,sounds\greatgatsby_spanish.wav,,,,,,,,,0,0,0,0,0,72,72,223,277.727931229,9.30088572204e-06,278.62118797,0.893266362138,,,,x,1,0.883794778492,2018_Nov_26_1232,59.9829937212,spanish_cond2,001,1046,
images\parkfountain.jpg,park fountain,z,sounds\greatgatsby_spanish.wav,,,,,,,,,0,0,0,0,0,73,73,93,279.741140195,9.30100213736e-06,280.98844885,1.24731859763,,,,z,1,1.23386780708,2018_Nov_26_1232,59.9829937212,spanish_cond2,001,1046,
images\pineapple01a.jpg,pineapple,z,sounds\greatgatsby_spanish.wav,,,,,,,,,0,0,0,0,0,74,74,51,282.101173589,9.30088572204e-06,282.955659762,0.854495794978,,,,z,1,0.833807254676,2018_Nov_26_1232,59.9829937212,spanish_cond2,001,1046,
images\razor04a.jpg,razor,z,sounds\greatgatsby_spanish.wav,,,,,,,,,0,0,0,0,0,75,75,36,284.054847115,8.98016151041e-06,285.039496683,0.98465951113,,,,z,1,0.967135221115,2018_Nov_26_1232,59.9829937212,spanish_cond2,001,1046,
images\ceilingfan02.jpg,paper clip,x,sounds\greatgatsby_spanish.wav,,,,,,,,,0,0,0,0,0,76,76,208,286.137575298,8.98016151041e-06,287.090134954,0.952569277608,,,,x,1,0.933910270687,2018_Nov_26_1232,59.9829937212,spanish_cond2,001,1046,
images\seagull.jpg,seagull,z,sounds\greatgatsby_spanish.wav,,,,,,,,,0,0,0,0,0,77,77,50,288.197341016,9.621726349e-06,289.090543234,0.893212159979,,,,z,1,0.883800872252,2018_Nov_26_1232,59.9829937212,spanish_cond2,001,1046,
images\marker01a.jpg,marker,z,sounds\greatgatsby_spanish.wav,,,,,,,,,0,0,0,0,0,78,78,95,290.188423641,9.30100213736e-06,291.207747186,1.01933348691,,,,z,1,1.00049038499,2018_Nov_26_1232,59.9829937212,spanish_cond2,001,1046,
images\globe.jpg,cloud,x,sounds\greatgatsby_spanish.wav,,,,,,,,,0,0,0,0,0,79,79,154,292.334900919,9.30100213736e-06,293.191592061,0.856700763805,,,,x,1,0.833773258026,2018_Nov_26_1232,59.9829937212,spanish_cond2,001,1046,
images\cactus.jpg,cactus,z,sounds\greatgatsby_spanish.wav,,,,,,,,,0,0,0,0,0,80,80,70,294.304528156,9.30100213736e-06,295.908949062,1.60443052789,,,,z,1,1.58396424842,2018_Nov_26_1232,59.9829937212,spanish_cond2,001,1046,
images\computerkeyboard01a.jpg,computer keyboard,z,sounds\greatgatsby_spanish.wav,,,,,,,,,0,0,0,0,0,81,81,61,297.025195657,9.62160993367e-06,298.14286626,1.11768086674,,,,z,1,1.10052412516,2018_Nov_26_1232,59.9829937212,spanish_cond2,001,1046,
images\leek.jpg,donut,x,sounds\greatgatsby_spanish.wav,,,,,,,,,0,0,0,0,0,82,82,169,299.24345004,9.30088572204e-06,300.326745582,1.08330548392,,,,x,1,1.06714362407,2018_Nov_26_1232,59.9829937212,spanish_cond2,001,1046,
images\pipe.jpg,icecube,x,sounds\greatgatsby_spanish.wav,,,,,,,,,0,0,0,0,0,83,83,188,301.43563159,9.30100213736e-06,302.627337187,1.19171521883,,,,x,1,1.16719564528,2018_Nov_26_1232,59.9829937212,spanish_cond2,001,1046,
images\hanger02a.jpg,hanger,z,sounds\greatgatsby_spanish.wav,,,,,,,,,0,0,0,0,0,84,84,88,303.720835239,9.30100213736e-06,306.511680401,2.79085542529,,,,z,1,2.76761842205,2018_Nov_26_1232,59.9829937212,spanish_cond2,001,1046,
images\plant01.jpg,plant,z,sounds\greatgatsby_spanish.wav,,,,,,,,,0,0,0,0,0,85,85,47,307.623272347,9.30100213736e-06,308.462166264,0.838903538883,,,,z,1,0.817103052628,2018_Nov_26_1232,59.9829937212,spanish_cond2,001,1046,
images\bowl02b (1).jpg,bowl,z,sounds\greatgatsby_spanish.wav,,,,,,,,,0,0,0,0,0,86,86,24,309.579810248,9.30088572204e-06,310.362662679,0.782862373395,,,,z,1,0.767101096222,2018_Nov_26_1232,59.9829937212,spanish_cond2,001,1046,
images\basketball01.jpg,basket ball,z,sounds\greatgatsby_spanish.wav,,,,,,,,,0,0,0,0,0,87,87,33,311.501275835,9.30100213736e-06,312.763282251,1.2620163582,,,,z,1,1.25056399091,2018_Nov_26_1232,59.9829937212,spanish_cond2,001,1046,
images\pepper05a.jpg,lighter,x,sounds\greatgatsby_spanish.wav,,,,,,,,,0,0,0,0,0,88,88,198,313.883848339,9.30100213736e-06,315.413952337,1.53011361929,,,,x,1,1.51729080372,2018_Nov_26_1232,59.9829937212,spanish_cond2,001,1046,
images\umbrella01.jpg,umbrella,z,sounds\greatgatsby_spanish.wav,,,,,,,,,0,0,0,0,0,89,89,53,316.526647248,9.30100213736e-06,319.014869989,2.48823268304,,,,z,1,2.46752938943,2018_Nov_26_1232,59.9829937212,spanish_cond2,001,1046,
images\backpack01b.jpg,swallow,x,sounds\greatgatsby_spanish.wav,,,,,,,,,0,0,0,0,0,90,90,228,320.145834549,8.98016151041e-06,321.682217657,1.5363927288,,,,x,1,1.51728278573,2018_Nov_26_1232,59.9829937212,spanish_cond2,001,1046,
images\gorilla.jpg,gorilla,z,sounds\greatgatsby_spanish.wav,,,,,,,,,0,0,0,0,0,91,91,80,322.792898108,1.02630583569e-05,324.499607435,1.70671959012,,,,z,1,1.68399606412,2018_Nov_26_1232,59.9829937212,spanish_cond2,001,1046,
images\snowman.jpg,globe,x,sounds\greatgatsby_spanish.wav,,,,,,,,,0,0,0,0,0,92,92,180,325.610344014,9.30088572204e-06,327.083606643,1.47327257134,,,,x,1,1.45060741669,2018_Nov_26_1232,59.9829937212,spanish_cond2,001,1046,
images\stapler03a.jpg,candy cane,x,sounds\greatgatsby_spanish.wav,,,,,,,,,0,0,0,0,0,93,93,145,328.193760468,9.621726349e-06,330.151068744,1.95731789852,,,,x,1,1.93406582123,2018_Nov_26_1232,59.9829937212,spanish_cond2,001,1046,
images\handbag02a.jpg,candle,x,sounds\greatgatsby_spanish.wav,,,,,,,,,0,0,0,0,0,94,94,144,331.26653021,9.30100213736e-06,333.801998295,2.53547770693,,,,x,1,2.51754706132,2018_Nov_26_1232,59.9829937212,spanish_cond2,001,1046,
images\knife04.jpg,tooth brush,x,sounds\greatgatsby_spanish.wav,,,,,,,,,0,0,0,0,0,95,95,233,334.89853744,9.621726349e-06,335.769164947,0.870638090651,,,,x,1,0.850448594894,2018_Nov_26_1232,59.9829937212,spanish_cond2,001,1046,
images\flashlight05.jpg,flash light,z,sounds\greatgatsby_spanish.wav,,,,,,,,,0,0,0,0,0,96,96,8,336.871259331,9.62160993367e-06,337.65284619,0.781597442925,,,,z,1,0.766958374646,2018_Nov_26_1232,59.9829937212,spanish_cond2,001,1046,
images\floorlamp.jpg,floor lamp,z,sounds\greatgatsby_spanish.wav,,,,,,,,,0,0,0,0,0,97,97,26,338.745342304,9.30100213736e-06,340.253653192,1.50832115125,,,,z,1,1.48395007243,2018_Nov_26_1232,59.9829937212,spanish_cond2,001,1046,
images\mitten01.jpg,mitten,z,sounds\greatgatsby_spanish.wav,,,,,,,,,0,0,0,0,0,98,98,102,341.373662506,9.94245056063e-06,342.337516734,0.963863528683,,,,z,1,0.950367195532,2018_Nov_26_1232,59.9829937212,spanish_cond2,001,1046,
images\tank.jpg,wallet,x,sounds\greatgatsby_spanish.wav,,,,,,,,,0,0,0,0,0,99,99,237,343.441793635,9.30088572204e-06,344.588094836,1.14631178475,,,,x,1,1.13386100775,2018_Nov_26_1232,59.9829937212,spanish_cond2,001,1046,
images\arrow02.jpg,hammer,x,sounds\greatgatsby_spanish.wav,,,,,,,,,0,0,0,0,0,100,100,184,345.68515227,9.30100213736e-06,346.755305556,1.07016354939,,,,x,1,1.05049426574,2018_Nov_26_1232,59.9829937212,spanish_cond2,001,1046,
images\cookingpot.jpg,grasshopper,x,sounds\greatgatsby_spanish.wav,,,,,,,,,0,0,0,0,0,101,101,183,347.868824083,9.30100213736e-06,348.822511079,0.953696618206,,,,x,1,0.933805073728,2018_Nov_26_1232,59.9829937212,spanish_cond2,001,1046,
images\8ball.jpg,nail clipper,x,sounds\greatgatsby_spanish.wav,,,,,,,,,0,0,0,0,0,102,102,206,349.938700906,9.30100213736e-06,350.80635371,0.867664670339,,,,x,1,0.850445387652,2018_Nov_26_1232,59.9829937212,spanish_cond2,001,1046,
images\atm.jpg,atm,z,sounds\greatgatsby_spanish.wav,,,,,,,,,0,0,0,0,0,103,103,96,351.943569477,9.30100213736e-06,353.057036689,1.11347715394,,,,z,1,1.10058923182,2018_Nov_26_1232,59.9829937212,spanish_cond2,001,1046,
images\rhinoceros01.jpg,envelope,x,sounds\greatgatsby_spanish.wav,,,,,,,,,0,0,0,0,0,104,104,173,354.168761734,9.62160993367e-06,356.424465307,2.25571351498,,,,x,1,2.23414234573,2018_Nov_26_1232,59.9829937212,spanish_cond2,001,1046,
images\toucan.jpg,toucan,z,sounds\greatgatsby_spanish.wav,,,,,,,,,0,0,0,0,0,105,105,81,357.524718742,9.30088572204e-06,358.941774392,1.41706559225,,,,z,1,1.40059198998,2018_Nov_26_1232,59.9829937212,spanish_cond2,001,1046,
images\swallow.jpg,mattress,x,sounds\greatgatsby_spanish.wav,,,,,,,,,0,0,0,0,0,106,106,202,360.043284098,9.62160993367e-06,360.775570742,0.732297227834,,,,x,1,0.717051352258,2018_Nov_26_1232,59.9829937212,spanish_cond2,001,1046,
images\licenseplate.jpg,license plate,z,sounds\greatgatsby_spanish.wav,,,,,,,,,0,0,0,0,0,107,107,40,361.892549547,9.62160993367e-06,362.776081974,0.883542048978,,,,z,1,0.86711302714,2018_Nov_26_1232,59.9829937212,spanish_cond2,001,1046,
images\shotglass.jpg,shot glass,z,sounds\greatgatsby_spanish.wav,,,,,,,,,0,0,0,0,0,108,108,86,363.884395492,9.30100213736e-06,365.21004773,1.3256621802,,,,z,1,1.31723968056,2018_Nov_26_1232,59.9829937212,spanish_cond2,001,1046,
images\teapot.jpg,light switch,x,sounds\greatgatsby_spanish.wav,,,,,,,,,0,0,0,0,0,109,109,197,366.326358469,9.30100213736e-06,367.744033114,1.41768426646,,,,x,1,1.40059134865,2018_Nov_26_1232,59.9829937212,spanish_cond2,001,1046,
images\scissors04a.jpg,leek,x,sounds\greatgatsby_spanish.wav,,,,,,,,,0,0,0,0,0,110,110,194,368.83752379,9.30100213736e-06,369.894573628,1.05705978081,,,,x,1,1.0338269471,2018_Nov_26_1232,59.9829937212,spanish_cond2,001,1046,
images\paperclip04.jpg,eye drops,x,sounds\greatgatsby_spanish.wav,,,,,,,,,0,0,0,0,0,111,111,174,370.999688899,9.621726349e-06,373.495498015,2.49581937923,,,,x,1,2.48419831181,2018_Nov_26_1232,59.9829937212,spanish_cond2,001,1046,
images\skateboard.jpg,key,x,sounds\greatgatsby_spanish.wav,,,,,,,,,0,0,0,0,0,112,112,189,374.585986084,9.30088572204e-06,375.679384713,1.09340857051,,,,x,1,1.08381382946,2018_Nov_26_1232,59.9829937212,spanish_cond2,001,1046,
images\dryingmachine01.jpg,drying machine,z,sounds\greatgatsby_spanish.wav,,,,,,,,,0,0,0,0,0,113,113,18,376.800624319,9.30100213736e-06,378.029993669,1.22937897174,,,,z,1,1.21720722353,2018_Nov_26_1232,59.9829937212,spanish_cond2,001,1046,
images\candycane01a.jpg,lip,x,sounds\greatgatsby_spanish.wav,,,,,,,,,0,0,0,0,0,114,114,200,379.123557469,9.30100213736e-06,380.297241977,1.17369445006,,,,x,1,1.15052447782,2018_Nov_26_1232,59.9829937212,spanish_cond2,001,1046,
images\daisy.jpg,daisy,z,sounds\greatgatsby_spanish.wav,,,,,,,,,0,0,0,0,0,115,115,6,381.399182093,9.621726349e-06,382.497807219,1.09863506828,,,,z,1,1.08384878817,2018_Nov_26_1232,59.9829937212,spanish_cond2,001,1046,
images\bed.jpg,bed,z,sounds\greatgatsby_spanish.wav,,,,,,,,,0,0,0,0,0,116,116,103,383.616773542,9.30100213736e-06,384.58167076,0.964907481102,,,,z,1,0.950472071767,2018_Nov_26_1232,59.9829937212,spanish_cond2,001,1046,
images\key03b.jpg,cigar,x,sounds\greatgatsby_spanish.wav,,,,,,,,,0,0,0,0,0,117,117,153,385.682522022,8.98027792573e-06,386.598858291,0.916346211219,,,,x,1,0.90046273882,2018_Nov_26_1232,59.9829937212,spanish_cond2,001,1046,
images\table02.jpg,table,z,sounds\greatgatsby_spanish.wav,,,,,,,,,0,0,0,0,0,118,118,49,387.712985871,9.621726349e-06,389.416250636,1.70327470731,,,,z,1,1.68400344066,2018_Nov_26_1232,59.9829937212,spanish_cond2,001,1046,
images\gps.jpg,gps,z,sounds\greatgatsby_spanish.wav,,,,,,,,,0,0,0,0,0,119,119,21,390.534706369,8.6595537141e-06,391.433469598,0.898817751906,,,,z,1,0.883789646905,2018_Nov_26_1232,59.9829937212,spanish_cond2,001,1046,
images\lily.jpg,kiwi,x,sounds\greatgatsby_spanish.wav,,,,,,,,,0,0,0,0,0,120,120,190,392.532330455,8.98016151041e-06,395.23440598,2.70208578813,,,,x,1,2.68424943509,2018_Nov_26_1232,59.9829937212,spanish_cond2,001,1046,
images\hairpin.jpg,hair pin,z,sounds\greatgatsby_spanish.wav,,,,,,,,,0,0,0,0,0,121,121,28,396.325277954,9.30100213736e-06,398.368546658,2.04327832512,,,,z,1,2.03408480808,2018_Nov_26_1232,59.9829937212,spanish_cond2,001,1046,
images\tie01.jpg,bench,x,sounds\greatgatsby_spanish.wav,,,,,,,,,0,0,0,0,0,122,122,130,399.466736563,8.98016151041e-06,400.552437204,1.08571026288,,,,x,1,1.06717216852,2018_Nov_26_1232,59.9829937212,spanish_cond2,001,1046,
images\ant.jpg,ant,z,sounds\greatgatsby_spanish.wav,,,,,,,,,0,0,0,0,0,123,123,98,401.646898707,8.98027792573e-06,402.519608025,0.872718939791,,,,z,1,0.850447311997,2018_Nov_26_1232,59.9829937212,spanish_cond2,001,1046,
images\screwdriver02b.jpg,cola,x,sounds\greatgatsby_spanish.wav,,,,,,,,,0,0,0,0,0,124,124,158,403.613457911,9.30100213736e-06,405.537052776,1.9236041666,,,,x,1,1.90072829707,2018_Nov_26_1232,59.9829937212,spanish_cond2,001,1046,
images\banana04a.jpg,banana,z,sounds\greatgatsby_spanish.wav,,,,,,,,,0,0,0,0,0,125,125,118,406.643249203,9.621726349e-06,407.570902494,0.927663554205,,,,z,1,0.917133264826,2018_Nov_26_1232,59.9829937212,spanish_cond2,001,1046,
images\diploma01.jpg,glasses,x,sounds\greatgatsby_spanish.wav,,,,,,,,,0,0,0,0,0,126,126,179,408.70135454,8.98016151041e-06,409.588081366,0.886736447341,,,,x,1,0.867112706532,2018_Nov_26_1232,59.9829937212,spanish_cond2,001,1046,
images\spoon02b.jpg,spoon,z,sounds\greatgatsby_spanish.wav,,,,,,,,,0,0,0,0,0,127,127,38,410.679173036,9.621726349e-06,411.955361811,1.27619903802,,,,z,1,1.2672210465,2018_Nov_26_1232,59.9829937212,spanish_cond2,001,1046,
images\panda.jpg,panda,z,sounds\greatgatsby_spanish.wav,,,,,,,,,0,0,0,0,0,128,128,83,413.064740128,8.98027792573e-06,413.922530387,0.857799880556,,,,z,1,0.833786086994,2018_Nov_26_1232,59.9829937212,spanish_cond2,001,1046,
images\hammer02a.jpg,flower,x,sounds\greatgatsby_spanish.wav,,,,,,,,,0,0,0,0,0,129,129,176,415.017274126,9.621726349e-06,415.9397099,0.922445395379,,,,x,1,0.900456965785,2018_Nov_26_1232,59.9829937212,spanish_cond2,001,1046,
images\kiwi03.jpg,backpack,x,sounds\greatgatsby_spanish.wav,,,,,,,,,0,0,0,0,0,130,130,125,417.067876155,8.98016151041e-06,419.090521104,2.02265489136,,,,x,1,2.00074311462,2018_Nov_26_1232,59.9829937212,spanish_cond2,001,1046,
images\camera01a.jpg,bull,x,sounds\greatgatsby_spanish.wav,,,,,,,,,0,0,0,0,0,131,131,138,420.201284623,9.621726349e-06,421.374434806,1.17315980524,,,,x,1,1.15052704362,2018_Nov_26_1232,59.9829937212,spanish_cond2,001,1046,
images\corn01.jpg,corn,z,sounds\greatgatsby_spanish.wav,,,,,,,,,0,0,0,0,0,132,132,22,422.473693039,9.30100213736e-06,423.191576025,0.717892928631,,,,x,0,0.700424123672,2018_Nov_26_1232,59.9829937212,spanish_cond2,001,1046,
images\tissuebox03.jpg,tissue box,z,sounds\greatgatsby_spanish.wav,,,,,,,,,0,0,0,0,0,133,133,58,424.316829476,9.30088572204e-06,425.025375262,0.708555086283,,,,z,1,0.683735957951,2018_Nov_26_1232,59.9829937212,spanish_cond2,001,1046,
images\screw03c.jpg,screw,z,sounds\greatgatsby_spanish.wav,,,,,,,,,0,0,0,0,0,134,134,84,426.11912893,9.30100213736e-06,426.792502336,0.673383028246,,,,z,1,0.650404527667,2018_Nov_26_1232,59.9829937212,spanish_cond2,001,1046,
images\cat.jpg,black olive,x,sounds\greatgatsby_spanish.wav,,,,,,,,,0,0,0,0,0,135,135,133,427.923060221,8.98027792573e-06,429.409832333,1.48678141274,,,,x,1,1.46727601846,2018_Nov_26_1232,59.9829937212,spanish_cond2,001,1046,
images\broadsword.jpg,teapot,x,sounds\greatgatsby_spanish.wav,,,,,,,,,0,0,0,0,0,136,136,231,430.502785477,8.98027792573e-06,431.960480545,1.45770469017,,,,x,1,1.43392758979,2018_Nov_26_1232,59.9829937212,spanish_cond2,001,1046,
images\safe.jpg,safe,z,sounds\greatgatsby_spanish.wav,,,,,,,,,0,0,0,0,0,137,137,78,433.071814951,9.94245056063e-06,433.894307428,0.822503061267,,,,z,1,0.800434771692,2018_Nov_26_1232,59.9829937212,spanish_cond2,001,1046,
images\clothespin02a.jpg,clothes pin,z,sounds\greatgatsby_spanish.wav,,,,,,,,,0,0,0,0,0,138,138,79,434.999478184,9.94233414531e-06,437.095142077,2.09567383525,,,,z,1,2.08409959334,2018_Nov_26_1232,59.9829937212,spanish_cond2,001,1046,
images\bowtie.jpg,bowtie,z,sounds\greatgatsby_spanish.wav,,,,,,,,,0,0,0,0,0,139,139,89,438.206718628,9.30088572204e-06,439.27902236,1.07231367449,,,,z,1,1.05049843527,2018_Nov_26_1232,59.9829937212,spanish_cond2,001,1046,
images\saltshaker03c.jpg,salt shaker,z,sounds\greatgatsby_spanish.wav,,,,,,,,,0,0,0,0,0,140,140,63,440.390272095,9.30100213736e-06,441.846362587,1.45610011427,,,,z,1,1.43394490879,2018_Nov_26_1232,59.9829937212,spanish_cond2,001,1046,
images\grandpiano.jpg,tulip,x,sounds\greatgatsby_spanish.wav,,,,,,,,,0,0,0,0,0,141,141,236,442.960525446,8.98027792573e-06,444.230295277,1.26977945177,,,,x,1,1.25054186105,2018_Nov_26_1232,59.9829937212,spanish_cond2,001,1046,
images\swan.jpg,swan,z,sounds\greatgatsby_spanish.wav,,,,,,,,,0,0,0,0,0,142,142,54,445.322299082,8.6595537141e-06,447.031043715,1.7087542552,,,,z,1,1.68403038138,2018_Nov_26_1232,59.9829937212,spanish_cond2,001,1046,
images\diaper01a.jpg,camera,x,sounds\greatgatsby_spanish.wav,,,,,,,,,0,0,0,0,0,143,143,143,448.15143052,8.98016151041e-06,448.981518673,0.830097454716,,,,x,1,0.817114919424,2018_Nov_26_1232,59.9829937212,spanish_cond2,001,1046,
images\drink.jpg,drink,z,sounds\greatgatsby_spanish.wav,,,,,,,,,0,0,0,0,0,144,144,117,450.081858383,9.621726349e-06,450.815321438,0.733473318163,,,,z,1,0.717084386619,2018_Nov_26_1232,59.9829937212,spanish_cond2,001,1046,
images\ladder.jpg,ladder,z,sounds\greatgatsby_spanish.wav,,,,,,,,,0,0,0,0,0,145,145,113,451.907450646,9.30100213736e-06,453.499332576,1.59189155209,,,,z,1,1.56728730793,2018_Nov_26_1232,59.9829937212,spanish_cond2,001,1046,
images\dreamcatcher.jpg,dream catcher,z,sounds\greatgatsby_spanish.wav,,,,,,,,,0,0,0,0,0,146,146,48,454.599010634,9.30088572204e-06,455.383145636,0.78414494358,,,,z,1,0.767087946646,2018_Nov_26_1232,59.9829937212,spanish_cond2,001,1046,
images\battery03b.jpg,battery,z,sounds\greatgatsby_spanish.wav,,,,,,,,,0,0,0,0,0,147,147,34,456.49241619,9.30100213736e-06,457.316979254,0.824572685058,,,,z,1,0.800442148349,2018_Nov_26_1232,59.9829937212,spanish_cond2,001,1046,
images\lighter02b.jpg,stapler,x,sounds\greatgatsby_spanish.wav,,,,,,,,,0,0,0,0,0,148,148,227,458.418154125,9.30100213736e-06,460.434454537,2.01631003374,,,,x,1,2.00075273623,2018_Nov_26_1232,59.9829937212,spanish_cond2,001,1046,
images\cupcake.jpg,scissors,x,sounds\greatgatsby_spanish.wav,,,,,,,,,0,0,0,0,0,149,149,219,461.553034069,9.30088572204e-06,463.085125585,1.53210145864,,,,x,1,1.51728727587,2018_Nov_26_1232,59.9829937212,spanish_cond2,001,1046,
images\paintbrush03a.jpg,paint brush,z,sounds\greatgatsby_spanish.wav,,,,,,,,,0,0,0,0,0,150,150,0,464.184858808,9.30088572204e-06,465.38570821,1.200858703,,,,z,1,1.18386392633,2018_Nov_26_1232,59.9829937212,spanish_cond2,001,1046,
images\beachumbrella01.jpg,beach umbrella,z,sounds\greatgatsby_spanish.wav,,,,,,,,,0,0,0,0,0,151,151,92,466.544982325,9.30100213736e-06,468.219782627,1.67481056519,,,,z,1,1.6506617472,2018_Nov_26_1232,59.9829937212,spanish_cond2,001,1046,
images\computermouse02a.jpg,world map,x,sounds\greatgatsby_spanish.wav,,,,,,,,,0,0,0,0,0,152,152,239,469.319899755,9.62160993367e-06,471.720677764,2.40078955516,,,,x,1,2.38417900435,2018_Nov_26_1232,59.9829937212,spanish_cond2,001,1046,
images\pictureframe04.jpg,picture frame,z,sounds\greatgatsby_spanish.wav,,,,,,,,,0,0,0,0,0,153,153,41,472.842140593,9.62160993367e-06,473.73786305,0.895733040641,,,,z,1,0.883801513701,2018_Nov_26_1232,59.9829937212,spanish_cond2,001,1046,
images\coffeepot03b.jpg,coffee pot,z,sounds\greatgatsby_spanish.wav,,,,,,,,,0,0,0,0,0,154,154,107,474.859056151,8.98027792573e-06,477.072041702,2.2129951719,,,,z,1,2.20078942692,2018_Nov_26_1232,59.9829937212,spanish_cond2,001,1046,
images\dice05a.jpg,band aid,x,sounds\greatgatsby_spanish.wav,,,,,,,,,0,0,0,0,0,155,155,126,478.184166689,8.98027792573e-06,479.089222818,0.905065751402,,,,x,1,0.883792212699,2018_Nov_26_1232,59.9829937212,spanish_cond2,001,1046,
images\lamp04b.jpg,parking meter,x,sounds\greatgatsby_spanish.wav,,,,,,,,,0,0,0,0,0,156,156,209,480.210089103,9.621726349e-06,481.35647273,1.14639388979,,,,x,1,1.13385812123,2018_Nov_26_1232,59.9829937212,spanish_cond2,001,1046,
images\doorhandle.jpg,doll,x,sounds\greatgatsby_spanish.wav,,,,,,,,,0,0,0,0,0,157,157,168,482.45924031,9.30100213736e-06,483.4403491,0.981119052973,,,,x,1,0.967151257326,2018_Nov_26_1232,59.9829937212,spanish_cond2,001,1046,
images\dragonfly02.jpg,dragon fly,z,sounds\greatgatsby_spanish.wav,,,,,,,,,0,0,0,0,0,158,158,29,484.537639057,8.98016151041e-06,485.674250583,1.13662146823,,,,z,1,1.11719048175,2018_Nov_26_1232,59.9829937212,spanish_cond2,001,1046,
images\lemon02.jpg,lemon,z,sounds\greatgatsby_spanish.wav,,,,,,,,,0,0,0,0,0,159,159,14,486.786008984,8.98027792573e-06,487.558064605,0.772065884201,,,,z,1,0.750428645872,2018_Nov_26_1232,59.9829937212,spanish_cond2,001,1046,
images\wallet01.jpg,lamp,x,sounds\greatgatsby_spanish.wav,,,,,,,,,0,0,0,0,0,160,160,193,488.663743065,9.30088572204e-06,489.625263394,0.961530270753,,,,x,1,0.950472392491,2018_Nov_26_1232,59.9829937212,spanish_cond2,001,1046,
images\radio03a.jpg,radio,z,sounds\greatgatsby_spanish.wav,,,,,,,,,0,0,0,0,0,161,161,37,490.739581803,9.30100213736e-06,491.592420745,0.852849204559,,,,z,1,0.833750807331,2018_Nov_26_1232,59.9829937212,spanish_cond2,001,1046,
images\cola.jpg,comb,x,sounds\greatgatsby_spanish.wav,,,,,,,,,0,0,0,0,0,162,162,157,492.713026603,9.30100213736e-06,495.510105011,2.7970889922,,,,x,1,2.78428606153,2018_Nov_26_1232,59.9829937212,spanish_cond2,001,1046,
images\bench02.jpg,electric toothbrush,x,sounds\greatgatsby_spanish.wav,,,,,,,,,0,0,0,0,0,163,163,172,496.618960871,9.30088572204e-06,497.593964704,0.975013454212,,,,x,1,0.950472392491,2018_Nov_26_1232,59.9829937212,spanish_cond2,001,1046,
images\printer03a.jpg,printer,z,sounds\greatgatsby_spanish.wav,,,,,,,,,0,0,0,0,0,164,164,72,498.701617212,8.6595537141e-06,499.52778421,0.826176298782,,,,z,1,0.817093751743,2018_Nov_26_1232,59.9829937212,spanish_cond2,001,1046,
images\lettuce.jpg,mushroom,x,sounds\greatgatsby_spanish.wav,,,,,,,,,0,0,0,0,0,165,165,205,500.651428916,9.94233414531e-06,501.811727098,1.16030844545,,,,x,1,1.15053153376,2018_Nov_26_1232,59.9829937212,spanish_cond2,001,1046,
images\feather03b.jpg,feather,z,sounds\greatgatsby_spanish.wav,,,,,,,,,0,0,0,0,0,166,166,114,502.912307029,8.98027792573e-06,503.612177265,0.699879857246,,,,z,1,0.68373435433,2018_Nov_26_1232,59.9829937212,spanish_cond2,001,1046,
images\highlighter03b.jpg,coin,x,sounds\greatgatsby_spanish.wav,,,,,,,,,0,0,0,0,0,167,167,156,504.712362065,9.62160993367e-06,505.962777882,1.25042543863,,,,x,1,1.23387614591,2018_Nov_26_1232,59.9829937212,spanish_cond2,001,1046,
images\treadmill.jpg,lily,x,sounds\greatgatsby_spanish.wav,,,,,,,,,0,0,0,0,0,168,168,199,507.067244972,9.62160993367e-06,510.063682384,2.99644735432,,,,None,0,,2018_Nov_26_1232,59.9829937212,spanish_cond2,001,1046,
images\radish01.jpg,raisin,x,sounds\greatgatsby_spanish.wav,,,,,,,,,0,0,0,0,0,169,169,214,511.172791936,9.30088572204e-06,512.381093331,1.20831133705,,,,x,1,1.1838741895,2018_Nov_26_1232,59.9829937212,spanish_cond2,001,1046,
images\toothbrush03a.jpg,parrot,x,sounds\greatgatsby_spanish.wav,,,,,,,,,0,0,0,0,0,170,170,210,513.472444145,8.98027792573e-06,515.315180961,1.84274708002,,,,x,1,1.83404074074,2018_Nov_26_1232,59.9829937212,spanish_cond2,001,1046,
images\lock02a.jpg,lock,z,sounds\greatgatsby_spanish.wav,,,,,,,,,0,0,0,0,0,171,171,65,516.423879667,9.30100213736e-06,517.382364997,0.958495271625,,,,z,1,0.933799621416,2018_Nov_26_1232,59.9829937212,spanish_cond2,001,1046,
images\corkscrew02a.jpg,masquerade mask,x,sounds\greatgatsby_spanish.wav,,,,,,,,,0,0,0,0,0,172,172,201,518.485007816,8.98027792573e-06,520.666596215,2.18159834098,,,,x,1,2.16748397518,2018_Nov_26_1232,59.9829937212,spanish_cond2,001,1046,
images\bus.jpg,microphone,x,sounds\greatgatsby_spanish.wav,,,,,,,,,0,0,0,0,0,173,173,203,521.784446744,9.621726349e-06,522.8504332,1.06599607819,,,,x,1,1.0504881721,2018_Nov_26_1232,59.9829937212,spanish_cond2,001,1046,
images\scooter.jpg,pen,x,sounds\greatgatsby_spanish.wav,,,,,,,,,0,0,0,0,0,174,174,212,523.9414851,9.621726349e-06,525.634399501,1.69292466412,,,,x,1,1.68390433735,2018_Nov_26_1232,59.9829937212,spanish_cond2,001,1046,
images\mailbox01.jpg,mail box,z,sounds\greatgatsby_spanish.wav,,,,,,,,,0,0,0,0,0,175,175,73,526.752537719,8.98016151041e-06,527.501632158,0.749103419599,,,,z,1,0.733755233465,2018_Nov_26_1232,59.9829937212,spanish_cond2,001,1046,
images\belt02a.jpg,snowman,x,sounds\greatgatsby_spanish.wav,,,,,,,,,0,0,0,0,0,176,176,224,528.603065532,9.30088572204e-06,530.869165973,2.26611070451,,,,x,1,2.25081126811,2018_Nov_26_1232,59.9829937212,spanish_cond2,001,1046,
images\lipstick04.jpg,lipstick,z,sounds\greatgatsby_spanish.wav,,,,,,,,,0,0,0,0,0,177,177,56,531.967816757,9.62160993367e-06,533.63656919,1.66876237583,,,,z,1,1.65069029154,2018_Nov_26_1232,59.9829937212,spanish_cond2,001,1046,
images\bottleofredwine02.jpg,pipe,x,sounds\greatgatsby_spanish.wav,,,,,,,,,0,0,0,0,0,178,178,213,534.7331279,9.30100213736e-06,536.187188538,1.45407058089,,,,x,1,1.43392887269,2018_Nov_26_1232,59.9829937212,spanish_cond2,001,1046,
images\blackolive.jpg,tank,x,sounds\greatgatsby_spanish.wav,,,,,,,,,0,0,0,0,0,179,179,229,537.300716687,8.98027792573e-06,538.637859458,1.33715271344,,,,x,1,1.31727207359,2018_Nov_26_1232,59.9829937212,spanish_cond2,001,1046,
images\mirror02.jpg,8 ball,x,sounds\greatgatsby_spanish.wav,,,,,,,,,0,0,0,0,0,180,180,121,539.739031122,8.98027792573e-06,540.588315814,0.849293993087,,,,x,1,0.833780313842,2018_Nov_26_1232,59.9829937212,spanish_cond2,001,1046,
images\dresser02.jpg,dresser,z,sounds\greatgatsby_spanish.wav,,,,,,,,,0,0,0,0,0,181,181,87,541.708894732,9.621726349e-06,542.655503698,0.9466189089,,,,z,1,0.933792244759,2018_Nov_26_1232,59.9829937212,spanish_cond2,001,1046,
images\cockroach02.jpg,belt,x,sounds\greatgatsby_spanish.wav,,,,,,,,,0,0,0,0,0,182,182,129,543.753044781,9.62160993367e-06,544.622692801,0.869658603449,,,,x,1,0.850438973284,2018_Nov_26_1232,59.9829937212,spanish_cond2,001,1046,
images\cake.jpg,cake,z,sounds\greatgatsby_spanish.wav,,,,,,,,,0,0,0,0,0,183,183,23,545.734984564,9.30088572204e-06,546.973310096,1.23833547463,,,,z,1,1.21722967399,2018_Nov_26_1232,59.9829937212,spanish_cond2,001,1046,
images\giraffe.jpg,lettuce,x,sounds\greatgatsby_spanish.wav,,,,,,,,,0,0,0,0,0,184,184,195,548.072785458,8.98016151041e-06,550.240802474,2.16802663787,,,,x,1,2.15078875341,2018_Nov_26_1232,59.9829937212,spanish_cond2,001,1046,
images\crocodile.jpg,triangle ruler,x,sounds\greatgatsby_spanish.wav,,,,,,,,,0,0,0,0,0,185,185,235,551.336168415,8.98016151041e-06,553.024885839,1.68872736581,,,,x,1,1.66736915626,2018_Nov_26_1232,59.9829937212,spanish_cond2,001,1046,
images\bull.jpg,button,x,sounds\greatgatsby_spanish.wav,,,,,,,,,0,0,0,0,0,186,186,141,554.129893347,9.30088572204e-06,554.891975453,0.762092048652,,,,x,1,0.750416458468,2018_Nov_26_1232,59.9829937212,spanish_cond2,001,1046,
images\notebook02b.jpg,notebook,z,sounds\greatgatsby_spanish.wav,,,,,,,,,0,0,0,0,0,187,187,7,555.996751399,9.621726349e-06,556.69243909,0.695697312127,,,,z,1,0.683737240848,2018_Nov_26_1232,59.9829937212,spanish_cond2,001,1046,
images\antelope.jpg,antelope,z,sounds\greatgatsby_spanish.wav,,,,,,,,,0,0,0,0,0,188,188,12,557.796343312,9.30088572204e-06,558.776313215,0.979979525087,,,,z,1,0.967146446463,2018_Nov_26_1232,59.9829937212,spanish_cond2,001,1046,
images\lip.jpg,boxing glove,x,sounds\greatgatsby_spanish.wav,,,,,,,,,0,0,0,0,0,189,189,136,559.877693991,8.98027792573e-06,560.676798725,0.799113714835,,,,x,1,0.783762321342,2018_Nov_26_1232,59.9829937212,spanish_cond2,001,1046,
images\baseball01a.jpg,baseball,z,sounds\greatgatsby_spanish.wav,,,,,,,,,0,0,0,0,0,190,190,74,561.808125703,8.98027792573e-06,563.010747419,1.20263229974,,,,z,1,1.18388701836,2018_Nov_26_1232,59.9829937212,spanish_cond2,001,1046,
,,,sounds\greatgatsby_spanish.wav,,,,,,,,,0,0,0,0,,,,,,,,,,,,,,,2018_Nov_26_1232,59.9829937212,spanish_cond2,001,1046,
images\nailpolish02b.jpg,nail polish,z,sounds\animalfarm_english.wav,,,,,,,,,0,1,1,1,0,0,0,94,584.14459656,9.62160993367e-06,587.100244455,2.95565815829,,,574.013877672,z,1,2.93431919231,2018_Nov_26_1232,59.9829937212,spanish_cond2,001,1046,
images\wallet01.jpg,lamp,x,sounds\animalfarm_english.wav,,,,,,,,,0,1,1,1,0,1,1,193,588.204212821,8.98027792573e-06,589.050728714,0.846525514498,,,,x,1,0.833766202093,2018_Nov_26_1232,59.9829937212,spanish_cond2,001,1046,
images\pouch01b.jpg,pouch,z,sounds\animalfarm_english.wav,,,,,,,,,0,1,1,1,0,2,2,25,590.162308793,9.30088572204e-06,593.151633216,2.98933436559,,,,None,0,,2018_Nov_26_1232,59.9829937212,spanish_cond2,001,1046,
images\cauliflower01.jpg,glue stick,x,sounds\animalfarm_english.wav,,,,,,,,,0,1,1,1,0,3,3,181,594.267175504,9.94233414531e-06,595.085618215,0.818453295389,,,,x,1,0.800437979051,2018_Nov_26_1232,59.9829937212,spanish_cond2,001,1046,
images\lychee02a.jpg,lychee,z,sounds\animalfarm_english.wav,,,,,,,,,0,1,1,1,0,4,4,62,596.208721862,9.621726349e-06,597.636288237,1.42757727974,,,,z,1,1.41727277916,2018_Nov_26_1232,59.9829937212,spanish_cond2,001,1046,
images\beachumbrella01.jpg,beach umbrella,z,sounds\animalfarm_english.wav,,,,,,,,,0,1,1,1,0,5,5,92,598.74127105,8.98027792573e-06,599.936908707,1.19564695866,,,,z,1,1.18389760226,2018_Nov_26_1232,59.9829937212,spanish_cond2,001,1046,
images\radish01.jpg,raisin,x,sounds\animalfarm_english.wav,,,,,,,,,0,1,1,1,0,6,6,214,601.04727004,1.12252309918e-05,603.054313432,2.00705397571,,,,x,1,1.98404596851,2018_Nov_26_1232,59.9829937212,spanish_cond2,001,1046,
images\calculator02b.jpg,dice,x,sounds\animalfarm_english.wav,,,,,,,,,0,1,1,1,0,7,7,165,604.155204143,9.30088572204e-06,606.421871622,2.26667742152,,,,x,1,2.25081800332,2018_Nov_26_1232,59.9829937212,spanish_cond2,001,1046,
images\shotglass.jpg,shot glass,z,sounds\animalfarm_english.wav,,,,,,,,,0,1,1,1,0,8,8,86,607.529669418,8.98027792573e-06,608.305664797,0.776005000691,,,,z,1,0.767084097955,2018_Nov_26_1232,59.9829937212,spanish_cond2,001,1046,
images\cheetah.jpg,cheetah,z,sounds\animalfarm_english.wav,,,,,,,,,0,1,1,1,0,9,9,82,609.407433006,9.30088572204e-06,610.289513521,0.882090457948,,,,z,1,0.86710693338,2018_Nov_26_1232,59.9829937212,spanish_cond2,001,1046,
images\table02.jpg,table,z,sounds\animalfarm_english.wav,,,,,,,,,0,1,1,1,0,10,10,49,611.403177336,8.98016151041e-06,612.390237457,0.987070063129,,,,z,1,0.967337918002,2018_Nov_26_1232,59.9829937212,spanish_cond2,001,1046,
images\diploma01.jpg,glasses,x,sounds\animalfarm_english.wav,,,,,,,,,0,1,1,1,0,11,11,179,613.520424906,8.98027792573e-06,615.507513251,1.98709764529,,,,x,1,1.96739757236,2018_Nov_26_1232,59.9829937212,spanish_cond2,001,1046,
images\parkbench03.jpg,park bench,z,sounds\animalfarm_english.wav,,,,,,,,,0,1,1,1,0,12,12,71,616.612544813,9.30100213736e-06,618.158211239,1.54567636899,,,,z,1,1.53396966867,2018_Nov_26_1232,59.9829937212,spanish_cond2,001,1046,
images\doorhandle.jpg,doll,x,sounds\animalfarm_english.wav,,,,,,,,,0,1,1,1,0,13,13,168,619.2610853,8.98027792573e-06,622.009183895,2.74810853775,,,,x,1,2.7342635789,2018_Nov_26_1232,59.9829937212,spanish_cond2,001,1046,
images\atm.jpg,atm,z,sounds\animalfarm_english.wav,,,,,,,,,0,1,1,1,0,14,14,96,623.146539177,9.62160993367e-06,623.893000162,0.746470606653,,,,z,1,0.733746253187,2018_Nov_26_1232,59.9829937212,spanish_cond2,001,1046,
images\doll.jpg,carrot,x,sounds\animalfarm_english.wav,,,,,,,,,0,1,1,1,0,15,15,146,625.0033817,8.98016151041e-06,626.443661845,1.44029008725,,,,x,1,1.41727309988,2018_Nov_26_1232,59.9829937212,spanish_cond2,001,1046,
images\snowman.jpg,globe,x,sounds\animalfarm_english.wav,,,,,,,,,0,1,1,1,0,16,16,180,627.553687061,8.98016151041e-06,629.544442869,1.99076575111,,,,x,1,1.96739436511,2018_Nov_26_1232,59.9829937212,spanish_cond2,001,1046,
images\tie01.jpg,bench,x,sounds\animalfarm_english.wav,,,,,,,,,0,1,1,1,0,17,17,130,630.642379724,8.98027792573e-06,631.911718503,1.26934840041,,,,x,1,1.25053544657,2018_Nov_26_1232,59.9829937212,spanish_cond2,001,1046,
images\bench02.jpg,electric toothbrush,x,sounds\animalfarm_english.wav,,,,,,,,,0,1,1,1,0,18,18,172,633.019925541,8.6595537141e-06,634.512397858,1.49248161784,,,,x,1,1.48395552475,2018_Nov_26_1232,59.9829937212,spanish_cond2,001,1046,
images\tissuebox03.jpg,tissue box,z,sounds\animalfarm_english.wav,,,,,,,,,0,1,1,1,0,19,19,58,635.637395052,9.30088572204e-06,636.512908448,0.875523018534,,,,z,1,0.867127780453,2018_Nov_26_1232,59.9829937212,spanish_cond2,001,1046,
images\8ball.jpg,nail clipper,x,sounds\animalfarm_english.wav,,,,,,,,,0,1,1,1,0,20,20,206,637.627898452,9.30088572204e-06,639.613708074,1.98581956525,,,,x,1,1.96740655263,2018_Nov_26_1232,59.9829937212,spanish_cond2,001,1046,
images\dolphin01.jpg,dolphin,z,sounds\animalfarm_english.wav,,,,,,,,,0,1,1,1,0,21,21,99,640.713134686,9.621726349e-06,641.997639481,1.28451505757,,,,z,1,1.26720436895,2018_Nov_26_1232,59.9829937212,spanish_cond2,001,1046,
images\lion.jpg,lion,z,sounds\animalfarm_english.wav,,,,,,,,,0,1,1,1,0,22,22,44,643.109994426,9.30088572204e-06,644.781681152,1.67169666814,,,,z,1,1.65064603183,2018_Nov_26_1232,59.9829937212,spanish_cond2,001,1046,
images\tank.jpg,wallet,x,sounds\animalfarm_english.wav,,,,,,,,,0,1,1,1,0,23,23,237,645.885906738,9.94245056063e-06,646.632173044,0.746275928104,,,,x,1,0.733767741593,2018_Nov_26_1232,59.9829937212,spanish_cond2,001,1046,
images\butterfly.jpg,butterfly,z,sounds\animalfarm_english.wav,,,,,,,,,0,1,1,1,0,24,24,91,647.739036254,8.98016151041e-06,648.532654705,0.793628714629,,,,z,1,0.78377515031,2018_Nov_26_1232,59.9829937212,spanish_cond2,001,1046,
images\bus.jpg,microphone,x,sounds\animalfarm_english.wav,,,,,,,,,0,1,1,1,0,25,25,203,649.650920891,9.62160993367e-06,650.549826521,0.898915572325,,,,x,1,0.883781949524,2018_Nov_26_1232,59.9829937212,spanish_cond2,001,1046,
images\lily.jpg,kiwi,x,sounds\animalfarm_english.wav,,,,,,,,,0,1,1,1,0,26,26,190,651.64923838,9.94233414531e-06,653.283883555,1.63465511717,,,,x,1,1.61732839257,2018_Nov_26_1232,59.9829937212,spanish_cond2,001,1046,
images\bowlingball.jpg,bowling ball,z,sounds\animalfarm_english.wav,,,,,,,,,0,1,1,1,0,27,27,20,654.415112712,9.621726349e-06,655.401074357,0.985970946378,,,,z,1,0.967148370808,2018_Nov_26_1232,59.9829937212,spanish_cond2,001,1046,
images\cat.jpg,black olive,x,sounds\animalfarm_english.wav,,,,,,,,,0,1,1,1,0,28,28,133,656.531143781,9.62160993367e-06,657.26822106,0.737087221816,,,,x,1,0.717082141666,2018_Nov_26_1232,59.9829937212,spanish_cond2,001,1046,
images\mushroom01.jpg,shower head,x,sounds\animalfarm_english.wav,,,,,,,,,0,1,1,1,0,29,29,222,658.38413699,9.30088572204e-06,659.7690729,1.38495258754,,,,z,0,1.36740296043,2018_Nov_26_1232,59.9829937212,spanish_cond2,001,1046,
images\triangleruler02.jpg,bottle of red wine,x,sounds\animalfarm_english.wav,,,,,,,,,0,1,1,1,0,30,30,134,660.879067646,9.30088572204e-06,662.136140705,1.25708300108,,,,x,1,1.23389699287,2018_Nov_26_1232,59.9829937212,spanish_cond2,001,1046,
images\cake.jpg,cake,z,sounds\animalfarm_english.wav,,,,,,,,,0,1,1,1,0,31,31,23,663.24934781,8.98027792573e-06,664.736807872,1.48746968375,,,,z,1,1.46727954643,2018_Nov_26_1232,59.9829937212,spanish_cond2,001,1046,
images\lock02a.jpg,lock,z,sounds\animalfarm_english.wav,,,,,,,,,0,1,1,1,0,32,32,65,665.846356173,8.98027792573e-06,666.603946557,0.757600006182,,,,z,1,0.733749781153,2018_Nov_26_1232,59.9829937212,spanish_cond2,001,1046,
images\arrow02.jpg,hammer,x,sounds\animalfarm_english.wav,,,,,,,,,0,1,1,1,0,33,33,184,667.700944015,9.30100213736e-06,668.387730688,0.686796615017,,,,x,1,0.667061583255,2018_Nov_26_1232,59.9829937212,spanish_cond2,001,1046,
images\razor04a.jpg,razor,z,sounds\animalfarm_english.wav,,,,,,,,,0,1,1,1,0,34,34,36,669.48653638,9.30088572204e-06,670.704996347,1.21846958809,,,,z,1,1.20053894247,2018_Nov_26_1232,59.9829937212,spanish_cond2,001,1046,
images\birthdaycandle.jpg,birthday candle,z,sounds\animalfarm_english.wav,,,,,,,,,0,1,1,1,0,35,35,55,671.799556312,9.30100213736e-06,672.505450362,0.705903671565,,,,z,1,0.683728902019,2018_Nov_26_1232,59.9829937212,spanish_cond2,001,1046,
images\blueberry02.jpg,blueberry,z,sounds\animalfarm_english.wav,,,,,,,,,0,1,1,1,0,36,36,46,673.618053547,8.65943729877e-06,674.239228687,0.621184762567,,,,z,1,0.600369536667,2018_Nov_26_1232,59.9829937212,spanish_cond2,001,1046,
images\stapler03a.jpg,candy cane,x,sounds\animalfarm_english.wav,,,,,,,,,0,1,1,1,0,37,37,145,675.349801056,8.98016151041e-06,676.206403999,0.85661288572,,,,x,1,0.833776785876,2018_Nov_26_1232,59.9829937212,spanish_cond2,001,1046,
images\hairband.jpg,hairband,z,sounds\animalfarm_english.wav,,,,,,,,,0,1,1,1,0,38,38,66,677.31536217,9.30088572204e-06,678.340289382,1.0249374751,,,,z,1,1.00048878149,2018_Nov_26_1232,59.9829937212,spanish_cond2,001,1046,
images\beermug01b.jpg,beer mug,z,sounds\animalfarm_english.wav,,,,,,,,,0,1,1,1,0,39,39,111,679.456594348,8.98027792573e-06,680.490835348,1.03425126313,,,,x,0,1.01715481735,2018_Nov_26_1232,59.9829937212,spanish_cond2,001,1046,
images\safe.jpg,safe,z,sounds\animalfarm_english.wav,,,,,,,,,0,1,1,1,0,40,40,78,681.601422469,9.30088572204e-06,683.591624069,1.99021186295,,,,z,1,1.96739500656,2018_Nov_26_1232,59.9829937212,spanish_cond2,001,1046,
images\spoon02b.jpg,spoon,z,sounds\animalfarm_english.wav,,,,,,,,,0,1,1,1,0,41,41,38,684.682712532,9.30088572204e-06,685.442111472,0.759408882353,,,,z,1,0.750432494562,2018_Nov_26_1232,59.9829937212,spanish_cond2,001,1046,
images\dreamcatcher.jpg,dream catcher,z,sounds\animalfarm_english.wav,,,,,,,,,0,1,1,1,0,42,42,48,686.540324148,9.30100213736e-06,687.776034507,1.23572062235,,,,z,1,1.21720561979,2018_Nov_26_1232,59.9829937212,spanish_cond2,001,1046,
images\paintbrush03a.jpg,paint brush,z,sounds\animalfarm_english.wav,,,,,,,,,0,1,1,1,0,43,43,0,688.875826422,8.6595537141e-06,690.07666075,1.20084362908,,,,z,1,1.18390048866,2018_Nov_26_1232,59.9829937212,spanish_cond2,001,1046,
images\cherry01.jpg,highlighter,x,sounds\animalfarm_english.wav,,,,,,,,,0,1,1,1,0,44,44,187,691.18529018,9.30100213736e-06,691.993782148,0.808501269203,,,,x,1,0.800432847347,2018_Nov_26_1232,59.9829937212,spanish_cond2,001,1046,
images\computermouse02a.jpg,world map,x,sounds\animalfarm_english.wav,,,,,,,,,0,1,1,1,0,45,45,239,693.095517964,9.30100213736e-06,694.961207624,1.86569928145,,,,x,1,1.85069490992,2018_Nov_26_1232,59.9829937212,spanish_cond2,001,1046,
images\peach01.jpg,peach,z,sounds\animalfarm_english.wav,,,,,,,,,0,1,1,1,0,46,46,106,696.089419421,1.02631747723e-05,696.795019368,0.705610531033,,,,z,1,0.683728581411,2018_Nov_26_1232,59.9829937212,spanish_cond2,001,1046,
images\highheelshoe02a.jpg,high heel shoe,z,sounds\animalfarm_english.wav,,,,,,,,,0,1,1,1,0,47,47,75,697.901576609,8.98027792573e-06,699.562405266,1.66083795868,,,,z,1,1.65067072748,2018_Nov_26_1232,59.9829937212,spanish_cond2,001,1046,
images\parrot01.jpg,chameleon,x,sounds\animalfarm_english.wav,,,,,,,,,0,1,1,1,0,48,48,150,700.675382093,9.30088572204e-06,701.896324774,1.22095198196,,,,z,0,1.20053028292,2018_Nov_26_1232,59.9829937212,spanish_cond2,001,1046,
images\tape01a.jpg,tie,x,sounds\animalfarm_english.wav,,,,,,,,,0,1,1,1,0,49,49,232,703.02124756,8.98016151041e-06,705.447234055,2.42599579587,,,,x,1,2.41751877347,2018_Nov_26_1232,59.9829937212,spanish_cond2,001,1046,
images\panda.jpg,panda,z,sounds\animalfarm_english.wav,,,,,,,,,0,1,1,1,0,50,50,83,706.55481376,9.621726349e-06,707.314382041,0.759578865371,,,,z,1,0.750419024262,2018_Nov_26_1232,59.9829937212,spanish_cond2,001,1046,
images\djmixer01.jpg,light bulb,x,sounds\animalfarm_english.wav,,,,,,,,,0,1,1,1,0,51,51,196,708.434321758,8.98027792573e-06,711.4319529,2.99764108437,,,,None,0,,2018_Nov_26_1232,59.9829937212,spanish_cond2,001,1046,
images\hand01a.jpg,cupcake,x,sounds\animalfarm_english.wav,,,,,,,,,0,1,1,1,0,52,52,163,712.543308794,8.98016151041e-06,713.399271254,0.855971760931,,,,x,1,0.833774220198,2018_Nov_26_1232,59.9829937212,spanish_cond2,001,1046,
images\seagull.jpg,seagull,z,sounds\animalfarm_english.wav,,,,,,,,,0,1,1,1,0,53,53,50,714.506180968,9.30088572204e-06,715.216428509,0.710257161874,,,,z,1,0.700333359302,2018_Nov_26_1232,59.9829937212,spanish_cond2,001,1046,
images\rubberglove02a.jpg,lady bug,x,sounds\animalfarm_english.wav,,,,,,,,,0,1,1,1,0,54,54,192,716.320422854,9.30100213736e-06,717.066891536,0.746478624758,,,,x,1,0.733770628111,2018_Nov_26_1232,59.9829937212,spanish_cond2,001,1046,
images\cactus.jpg,cactus,z,sounds\animalfarm_english.wav,,,,,,,,,0,1,1,1,0,55,55,70,718.178220489,9.621726349e-06,718.834212648,0.65600274282,,,,z,1,0.633881533984,2018_Nov_26_1232,59.9829937212,spanish_cond2,001,1046,
images\ceilingfan02.jpg,paper clip,x,sounds\animalfarm_english.wav,,,,,,,,,0,1,1,1,0,56,56,208,719.931701133,9.30100213736e-06,721.818107236,1.88641572464,,,,x,1,1.86738724506,2018_Nov_26_1232,59.9829937212,spanish_cond2,001,1046,
images\lip.jpg,boxing glove,x,sounds\animalfarm_english.wav,,,,,,,,,0,1,1,1,0,57,57,136,722.921091945,9.30088572204e-06,724.852211608,1.93112992542,,,,x,1,1.91740010609,2018_Nov_26_1232,59.9829937212,spanish_cond2,001,1046,
images\medal01.jpg,medal,z,sounds\animalfarm_english.wav,,,,,,,,,0,1,1,1,0,58,58,115,725.952838685,9.621726349e-06,727.119475631,1.1666465681,,,,z,1,1.15054853202,2018_Nov_26_1232,59.9829937212,spanish_cond2,001,1046,
images\crocodile.jpg,triangle ruler,x,sounds\animalfarm_english.wav,,,,,,,,,0,1,1,1,0,59,59,235,728.216444224,9.30088572204e-06,730.537003385,2.32057070686,,,,x,1,2.30081931828,2018_Nov_26_1232,59.9829937212,spanish_cond2,001,1046,
images\treadmill.jpg,lily,x,sounds\animalfarm_english.wav,,,,,,,,,0,1,1,1,0,60,60,199,731.642388063,9.62160993367e-06,732.35413434,0.711756219855,,,,x,1,0.700413539889,2018_Nov_26_1232,59.9829937212,spanish_cond2,001,1046,
images\pingpongpaddle01c (1).jpg,ping pong paddle,z,sounds\animalfarm_english.wav,,,,,,,,,0,1,1,1,0,61,61,10,733.464462639,9.30088572204e-06,734.287959299,0.823506923392,,,,z,1,0.800436375313,2018_Nov_26_1232,59.9829937212,spanish_cond2,001,1046,
images\lipstick04.jpg,lipstick,z,sounds\animalfarm_english.wav,,,,,,,,,0,1,1,1,0,62,62,56,735.385776524,9.30088572204e-06,736.171784867,0.786018284969,,,,z,1,0.767102058511,2018_Nov_26_1232,59.9829937212,spanish_cond2,001,1046,
images\key03b.jpg,cigar,x,sounds\animalfarm_english.wav,,,,,,,,,0,1,1,1,0,63,63,153,737.271237457,9.30100213736e-06,738.072266208,0.801038692705,,,,x,1,0.78377482947,2018_Nov_26_1232,59.9829937212,spanish_cond2,001,1046,
images\computerkeyboard01a.jpg,computer keyboard,z,sounds\animalfarm_english.wav,,,,,,,,,0,1,1,1,0,64,64,61,739.187769367,9.30100213736e-06,740.056106593,0.868347168202,,,,z,1,0.850455971551,2018_Nov_26_1232,59.9829937212,spanish_cond2,001,1046,
images\broom02.jpg,broom,z,sounds\animalfarm_english.wav,,,,,,,,,0,1,1,1,0,65,65,116,741.148048819,9.62160993367e-06,742.173312469,1.02527359256,,,,z,1,1.01716123184,2018_Nov_26_1232,59.9829937212,spanish_cond2,001,1046,
images\mattress.jpg,cat,x,sounds\animalfarm_english.wav,,,,,,,,,0,1,1,1,0,66,66,147,743.275908142,9.30100213736e-06,744.190494548,0.914596027229,,,,x,1,0.900462738704,2018_Nov_26_1232,59.9829937212,spanish_cond2,001,1046,
images\headphones02b.jpg,headphones,z,sounds\animalfarm_english.wav,,,,,,,,,0,1,1,1,0,67,67,101,745.296936007,8.6595537141e-06,746.874538079,1.5776116933,,,,z,1,1.56732066313,2018_Nov_26_1232,59.9829937212,spanish_cond2,001,1046,
images\licenseplate.jpg,license plate,z,sounds\animalfarm_english.wav,,,,,,,,,0,1,1,1,0,68,68,40,747.989617243,9.30100213736e-06,748.72499373,0.735386429238,,,,z,1,0.717083745287,2018_Nov_26_1232,59.9829937212,spanish_cond2,001,1046,
images\bullet (2).jpg,rubber glove,x,sounds\animalfarm_english.wav,,,,,,,,,0,1,1,1,0,69,69,217,749.827868111,8.98027792573e-06,750.542124685,0.714265875285,,,,x,1,0.700418671477,2018_Nov_26_1232,59.9829937212,spanish_cond2,001,1046,
images\hairdryer03a.jpg,hairdryer,z,sounds\animalfarm_english.wav,,,,,,,,,0,1,1,1,0,70,70,119,751.639601624,8.98027792573e-06,752.259244993,0.619653632282,,,,z,1,0.600400005351,2018_Nov_26_1232,59.9829937212,spanish_cond2,001,1046,
images\chessknight02b (1).jpg,cockroach,x,sounds\animalfarm_english.wav,,,,,,,,,0,1,1,1,0,71,71,155,753.366365743,9.30100213736e-06,754.19305135,0.826695228112,,,,x,1,0.817097921157,2018_Nov_26_1232,59.9829937212,spanish_cond2,001,1046,
images\straw.jpg,straw,z,sounds\animalfarm_english.wav,,,,,,,,,0,1,1,1,0,72,72,109,755.282282827,9.30100213736e-06,755.843504948,0.561232383479,,,,z,1,0.550398690393,2018_Nov_26_1232,59.9829937212,spanish_cond2,001,1046,
images\aquarium.jpg,computer mouse,x,sounds\animalfarm_english.wav,,,,,,,,,0,1,1,1,0,73,73,159,756.979059051,9.30100213736e-06,757.944016244,0.964967135573,,,,x,1,0.950462450157,2018_Nov_26_1232,59.9829937212,spanish_cond2,001,1046,
images\baseball01a.jpg,baseball,z,sounds\animalfarm_english.wav,,,,,,,,,0,1,1,1,0,74,74,74,759.075236741,8.98027792573e-06,759.861022182,0.785795382806,,,,z,1,0.766932716942,2018_Nov_26_1232,59.9829937212,spanish_cond2,001,1046,
images\plant01.jpg,plant,z,sounds\animalfarm_english.wav,,,,,,,,,0,1,1,1,0,75,75,47,760.971378383,8.98027792573e-06,761.644996501,0.673627739772,,,,z,1,0.650429543923,2018_Nov_26_1232,59.9829937212,spanish_cond2,001,1046,
images\sock03.jpg,sock,z,sounds\animalfarm_english.wav,,,,,,,,,0,1,1,1,0,76,76,90,762.749341396,9.62160993367e-06,763.328740477,0.579409344122,,,,z,1,0.567051255959,2018_Nov_26_1232,59.9829937212,spanish_cond2,001,1046,
images\backpack01b.jpg,swallow,x,sounds\animalfarm_english.wav,,,,,,,,,0,1,1,1,0,77,77,228,764.459078987,9.62160993367e-06,765.495953441,1.03688439669,,,,x,1,1.0171567417,2018_Nov_26_1232,59.9829937212,spanish_cond2,001,1046,
images\ashtray02b.jpg,ashtray,z,sounds\animalfarm_english.wav,,,,,,,,,0,1,1,1,0,78,78,43,766.608519101,9.621726349e-06,767.446470735,0.837961576181,,,,z,1,0.817122295965,2018_Nov_26_1232,59.9829937212,spanish_cond2,001,1046,
images\carrot02.jpg,corkscrew,x,sounds\animalfarm_english.wav,,,,,,,,,0,1,1,1,0,79,79,161,768.546847969,9.30100213736e-06,769.19690804,0.650070334552,,,,x,1,0.633730473579,2018_Nov_26_1232,59.9829937212,spanish_cond2,001,1046,
images\egg01b (1).jpg,egg,z,sounds\animalfarm_english.wav,,,,,,,,,0,1,1,1,0,80,80,19,770.307603245,9.30088572204e-06,770.997363018,0.689769393881,,,,z,1,0.667069280636,2018_Nov_26_1232,59.9829937212,spanish_cond2,001,1046,
images\eyedrops.jpg,bicycle,x,sounds\animalfarm_english.wav,,,,,,,,,0,1,1,1,0,81,81,131,772.096921447,8.98027792573e-06,772.831166424,0.734254919458,,,,x,1,0.717078934424,2018_Nov_26_1232,59.9829937212,spanish_cond2,001,1046,
images\donut.jpg,rhinoceros,x,sounds\animalfarm_english.wav,,,,,,,,,0,1,1,1,0,82,82,216,773.955310816,9.30100213736e-06,775.448503476,1.49320196104,,,,x,1,1.48393243272,2018_Nov_26_1232,59.9829937212,spanish_cond2,001,1046,
images\ruler02b.jpg,watermelon,x,sounds\animalfarm_english.wav,,,,,,,,,0,1,1,1,0,83,83,238,776.549092066,9.621726349e-06,777.899141682,1.35005987901,,,,x,1,1.33390475425,2018_Nov_26_1232,59.9829937212,spanish_cond2,001,1046,
images\flamingo.jpg,flamingo,z,sounds\animalfarm_english.wav,,,,,,,,,0,1,1,1,0,84,84,52,778.995450548,9.62160993367e-06,779.932987872,0.937547587208,,,,z,1,0.917130057584,2018_Nov_26_1232,59.9829937212,spanish_cond2,001,1046,
images\printer03a.jpg,printer,z,sounds\animalfarm_english.wav,,,,,,,,,0,1,1,1,0,85,85,72,781.040172446,9.621726349e-06,781.60008249,0.5599203069,,,,z,1,0.550371428952,2018_Nov_26_1232,59.9829937212,spanish_cond2,001,1046,
images\puma.jpg,puma,z,sounds\animalfarm_english.wav,,,,,,,,,0,1,1,1,0,86,86,4,782.696950697,9.30088572204e-06,783.667275185,0.970334430342,,,,z,1,0.950472713215,2018_Nov_26_1232,59.9829937212,spanish_cond2,001,1046,
images\pineapple01a.jpg,pineapple,z,sounds\animalfarm_english.wav,,,,,,,,,0,1,1,1,0,87,87,51,784.778586498,9.30088572204e-06,785.484411913,0.705835357541,,,,z,1,0.683748786803,2018_Nov_26_1232,59.9829937212,spanish_cond2,001,1046,
images\dresser02.jpg,dresser,z,sounds\animalfarm_english.wav,,,,,,,,,0,1,1,1,0,88,88,87,786.604989227,9.621726349e-06,787.201521316,0.596542031737,,,,z,1,0.583715688204,2018_Nov_26_1232,59.9829937212,spanish_cond2,001,1046,
images\camera01a.jpg,bull,x,sounds\animalfarm_english.wav,,,,,,,,,0,1,1,1,0,89,89,138,788.310601682,8.98016151041e-06,789.702157951,1.39156589017,,,,x,1,1.36724259914,2018_Nov_26_1232,59.9829937212,spanish_cond2,001,1046,
images\electricguitar02.jpg,electric guitar,z,sounds\animalfarm_english.wav,,,,,,,,,0,1,1,1,0,90,90,100,790.802447307,9.30088572204e-06,791.902718061,1.10028069653,,,,z,1,1.08384109079,2018_Nov_26_1232,59.9829937212,spanish_cond2,001,1046,
images\button07.jpg,radish,x,sounds\animalfarm_english.wav,,,,,,,,,0,1,1,1,0,91,91,215,793.012756105,9.62160993367e-06,794.603422176,1.59067633364,,,,x,1,1.56728987372,2018_Nov_26_1232,59.9829937212,spanish_cond2,001,1046,
images\nametag01a.jpg,name tag,z,sounds\animalfarm_english.wav,,,,,,,,,0,1,1,1,0,92,92,108,795.723279467,9.30100213736e-06,796.58709354,0.863824657048,,,,z,1,0.850284384796,2018_Nov_26_1232,59.9829937212,spanish_cond2,001,1046,
images\corkscrew02a.jpg,masquerade mask,x,sounds\animalfarm_english.wav,,,,,,,,,0,1,1,1,0,93,93,201,797.690545864,9.62160993367e-06,798.637769976,0.947234055027,,,,x,1,0.933795452002,2018_Nov_26_1232,59.9829937212,spanish_cond2,001,1046,
images\fryingpan01.jpg,frying pan,z,sounds\animalfarm_english.wav,,,,,,,,,0,1,1,1,0,94,94,45,799.736360464,9.30100213736e-06,800.338214626,0.601863783901,,,,z,1,0.583709594561,2018_Nov_26_1232,59.9829937212,spanish_cond2,001,1046,
images\binder03b.jpg,dj mixer,x,sounds\animalfarm_english.wav,,,,,,,,,0,1,1,1,0,95,95,167,801.449051591,9.30088572204e-06,802.438779804,0.98973847623,,,,x,1,0.967164407019,2018_Nov_26_1232,59.9829937212,spanish_cond2,001,1046,
images\pen03c.jpg,pepper,x,sounds\animalfarm_english.wav,,,,,,,,,0,1,1,1,0,96,96,211,803.53120119,9.30100213736e-06,805.106103418,1.57491217018,,,,x,1,1.55062576209,2018_Nov_26_1232,59.9829937212,spanish_cond2,001,1046,
images\weight01.jpg,weight,z,sounds\animalfarm_english.wav,,,,,,,,,0,1,1,1,0,97,97,67,806.208987741,9.30088572204e-06,807.156630718,0.947652598261,,,,z,1,0.93380346999,2018_Nov_26_1232,59.9829937212,spanish_cond2,001,1046,
images\squirrel.jpg,binder,x,sounds\animalfarm_english.wav,,,,,,,,,0,1,1,1,0,98,98,132,808.257878714,9.62160993367e-06,810.457480505,2.19961205381,,,,x,1,2.1841294847,2018_Nov_26_1232,59.9829937212,spanish_cond2,001,1046,
images\tulip02.jpg,sport shorts,x,sounds\animalfarm_english.wav,,,,,,,,,0,1,1,1,0,99,99,225,811.551193762,8.65943729877e-06,812.674723008,1.12353886745,,,,x,1,1.100527653,2018_Nov_26_1232,59.9829937212,spanish_cond2,001,1046,
images\electrictoothbrush01a.jpg,banjo,x,sounds\animalfarm_english.wav,,,,,,,,,0,1,1,1,0,100,100,127,813.767547863,9.30100213736e-06,814.608536741,0.840999141103,,,,x,1,0.817104656366,2018_Nov_26_1232,59.9829937212,spanish_cond2,001,1046,
images\showerhead01.jpg,skateboard,x,sounds\animalfarm_english.wav,,,,,,,,,0,1,1,1,0,101,101,223,815.71460071,9.62160993367e-06,816.542372604,0.827782478184,,,,x,1,0.817109146388,2018_Nov_26_1232,59.9829937212,spanish_cond2,001,1046,
images\watermelon01.jpg,orange,x,sounds\animalfarm_english.wav,,,,,,,,,0,1,1,1,0,102,102,207,817.669556806,6.1257975176e-05,818.676254138,1.00672491419,,,,x,1,0.983818255481,2018_Nov_26_1232,59.9829937212,spanish_cond2,001,1046,
images\notebook02b.jpg,notebook,z,sounds\animalfarm_english.wav,,,,,,,,,0,1,1,1,0,103,103,7,819.781206803,9.94233414531e-06,820.843477366,1.06228082604,,,,z,1,1.05050805688,2018_Nov_26_1232,59.9829937212,spanish_cond2,001,1046,
images\ostrich.jpg,ostrich,z,sounds\animalfarm_english.wav,,,,,,,,,0,1,1,1,0,104,104,76,821.942622062,9.30088572204e-06,823.527492032,1.58487959101,,,,z,1,1.56728794938,2018_Nov_26_1232,59.9829937212,spanish_cond2,001,1046,
images\dice05a.jpg,band aid,x,sounds\animalfarm_english.wav,,,,,,,,,0,1,1,1,0,105,105,126,824.63842842,8.98016151041e-06,825.561352334,0.922933856025,,,,x,1,0.900466908119,2018_Nov_26_1232,59.9829937212,spanish_cond2,001,1046,
images\scissors04a.jpg,leek,x,sounds\animalfarm_english.wav,,,,,,,,,0,1,1,1,0,106,106,194,826.654329532,9.621726349e-06,827.461859332,0.80753974244,,,,x,1,0.783791186521,2018_Nov_26_1232,59.9829937212,spanish_cond2,001,1046,
images\desktopcomputer.jpg,desktop computer,z,sounds\animalfarm_english.wav,,,,,,,,,0,1,1,1,0,107,107,16,828.596104566,9.30100213736e-06,829.395658954,0.799564330257,,,,z,1,0.783734418452,2018_Nov_26_1232,59.9829937212,spanish_cond2,001,1046,
images\sunglasses03a.jpg,sun glasses,z,sounds\animalfarm_english.wav,,,,,,,,,0,1,1,1,0,108,108,17,830.502906069,9.62160993367e-06,831.2794749,0.776578452904,,,,z,1,0.767091153888,2018_Nov_26_1232,59.9829937212,spanish_cond2,001,1046,
images\charcoalbarbecue.jpg,charcoal barbecue,z,sounds\animalfarm_english.wav,,,,,,,,,0,1,1,1,0,109,109,77,832.395146759,9.30088572204e-06,833.313337447,0.918200309272,,,,z,1,0.900467549567,2018_Nov_26_1232,59.9829937212,spanish_cond2,001,1046,
images\scooter.jpg,pen,x,sounds\animalfarm_english.wav,,,,,,,,,0,1,1,1,0,110,110,212,834.404331617,9.621726349e-06,836.030712729,1.62639169605,,,,x,1,1.61733320332,2018_Nov_26_1232,59.9829937212,spanish_cond2,001,1046,
images\ladybug03.jpg,giraffe,x,sounds\animalfarm_english.wav,,,,,,,,,0,1,1,1,0,111,111,178,837.131802289,9.30088572204e-06,838.814772361,1.68298001448,,,,x,1,1.6673572897,2018_Nov_26_1232,59.9829937212,spanish_cond2,001,1046,
images\basketball01.jpg,basket ball,z,sounds\animalfarm_english.wav,,,,,,,,,0,1,1,1,0,112,112,33,839.952247272,8.98016151041e-06,840.665219352,0.712982022204,,,,z,1,0.700415784842,2018_Nov_26_1232,59.9829937212,spanish_cond2,001,1046,
images\skateboard.jpg,key,x,sounds\animalfarm_english.wav,,,,,,,,,0,1,1,1,0,113,113,189,841.754585212,8.98016151041e-06,842.515697133,0.761121221003,,,,x,1,0.750426400802,2018_Nov_26_1232,59.9829937212,spanish_cond2,001,1046,
images\50dollarbill.jpg,cherry,x,sounds\animalfarm_english.wav,,,,,,,,,0,1,1,1,0,114,114,151,843.63600087,1.05838989839e-05,844.616230559,0.980240272707,,,,x,1,0.967128486023,2018_Nov_26_1232,59.9829937212,spanish_cond2,001,1046,
images\drink.jpg,drink,z,sounds\animalfarm_english.wav,,,,,,,,,0,1,1,1,0,115,115,117,845.715134713,8.98016151041e-06,846.600068057,0.884942645091,,,,z,1,0.867113989312,2018_Nov_26_1232,59.9829937212,spanish_cond2,001,1046,
images\microphone01.jpg,diaper,x,sounds\animalfarm_english.wav,,,,,,,,,0,1,1,1,0,116,116,164,847.697591501,9.621726349e-06,848.433866973,0.736285415012,,,,x,1,0.717069312697,2018_Nov_26_1232,59.9829937212,spanish_cond2,001,1046,
images\ant.jpg,ant,z,sounds\animalfarm_english.wav,,,,,,,,,0,1,1,1,0,117,117,98,849.527164894,8.98016151041e-06,850.417740393,0.890584799345,,,,z,1,0.867146382341,2018_Nov_26_1232,59.9829937212,spanish_cond2,001,1046,
images\candycane01a.jpg,lip,x,sounds\animalfarm_english.wav,,,,,,,,,0,1,1,1,0,118,118,200,851.509969666,9.621726349e-06,852.71864342,1.20868978999,,,,x,1,1.18415450118,2018_Nov_26_1232,59.9829937212,spanish_cond2,001,1046,
images\graduationcap.jpg,graduation cap,z,sounds\animalfarm_english.wav,,,,,,,,,0,1,1,1,0,119,119,35,853.818928286,9.30100213736e-06,855.83577104,2.01685269654,,,,z,1,2.00074247317,2018_Nov_26_1232,59.9829937212,spanish_cond2,001,1046,
images\diaper01a.jpg,camera,x,sounds\animalfarm_english.wav,,,,,,,,,0,1,1,1,0,120,120,143,856.954332611,9.30100213736e-06,857.686248821,0.731928076013,,,,x,1,0.717071237043,2018_Nov_26_1232,59.9829937212,spanish_cond2,001,1046,
images\boxingglove02a.jpg,bracelet,x,sounds\animalfarm_english.wav,,,,,,,,,0,1,1,1,0,121,121,135,858.797529345,3.17515805364e-05,860.070206847,1.2727018774,,,,x,1,1.25056912249,2018_Nov_26_1232,59.9829937212,spanish_cond2,001,1046,
images\cigar.jpg,crocodile,x,sounds\animalfarm_english.wav,,,,,,,,,0,1,1,1,0,122,122,162,861.166901222,9.30100213736e-06,861.887319521,0.720427921158,,,,x,1,0.700408729143,2018_Nov_26_1232,59.9829937212,spanish_cond2,001,1046,
images\chameleon.jpg,50 dollar bill,x,sounds\animalfarm_english.wav,,,,,,,,,0,1,1,1,0,123,123,120,862.995906295,9.94233414531e-06,863.821156667,0.825260635233,,,,x,1,0.817115560872,2018_Nov_26_1232,59.9829937212,spanish_cond2,001,1046,
images\glasses01b.jpg,calculator,x,sounds\animalfarm_english.wav,,,,,,,,,0,1,1,1,0,124,124,142,864.912260524,9.30100213736e-06,865.638285057,0.726034475141,,,,z,0,0.717083103838,2018_Nov_26_1232,59.9829937212,spanish_cond2,001,1046,
images\dragonfly02.jpg,dragon fly,z,sounds\animalfarm_english.wav,,,,,,,,,0,1,1,1,0,125,125,29,866.734102576,9.30088572204e-06,867.972211621,1.23811898683,,,,z,1,1.21720690269,2018_Nov_26_1232,59.9829937212,spanish_cond2,001,1046,
images\swallow.jpg,mattress,x,sounds\animalfarm_english.wav,,,,,,,,,0,1,1,1,0,126,126,202,869.072179933,9.62160993367e-06,869.856027246,0.783857255243,,,,x,1,0.767084739404,2018_Nov_26_1232,59.9829937212,spanish_cond2,001,1046,
images\marker01a.jpg,marker,z,sounds\animalfarm_english.wav,,,,,,,,,0,1,1,1,0,127,127,95,870.952935222,9.621726349e-06,871.67316205,0.720237091067,,,,z,1,0.700410974096,2018_Nov_26_1232,59.9829937212,spanish_cond2,001,1046,
images\toothbrush03a.jpg,parrot,x,sounds\animalfarm_english.wav,,,,,,,,,0,1,1,1,0,128,128,210,872.76414724,9.30100213736e-06,873.490300382,0.726163405692,,,,x,1,0.71708983893,2018_Nov_26_1232,59.9829937212,spanish_cond2,001,1046,
images\raisin.jpg,ruler,x,sounds\animalfarm_english.wav,,,,,,,,,0,1,1,1,0,129,129,218,874.593866883,9.30088572204e-06,875.590841827,0.99698488554,,,,x,1,0.983730698121,2018_Nov_26_1232,59.9829937212,spanish_cond2,001,1046,
images\elbow.jpg,elbow,z,sounds\animalfarm_english.wav,,,,,,,,,0,1,1,1,0,130,130,105,876.700996935,8.6595537141e-06,878.541594531,1.84060721786,,,,x,0,1.8173711769,2018_Nov_26_1232,59.9829937212,spanish_cond2,001,1046,
images\screw03c.jpg,screw,z,sounds\animalfarm_english.wav,,,,,,,,,0,1,1,1,0,131,131,84,879.634130736,9.30100213736e-06,880.908861505,1.27474039106,,,,z,1,1.25054474757,2018_Nov_26_1232,59.9829937212,spanish_cond2,001,1046,
images\redfox.jpg,red fox,z,sounds\animalfarm_english.wav,,,,,,,,,0,1,1,1,0,132,132,1,882.019719316,9.30100213736e-06,882.742669722,0.722960027051,,,,z,1,0.700418671477,2018_Nov_26_1232,59.9829937212,spanish_cond2,001,1046,
images\grandpiano.jpg,tulip,x,sounds\animalfarm_english.wav,,,,,,,,,0,1,1,1,0,133,133,236,883.855222873,9.30100213736e-06,884.993240127,1.1380265546,,,,x,1,1.11718021857,2018_Nov_26_1232,59.9829937212,spanish_cond2,001,1046,
images\aloe02.jpg,broad sword,x,sounds\animalfarm_english.wav,,,,,,,,,0,1,1,1,0,134,134,137,886.113520451,9.30088572204e-06,887.127121982,1.01361147256,,,,x,1,1.00044355961,2018_Nov_26_1232,59.9829937212,spanish_cond2,001,1046,
images\bowtie.jpg,bowtie,z,sounds\animalfarm_english.wav,,,,,,,,,0,1,1,1,0,135,135,89,888.2358348,9.30100213736e-06,888.910916055,0.675091518206,,,,z,1,0.667075374397,2018_Nov_26_1232,59.9829937212,spanish_cond2,001,1046,
images\banjo.jpg,knife,x,sounds\animalfarm_english.wav,,,,,,,,,0,1,1,1,0,136,136,191,890.005989818,9.621726349e-06,891.478233831,1.47225427674,,,,x,1,1.45059458783,2018_Nov_26_1232,59.9829937212,spanish_cond2,001,1046,
images\lollipop03b.jpg,lollipop,z,sounds\animalfarm_english.wav,,,,,,,,,0,1,1,1,0,137,137,42,892.569749176,8.98027792573e-06,894.195748307,1.6260087532,,,,z,1,1.61746341677,2018_Nov_26_1232,59.9829937212,spanish_cond2,001,1046,
images\honeycomb.jpg,honey comb,z,sounds\animalfarm_english.wav,,,,,,,,,0,1,1,1,0,138,138,59,895.306568915,9.621726349e-06,896.396168582,1.08960960992,,,,z,1,1.06717313058,2018_Nov_26_1232,59.9829937212,spanish_cond2,001,1046,
images\croissant02b.jpg,croissant,z,sounds\animalfarm_english.wav,,,,,,,,,0,1,1,1,0,139,139,39,897.505923428,9.621726349e-06,898.129939531,0.624026365927,,,,z,1,0.600381724187,2018_Nov_26_1232,59.9829937212,spanish_cond2,001,1046,
images\kiwi03.jpg,backpack,x,sounds\animalfarm_english.wav,,,,,,,,,0,1,1,1,0,140,140,125,899.257303338,9.30088572204e-06,900.947331876,1.69003848021,,,,x,1,1.66731591639,2018_Nov_26_1232,59.9829937212,spanish_cond2,001,1046,
images\lettuce.jpg,mushroom,x,sounds\animalfarm_english.wav,,,,,,,,,0,1,1,1,0,141,141,205,902.068890601,9.621726349e-06,903.364618446,1.29573778738,,,,x,1,1.28389830783,2018_Nov_26_1232,59.9829937212,spanish_cond2,001,1046,
images\lightswitch02a.jpg,fork,x,sounds\animalfarm_english.wav,,,,,,,,,0,1,1,1,0,142,142,177,904.475146234,9.30088572204e-06,906.73214713,2.25701083848,,,,x,1,2.23413144122,2018_Nov_26_1232,59.9829937212,spanish_cond2,001,1046,
images\ear.jpg,bullet,x,sounds\animalfarm_english.wav,,,,,,,,,0,1,1,1,0,143,143,139,907.834032402,9.30088572204e-06,908.61596917,0.781947030686,,,,x,1,0.767091474612,2018_Nov_26_1232,59.9829937212,spanish_cond2,001,1046,
images\candy.jpg,candy,z,sounds\animalfarm_english.wav,,,,,,,,,0,1,1,1,0,144,144,31,909.716505803,9.30100213736e-06,910.483104968,0.76660910761,,,,z,1,0.750423514401,2018_Nov_26_1232,59.9829937212,spanish_cond2,001,1046,
images\cockroach02.jpg,belt,x,sounds\animalfarm_english.wav,,,,,,,,,0,1,1,1,0,145,145,129,911.580374399,8.98027792573e-06,913.200473836,1.62010905857,,,,x,1,1.60064215108,2018_Nov_26_1232,59.9829937212,spanish_cond2,001,1046,
images\masquerademask02b.jpg,mirror,x,sounds\animalfarm_english.wav,,,,,,,,,0,1,1,1,0,146,146,204,914.304077541,8.98016151041e-06,915.267663644,0.96359572513,,,,x,1,0.950466940296,2018_Nov_26_1232,59.9829937212,spanish_cond2,001,1046,
images\flower01.jpg,bus,x,sounds\animalfarm_english.wav,,,,,,,,,0,1,1,1,0,147,147,140,916.380137898,9.621726349e-06,917.151482797,0.771355162608,,,,x,1,0.750420948607,2018_Nov_26_1232,59.9829937212,spanish_cond2,001,1046,
images\fork01.jpg,cooking pot,x,sounds\animalfarm_english.wav,,,,,,,,,0,1,1,1,0,148,148,160,918.243777498,9.30088572204e-06,919.068658718,0.824891483411,,,,x,1,0.800454656594,2018_Nov_26_1232,59.9829937212,spanish_cond2,001,1046,
images\giraffe.jpg,lettuce,x,sounds\animalfarm_english.wav,,,,,,,,,0,1,1,1,0,149,149,195,920.167941005,9.621726349e-06,920.902438711,0.734508290421,,,,x,1,0.717070274753,2018_Nov_26_1232,59.9829937212,spanish_cond2,001,1046,
images\feather03b.jpg,feather,z,sounds\animalfarm_english.wav,,,,,,,,,0,1,1,1,0,150,150,114,922.001397068,9.30088572204e-06,922.836272009,0.834884882905,,,,z,1,0.817078998545,2018_Nov_26_1232,59.9829937212,spanish_cond2,001,1046,
images\tent.jpg,tent,z,sounds\animalfarm_english.wav,,,,,,,,,0,1,1,1,0,151,151,11,923.960785873,9.30088572204e-06,924.653461657,0.692704969086,,,,z,1,0.683748466196,2018_Nov_26_1232,59.9829937212,spanish_cond2,001,1046,
images\fireextinguisher02.jpg,fire extinguisher,z,sounds\animalfarm_english.wav,,,,,,,,,0,1,1,1,0,152,152,175,925.762754662,9.30100213736e-06,926.454056148,0.691311108181,,,,z,1,0.667261072784,2018_Nov_26_1232,59.9829937212,spanish_cond2,001,1046,
images\barrel01.jpg,barrel,z,sounds\animalfarm_english.wav,,,,,,,,,0,1,1,1,0,153,153,9,927.582210857,9.30100213736e-06,928.371035145,0.788833909901,,,,z,1,0.767097247648,2018_Nov_26_1232,59.9829937212,spanish_cond2,001,1046,
images\worldmap.jpg,scooter,x,sounds\animalfarm_english.wav,,,,,,,,,0,1,1,1,0,154,154,220,929.49990667,9.30088572204e-06,930.521582715,1.02168598806,,,,x,1,1.00049134728,2018_Nov_26_1232,59.9829937212,spanish_cond2,001,1046,
images\belt02a.jpg,snowman,x,sounds\animalfarm_english.wav,,,,,,,,,0,1,1,1,0,155,155,224,931.623392939,9.62160993367e-06,933.822427371,2.19904469524,,,,x,1,2.18412307033,2018_Nov_26_1232,59.9829937212,spanish_cond2,001,1046,
images\thumbtack02a.jpg,thumb tack,z,sounds\animalfarm_english.wav,,,,,,,,,0,1,1,1,0,156,156,60,934.931042689,8.98016151041e-06,935.973000278,1.04196721059,,,,z,1,1.03385966073,2018_Nov_26_1232,59.9829937212,spanish_cond2,001,1046,
images\ladder.jpg,ladder,z,sounds\animalfarm_english.wav,,,,,,,,,0,1,1,1,0,157,157,113,937.065012101,9.30100213736e-06,937.690076005,0.62507384643,,,,z,1,0.617039742065,2018_Nov_26_1232,59.9829937212,spanish_cond2,001,1046,
images\bull.jpg,button,x,sounds\animalfarm_english.wav,,,,,,,,,0,1,1,1,0,158,158,141,938.794724304,9.30100213736e-06,939.65725292,0.862538879621,,,,x,1,0.850454688654,2018_Nov_26_1232,59.9829937212,spanish_cond2,001,1046,
images\mailbox01.jpg,mail box,z,sounds\animalfarm_english.wav,,,,,,,,,0,1,1,1,0,159,159,73,940.775439887,9.30088572204e-06,941.607747763,0.832317497465,,,,z,1,0.817105297814,2018_Nov_26_1232,59.9829937212,spanish_cond2,001,1046,
images\cocktailshrimp01.jpg,cocktail shrimp,z,sounds\animalfarm_english.wav,,,,,,,,,0,1,1,1,0,160,160,30,942.720576736,8.98016151041e-06,944.058381479,1.33781436435,,,,z,1,1.3172387185,2018_Nov_26_1232,59.9829937212,spanish_cond2,001,1046,
images\paperclip04.jpg,eye drops,x,sounds\animalfarm_english.wav,,,,,,,,,0,1,1,1,0,161,161,174,945.163873599,9.62160993367e-06,945.892179754,0.728316096589,,,,x,1,0.717075727182,2018_Nov_26_1232,59.9829937212,spanish_cond2,001,1046,
images\candle08a.jpg,screw driver,x,sounds\animalfarm_english.wav,,,,,,,,,0,1,1,1,0,162,162,221,947.004578317,8.98027792573e-06,948.326148717,1.32157970057,,,,x,1,1.30056755093,2018_Nov_26_1232,59.9829937212,spanish_cond2,001,1046,
images\toucan.jpg,toucan,z,sounds\animalfarm_english.wav,,,,,,,,,0,1,1,1,0,163,163,81,949.425111563,9.621726349e-06,950.193285798,0.76818449772,,,,z,1,0.750409081811,2018_Nov_26_1232,59.9829937212,spanish_cond2,001,1046,
images\lamp04b.jpg,parking meter,x,sounds\animalfarm_english.wav,,,,,,,,,0,1,1,1,0,164,164,209,951.313570613,9.621726349e-06,952.760612234,1.44705220533,,,,x,1,1.43393528718,2018_Nov_26_1232,59.9829937212,spanish_cond2,001,1046,
images\leek.jpg,donut,x,sounds\animalfarm_english.wav,,,,,,,,,0,1,1,1,0,165,165,169,953.861426934,9.621726349e-06,954.827955989,0.966539318324,,,,x,1,0.950574382325,2018_Nov_26_1232,59.9829937212,spanish_cond2,001,1046,
images\pipe.jpg,icecube,x,sounds\animalfarm_english.wav,,,,,,,,,0,1,1,1,0,166,166,188,955.935170711,9.62160993367e-06,957.26177325,1.32661280234,,,,x,1,1.31724513287,2018_Nov_26_1232,59.9829937212,spanish_cond2,001,1046,
images\cloud.jpg,ceiling fan,x,sounds\animalfarm_english.wav,,,,,,,,,0,1,1,1,0,167,167,149,958.365862529,8.98027792573e-06,959.062236887,0.696383979521,,,,x,1,0.683750390541,2018_Nov_26_1232,59.9829937212,spanish_cond2,001,1046,
images\plate01b.jpg,plate,z,sounds\animalfarm_english.wav,,,,,,,,,0,1,1,1,0,168,168,3,960.160112484,8.98027792573e-06,961.046060595,0.885957732564,,,,z,1,0.867115272209,2018_Nov_26_1232,59.9829937212,spanish_cond2,001,1046,
images\nailclipper03a.jpg,aquarium,x,sounds\animalfarm_english.wav,,,,,,,,,0,1,1,1,0,169,169,123,962.1444548,9.94245056063e-06,963.013241359,0.868796821567,,,,x,1,0.850454047206,2018_Nov_26_1232,59.9829937212,spanish_cond2,001,1046,
images\bicycle.jpg,hand bag,x,sounds\animalfarm_english.wav,,,,,,,,,0,1,1,1,0,170,170,186,964.122078296,9.30088572204e-06,965.747272414,1.62520405976,,,,x,1,1.60064760328,2018_Nov_26_1232,59.9829937212,spanish_cond2,001,1046,
images\bandaid01.jpg,door handle,x,sounds\animalfarm_english.wav,,,,,,,,,0,1,1,1,0,171,171,170,966.852983908,8.98027792573e-06,967.964502408,1.11152780126,,,,x,1,1.10051065474,2018_Nov_26_1232,59.9829937212,spanish_cond2,001,1046,
images\cookingpot.jpg,grasshopper,x,sounds\animalfarm_english.wav,,,,,,,,,0,1,1,1,0,172,172,183,969.076766589,8.65943729877e-06,969.84832092,0.771563632297,,,,x,1,0.750427042367,2018_Nov_26_1232,59.9829937212,spanish_cond2,001,1046,
images\sportshorts02.jpg,tape,x,sounds\animalfarm_english.wav,,,,,,,,,0,1,1,1,0,173,173,230,970.955079254,9.30100213736e-06,972.448995464,1.49392679438,,,,x,1,1.48395424185,2018_Nov_26_1232,59.9829937212,spanish_cond2,001,1046,
images\banana04a.jpg,banana,z,sounds\animalfarm_english.wav,,,,,,,,,0,1,1,1,0,174,174,118,973.554746408,9.30088572204e-06,974.282789569,0.7280531039,,,,z,1,0.717078613583,2018_Nov_26_1232,59.9829937212,spanish_cond2,001,1046,
images\gluestick.jpg,squirrel,x,sounds\animalfarm_english.wav,,,,,,,,,0,1,1,1,0,175,175,226,975.388641861,8.98016151041e-06,976.500028544,1.11139694636,,,,x,1,1.10050456098,2018_Nov_26_1232,59.9829937212,spanish_cond2,001,1046,
images\mitten01.jpg,mitten,z,sounds\animalfarm_english.wav,,,,,,,,,0,1,1,1,0,176,176,102,977.619340928,9.30100213736e-06,979.400606423,1.78127607878,,,,z,1,1.7671809562,2018_Nov_26_1232,59.9829937212,spanish_cond2,001,1046,
images\flipflop01b.jpg,flip flop,z,sounds\animalfarm_english.wav,,,,,,,,,0,1,1,1,0,177,177,27,980.516191046,9.30100213736e-06,981.151220767,0.635039343149,,,,z,1,0.617058985401,2018_Nov_26_1232,59.9829937212,spanish_cond2,001,1046,
images\swan.jpg,swan,z,sounds\animalfarm_english.wav,,,,,,,,,0,1,1,1,0,178,178,54,982.242523151,9.30100213736e-06,983.101711761,0.859198873164,,,,z,1,0.850438973284,2018_Nov_26_1232,59.9829937212,spanish_cond2,001,1046,
images\handbag02a.jpg,candle,x,sounds\animalfarm_english.wav,,,,,,,,,0,1,1,1,0,179,179,144,984.21663345,9.30100213736e-06,984.968864879,0.752240729402,,,,x,1,0.733752026106,2018_Nov_26_1232,59.9829937212,spanish_cond2,001,1046,
images\bracelet02a.jpg,chess knight,x,sounds\animalfarm_english.wav,,,,,,,,,0,1,1,1,0,180,180,152,986.076462544,8.98016151041e-06,988.102998501,2.02654589957,,,,x,1,2.01741652715,2018_Nov_26_1232,59.9829937212,spanish_cond2,001,1046,
images\eraser.jpg,eraser,z,sounds\animalfarm_english.wav,,,,,,,,,0,1,1,1,0,181,181,110,989.208527504,9.621726349e-06,989.803439944,0.594922061195,,,,z,1,0.583713443135,2018_Nov_26_1232,59.9829937212,spanish_cond2,001,1046,
images\bowl02b (1).jpg,bowl,z,sounds\animalfarm_english.wav,,,,,,,,,0,1,1,1,0,182,182,24,990.919715403,9.621726349e-06,991.903972728,0.984267267282,,,,z,1,0.967145163566,2018_Nov_26_1232,59.9829937212,spanish_cond2,001,1046,
images\flashlight05.jpg,flash light,z,sounds\animalfarm_english.wav,,,,,,,,,0,1,1,1,0,183,183,8,993.004988521,9.30100213736e-06,993.704431875,0.699452654575,,,,z,1,0.683669568389,2018_Nov_26_1232,59.9829937212,spanish_cond2,001,1046,
images\axe01.jpg,axe,z,sounds\animalfarm_english.wav,,,,,,,,,0,1,1,1,0,184,184,104,994.808677987,9.30100213736e-06,995.988347822,1.17967945687,,,,z,1,1.16719724901,2018_Nov_26_1232,59.9829937212,spanish_cond2,001,1046,
images\leaf01a.jpg,leaf,z,sounds\animalfarm_english.wav,,,,,,,,,0,1,1,1,0,185,185,68,997.0900134,9.94233414531e-06,997.655474512,0.565471055103,,,,z,1,0.55039997329,2018_Nov_26_1232,59.9829937212,spanish_cond2,001,1046,
images\orange.jpg,bat,x,sounds\animalfarm_english.wav,,,,,,,,,0,1,1,1,0,186,186,128,998.778713183,9.30088572204e-06,999.439233947,0.660530706285,,,,x,1,0.65039939608,2018_Nov_26_1232,59.9829937212,spanish_cond2,001,1046,
images\parkfountain.jpg,park fountain,z,sounds\animalfarm_english.wav,,,,,,,,,0,1,1,1,0,187,187,93,1000.55784908,8.98016151041e-06,1001.4564218,0.898582020658,,,,z,1,0.88379157125,2018_Nov_26_1232,59.9829937212,spanish_cond2,001,1046,
images\mirror02.jpg,8 ball,x,sounds\animalfarm_english.wav,,,,,,,,,0,1,1,1,0,188,188,121,1002.55618196,8.98016151041e-06,1003.35690089,0.800728553673,,,,x,1,0.783756548306,2018_Nov_26_1232,59.9829937212,spanish_cond2,001,1046,
images\dryingmachine01.jpg,drying machine,z,sounds\animalfarm_english.wav,,,,,,,,,0,1,1,1,0,189,189,18,1004.47650257,9.30088572204e-06,1005.20721992,0.73072761076,,,,z,1,0.716911517084,2018_Nov_26_1232,59.9829937212,spanish_cond2,001,1046,
images\envelope02a.jpg,grand piano,x,sounds\animalfarm_english.wav,,,,,,,,,0,1,1,1,0,190,190,182,1006.32881553,8.98016151041e-06,1007.00785771,0.679052123218,,,,x,1,0.667080505867,2018_Nov_26_1232,59.9829937212,spanish_cond2,001,1046,
images\hairpin.jpg,hair pin,z,sounds\animalfarm_english.wav,,,,,,,,,0,1,1,1,0,191,191,28,1008.09919954,1.12253474072e-05,1008.79163542,0.692447428708,,,,z,1,0.683715431718,2018_Nov_26_1232,59.9829937212,spanish_cond2,001,1046,
images\saltshaker03c.jpg,salt shaker,z,sounds\animalfarm_english.wav,,,,,,,,,0,1,1,1,0,192,192,63,1009.90177642,8.98027792573e-06,1011.09221901,1.19045253342,,,,z,1,1.16719115514,2018_Nov_26_1232,59.9829937212,spanish_cond2,001,1046,
images\battery03b.jpg,battery,z,sounds\animalfarm_english.wav,,,,,,,,,0,1,1,1,0,193,193,34,1012.19990968,8.98027792573e-06,1013.54285305,1.3429526632,,,,z,1,1.3338813415,2018_Nov_26_1232,59.9829937212,spanish_cond2,001,1046,
images\lightbulb03b.jpg,treadmill,x,sounds\animalfarm_english.wav,,,,,,,,,0,1,1,1,0,194,194,234,1014.64411291,9.30100213736e-06,1015.37664523,0.73254193936,,,,x,1,0.717053597211,2018_Nov_26_1232,59.9829937212,spanish_cond2,001,1046,
images\lighter02b.jpg,stapler,x,sounds\animalfarm_english.wav,,,,,,,,,0,1,1,1,0,195,195,227,1016.47667512,9.621726349e-06,1017.47719212,1.00052726816,,,,x,1,0.983809916652,2018_Nov_26_1232,59.9829937212,spanish_cond2,001,1046,
images\floorlamp.jpg,floor lamp,z,sounds\animalfarm_english.wav,,,,,,,,,0,1,1,1,0,196,196,26,1018.56817186,8.98016151041e-06,1019.89450243,1.32634018804,,,,z,1,1.31726437621,2018_Nov_26_1232,59.9829937212,spanish_cond2,001,1046,
images\cupcake.jpg,scissors,x,sounds\animalfarm_english.wav,,,,,,,,,0,1,1,1,0,197,197,219,1021.01192094,9.62160993367e-06,1021.71161735,0.699706346262,,,,x,1,0.68374878692,2018_Nov_26_1232,59.9829937212,spanish_cond2,001,1046,
images\broadsword.jpg,teapot,x,sounds\animalfarm_english.wav,,,,,,,,,0,1,1,1,0,198,198,231,1022.80295661,9.30100213736e-06,1023.54542204,0.742475363775,,,,x,1,0.733759402763,2018_Nov_26_1232,59.9829937212,spanish_cond2,001,1046,
images\icecube02 (2).jpg,aloe,x,sounds\animalfarm_english.wav,,,,,,,,,0,1,1,1,0,199,199,122,1024.65434813,9.30088572204e-06,1025.32920328,0.67486508796,,,,x,1,0.650388491456,2018_Nov_26_1232,59.9829937212,spanish_cond2,001,1046,
images\comb02a.jpg,diploma,x,sounds\animalfarm_english.wav,,,,,,,,,0,1,1,1,0,200,200,166,1026.43209017,8.98027792573e-06,1028.27996176,1.84788153018,,,,x,1,1.83403721277,2018_Nov_26_1232,59.9829937212,spanish_cond2,001,1046,
images\parkingmeter.jpg,ear,x,sounds\animalfarm_english.wav,,,,,,,,,0,1,1,1,0,201,201,171,1029.38019563,9.621726349e-06,1030.19711876,0.816933069611,,,,x,1,0.800434771692,2018_Nov_26_1232,59.9829937212,spanish_cond2,001,1046,
images\hammer02a.jpg,flower,x,sounds\animalfarm_english.wav,,,,,,,,,0,1,1,1,0,202,202,176,1031.29099109,8.98027792573e-06,1032.48103791,1.19005708222,,,,x,1,1.16719821107,2018_Nov_26_1232,59.9829937212,spanish_cond2,001,1046,
images\remotecontrol01c.jpg,remote control,z,sounds\animalfarm_english.wav,,,,,,,,,0,1,1,1,0,203,203,85,1033.58885687,9.62160993367e-06,1034.49832454,0.909477613168,,,,z,1,0.900509564322,2018_Nov_26_1232,59.9829937212,spanish_cond2,001,1046,
images\rhinoceros01.jpg,envelope,x,sounds\animalfarm_english.wav,,,,,,,,,0,1,1,1,0,204,204,173,1035.60908325,9.30088572204e-06,1037.36563738,1.75656375103,,,,x,1,1.73401918821,2018_Nov_26_1232,59.9829937212,spanish_cond2,001,1046,
images\coffeepot03b.jpg,coffee pot,z,sounds\animalfarm_english.wav,,,,,,,,,0,1,1,1,0,205,205,107,1038.48514348,9.30088572204e-06,1039.68288027,1.19774673041,,,,z,1,1.18386200198,2018_Nov_26_1232,59.9829937212,spanish_cond2,001,1046,
images\highlighter03b.jpg,coin,x,sounds\animalfarm_english.wav,,,,,,,,,0,1,1,1,0,206,206,156,1040.78319464,9.30088572204e-06,1042.90037582,2.11719112319,,,,x,1,2.10077044007,2018_Nov_26_1232,59.9829937212,spanish_cond2,001,1046,
images\apple06.jpg,apple,z,sounds\animalfarm_english.wav,,,,,,,,,0,1,1,1,0,207,207,13,1044.02611421,9.94245056063e-06,1044.83421265,0.808109025238,,,,z,1,0.783770980895,2018_Nov_26_1232,59.9829937212,spanish_cond2,001,1046,
images\umbrella01.jpg,umbrella,z,sounds\animalfarm_english.wav,,,,,,,,,0,1,1,1,0,208,208,53,1045.94631871,8.98027792573e-06,1047.03475127,1.08844217914,,,,z,1,1.06715581159,2018_Nov_26_1232,59.9829937212,spanish_cond2,001,1046,
images\apricot.jpg,apricot,z,sounds\animalfarm_english.wav,,,,,,,,,0,1,1,1,0,209,209,32,1048.15011299,9.30100213736e-06,1048.83522709,0.685124366661,,,,z,1,0.667070242693,2018_Nov_26_1232,59.9829937212,spanish_cond2,001,1046,
images\lantern03.jpg,lantern,z,sounds\animalfarm_english.wav,,,,,,,,,0,1,1,1,0,210,210,5,1049.94048958,8.98027792573e-06,1052.10274096,2.16226100549,,,,z,1,2.15078971558,2018_Nov_26_1232,59.9829937212,spanish_cond2,001,1046,
images\hanger02a.jpg,hanger,z,sounds\animalfarm_english.wav,,,,,,,,,0,1,1,1,0,211,211,88,1053.19465144,9.30088572204e-06,1054.03640235,0.841760857613,,,,z,1,0.833613858791,2018_Nov_26_1232,59.9829937212,spanish_cond2,001,1046,
,,,sounds\animalfarm_english.wav,,,,,,,,,0,1,1,1,,,,,,,,,,,,,,,2018_Nov_26_1232,59.9829937212,spanish_cond2,001,1046,
