images,name,corrAns,sounds,trials_3.thisRepN,trials_3.thisTrialN,trials_3.thisN,trials_3.thisIndex,trials_4.thisRepN,trials_4.thisTrialN,trials_4.thisN,trials_4.thisIndex,trials_2.thisRepN,trials_2.thisTrialN,trials_2.thisN,trials_2.thisIndex,trials.thisRepN,trials.thisTrialN,trials.thisN,trials.thisIndex,begin_global,begin_routine,end_global,end_routine,key_resp_2.keys,key_resp_2.corr,key_resp_2.rt,begin_book,key_resp_1.keys,key_resp_1.corr,key_resp_1.rt,date,frameRate,expName,session,participant,
images/volleyball.jpg,volley ball,z,,0,0,0,0,,,,,,,,,,,,,,,,,,,,,,,,2018_Nov_26_1232,59.990687782,chinese_cond1,001,1047,
images/puma.jpg,puma,z,,,,,,0,0,0,0,,,,,,,,,48.1673477661,1.09043903649e-05,50.4233581934,2.25602229382,x,0,2.2341396627,,,,,2018_Nov_26_1232,59.990687782,chinese_cond1,001,1047,
images/calculator02b.jpg,dice,x,sounds/animalfarm_chinese.wav,,,,,,,,,0,0,0,1,0,0,0,165,92.5784538669,1.05836661533e-05,93.8339232418,1.25548060006,,,,82.4196032197,x,1,1.23386833479,2018_Nov_26_1232,59.990687782,chinese_cond1,001,1047,
images/parkfountain.jpg,park fountain,z,sounds/animalfarm_chinese.wav,,,,,,,,,0,0,0,1,0,1,1,93,94.9582773946,9.30088572204e-06,96.2178234239,1.25955565076,,,,,z,1,1.25054441986,2018_Nov_26_1232,59.990687782,chinese_cond1,001,1047,
images/coffeepot03b.jpg,coffee pot,z,sounds/animalfarm_chinese.wav,,,,,,,,,0,0,0,1,0,2,2,107,97.343506314,9.30088572204e-06,99.1852217353,1.84172536351,,,,,z,1,1.81731130043,2018_Nov_26_1232,59.990687782,chinese_cond1,001,1047,
images/handfan01b.jpg,handfan,z,sounds/animalfarm_chinese.wav,,,,,,,,,0,0,0,1,0,3,3,69,100.302924825,8.98016151041e-06,101.869473617,1.56655809272,,,,,z,1,1.55089740281,2018_Nov_26_1232,59.990687782,chinese_cond1,001,1047,
images/dice05a.jpg,band aid,x,sounds/animalfarm_chinese.wav,,,,,,,,,0,0,0,1,0,4,4,126,102.983187609,8.98016151041e-06,104.119775574,1.1365979067,,,,,x,1,1.11720950436,2018_Nov_26_1232,59.990687782,chinese_cond1,001,1047,
images/bandaid01.jpg,door handle,x,sounds/animalfarm_chinese.wav,,,,,,,,,0,0,0,1,0,5,5,170,105.226846521,9.30088572204e-06,106.23692799,1.01009109046,,,,,x,1,1.00048556796,2018_Nov_26_1232,59.990687782,chinese_cond1,001,1047,
images/scooter.jpg,pen,x,sounds/animalfarm_chinese.wav,,,,,,,,,0,0,0,1,0,6,6,212,107.329489948,9.94221772999e-06,108.670872464,1.34139309905,,,,,x,1,1.31723881804,2018_Nov_26_1232,59.990687782,chinese_cond1,001,1047,
images/lipstick04.jpg,lipstick,z,sounds/animalfarm_chinese.wav,,,,,,,,,0,0,0,1,0,7,7,56,109.7703334,8.65943729877e-06,110.821380257,1.05105647922,,,,,z,1,1.03379283764,2018_Nov_26_1232,59.990687782,chinese_cond1,001,1047,
images/bowl02b (1).jpg,bowl,z,sounds/animalfarm_chinese.wav,,,,,,,,,0,0,0,1,0,8,8,24,111.939339923,9.30076930672e-06,113.588730654,1.64940067311,,,,,z,1,1.63398629497,2018_Nov_26_1232,59.990687782,chinese_cond1,001,1047,
images/charcoalbarbecue.jpg,charcoal barbecue,z,sounds/animalfarm_chinese.wav,,,,,,,,,0,0,0,1,0,9,9,77,114.706076784,9.30088572204e-06,116.722816371,2.01674985047,,,,,z,1,2.00072257896,2018_Nov_26_1232,59.990687782,chinese_cond1,001,1047,
images/icecube02 (2).jpg,aloe,x,sounds/animalfarm_chinese.wav,,,,,,,,,0,0,0,1,0,10,10,122,117.833338892,9.62160993367e-06,118.840001822,1.00667447515,,,,,x,1,0.983818142326,2018_Nov_26_1232,59.990687782,chinese_cond1,001,1047,
images/cookingpot.jpg,grasshopper,x,sounds/animalfarm_chinese.wav,,,,,,,,,0,0,0,1,0,11,11,183,119.953474954,9.30076930672e-06,120.773812555,0.820347543457,,,,,x,1,0.800442784093,2018_Nov_26_1232,59.990687782,chinese_cond1,001,1047,
images/gluestick.jpg,squirrel,x,sounds/animalfarm_chinese.wav,,,,,,,,,0,0,0,1,0,12,12,226,121.881384145,9.30088572204e-06,123.107713988,1.22634010669,,,,,x,1,1.21721502068,2018_Nov_26_1232,59.990687782,chinese_cond1,001,1047,
images/nametag01a.jpg,name tag,z,sounds/animalfarm_chinese.wav,,,,,,,,,0,0,0,1,0,13,13,108,124.228161788,9.30076930672e-06,125.491626358,1.26347419084,,,,,z,1,1.25055564498,2018_Nov_26_1232,59.990687782,chinese_cond1,001,1047,
images/bullet (2).jpg,rubber glove,x,sounds/animalfarm_chinese.wav,,,,,,,,,0,0,0,1,0,14,14,217,126.595952595,9.94221772999e-06,127.992226422,1.39628409001,,,,,x,1,1.38391429372,2018_Nov_26_1232,59.990687782,chinese_cond1,001,1047,
images/pictureframe04.jpg,picture frame,z,sounds/animalfarm_chinese.wav,,,,,,,,,0,0,0,1,0,15,15,41,129.113551709,9.30076930672e-06,129.959374573,0.845832806779,,,,,z,1,0.833780521993,2018_Nov_26_1232,59.990687782,chinese_cond1,001,1047,
images/paintbrush03a.jpg,paint brush,z,sounds/animalfarm_chinese.wav,,,,,,,,,0,0,0,1,0,16,16,0,131.05847887,8.98016151041e-06,132.259933457,1.20146517095,,,,,z,1,1.18386605766,2018_Nov_26_1232,59.990687782,chinese_cond1,001,1047,
images/boxingglove02a.jpg,bracelet,x,sounds/animalfarm_chinese.wav,,,,,,,,,0,0,0,1,0,17,17,135,133.370461431,9.30088572204e-06,134.693866385,1.32341457566,,,,,x,1,1.30057427881,2018_Nov_26_1232,59.990687782,chinese_cond1,001,1047,
images/magnifyingglass01b.jpg,magnifying glass,z,sounds/animalfarm_chinese.wav,,,,,,,,,0,0,0,1,0,18,18,64,135.800396601,8.98016151041e-06,138.06134834,2.26096103969,,,,,z,1,2.25079586322,2018_Nov_26_1232,59.990687782,chinese_cond1,001,1047,
images/bench02.jpg,electric toothbrush,x,sounds/animalfarm_chinese.wav,,,,,,,,,0,0,0,1,0,19,19,172,139.170172976,8.98016151041e-06,140.495288323,1.32512496808,,,,,x,1,1.30057908944,2018_Nov_26_1232,59.990687782,chinese_cond1,001,1047,
images/bracelet02a.jpg,chess knight,x,sounds/animalfarm_chinese.wav,,,,,,,,,0,0,0,1,0,20,20,152,141.604980824,9.62149351835e-06,143.095917637,1.49094707565,,,,,x,1,1.46727964538,2018_Nov_26_1232,59.990687782,chinese_cond1,001,1047,
images/dryingmachine01.jpg,drying machine,z,sounds/animalfarm_chinese.wav,,,,,,,,,0,0,0,1,0,21,21,18,144.216906489,9.30088572204e-06,145.346699068,1.12982849893,,,,,z,1,1.11738365446,2018_Nov_26_1232,59.990687782,chinese_cond1,001,1047,
images/tank.jpg,wallet,x,sounds/animalfarm_chinese.wav,,,,,,,,,0,0,0,1,0,22,22,237,146.450529474,8.65943729877e-06,147.21357743,0.763057577424,,,,,x,1,0.750429602573,2018_Nov_26_1232,59.990687782,chinese_cond1,001,1047,
images/pepper05a.jpg,lighter,x,sounds/animalfarm_chinese.wav,,,,,,,,,0,0,0,1,0,23,23,198,148.33398065,9.30076930672e-06,149.130703419,0.79673271114,,,,,x,1,0.783753549564,2018_Nov_26_1232,59.990687782,chinese_cond1,001,1047,
images/puma.jpg,puma,z,sounds/animalfarm_chinese.wav,,,,,,,,,0,0,0,1,0,24,24,4,150.230172373,9.30076930672e-06,151.714669156,1.48450704583,,,,,x,0,1.46726585459,2018_Nov_26_1232,59.990687782,chinese_cond1,001,1047,
images/orange.jpg,bat,x,sounds/animalfarm_chinese.wav,,,,,,,,,0,0,0,1,0,25,25,128,152.838878665,8.98004509509e-06,155.548934926,2.71006588195,,,,,x,1,2.70089429186,2018_Nov_26_1232,59.990687782,chinese_cond1,001,1047,
images/lettuce.jpg,mushroom,x,sounds/animalfarm_chinese.wav,,,,,,,,,0,0,0,1,0,26,26,205,156.672228462,8.98016151041e-06,159.199818922,2.52760040259,,,,,x,1,2.51746248722,2018_Nov_26_1232,59.990687782,chinese_cond1,001,1047,
images/cigar.jpg,crocodile,x,sounds/animalfarm_chinese.wav,,,,,,,,,0,0,0,1,0,27,27,162,160.29741937,8.98016151041e-06,161.100295125,0.802885697805,,,,,x,1,0.783772792667,2018_Nov_26_1232,59.990687782,chinese_cond1,001,1047,
images/microphone01.jpg,diaper,x,sounds/animalfarm_chinese.wav,,,,,,,,,0,0,0,1,0,28,28,164,162.198996279,8.98004509509e-06,163.017417587,0.818430608371,,,,,x,1,0.800429634633,2018_Nov_26_1232,59.990687782,chinese_cond1,001,1047,
images/bicycle.jpg,hand bag,x,sounds/animalfarm_chinese.wav,,,,,,,,,0,0,0,1,0,29,29,186,164.127177439,9.30088572204e-06,165.051247948,0.924080772325,,,,,x,1,0.900466902182,2018_Nov_26_1232,59.990687782,chinese_cond1,001,1047,
images/corn01.jpg,corn,z,sounds/animalfarm_chinese.wav,,,,,,,,,0,0,0,1,0,30,30,22,166.150159173,8.98016151041e-06,167.168439492,1.01829026197,,,,,z,1,1.000494548,2018_Nov_26_1232,59.990687782,chinese_cond1,001,1047,
images/rhinoceros01.jpg,envelope,x,sounds/animalfarm_chinese.wav,,,,,,,,,0,0,0,1,0,31,31,173,168.280068493,9.62160993367e-06,169.852423254,1.57236534473,,,,,x,1,1.55062447127,2018_Nov_26_1232,59.990687782,chinese_cond1,001,1047,
images/lamp04b.jpg,parking meter,x,sounds/animalfarm_chinese.wav,,,,,,,,,0,0,0,1,0,32,32,209,170.972740201,9.62160993367e-06,172.58641731,1.61368737253,,,,,x,1,1.60062642756,2018_Nov_26_1232,59.990687782,chinese_cond1,001,1047,
images/tulip02.jpg,sport shorts,x,sounds/animalfarm_chinese.wav,,,,,,,,,0,0,0,1,0,33,33,225,173.680030263,8.98004509509e-06,176.003924634,2.32390431291,,,,,x,1,2.30081000703,2018_Nov_26_1232,59.990687782,chinese_cond1,001,1047,
images/highheelshoe02a.jpg,high heel shoe,z,sounds/animalfarm_chinese.wav,,,,,,,,,0,0,0,1,0,34,34,75,177.110065818,8.98016151041e-06,178.821273779,1.71121822402,,,,,z,1,1.70066626091,2018_Nov_26_1232,59.990687782,chinese_cond1,001,1047,
images/flashlight05.jpg,flash light,z,sounds/animalfarm_chinese.wav,,,,,,,,,0,0,0,1,0,35,35,8,179.923833819,8.98016151041e-06,180.955130183,1.03130566468,,,,,z,1,1.01716486027,2018_Nov_26_1232,59.990687782,chinese_cond1,001,1047,
images/flamingo.jpg,flamingo,z,sounds/animalfarm_chinese.wav,,,,,,,,,0,0,0,1,0,36,36,52,182.052727744,8.98016151041e-06,183.405724442,1.35300567863,,,,,z,1,1.33390688512,2018_Nov_26_1232,59.990687782,chinese_cond1,001,1047,
images/hairband.jpg,hairband,z,sounds/animalfarm_chinese.wav,,,,,,,,,0,0,0,1,0,37,37,66,184.515202383,9.62160993367e-06,186.106368253,1.59117645363,,,,,x,0,1.56728387903,2018_Nov_26_1232,59.990687782,chinese_cond1,001,1047,
images/lemon02.jpg,lemon,z,sounds/animalfarm_chinese.wav,,,,,,,,,0,0,0,1,0,38,38,14,187.21807166,9.94233414531e-06,188.056830056,0.838769620867,,,,,z,1,0.817088080221,2018_Nov_26_1232,59.990687782,chinese_cond1,001,1047,
images/arrow02.jpg,hammer,x,sounds/animalfarm_chinese.wav,,,,,,,,,0,0,0,1,0,39,39,184,189.153861228,8.98016151041e-06,189.873958546,0.720106619759,,,,,x,1,0.700408403063,2018_Nov_26_1232,59.990687782,chinese_cond1,001,1047,
images/shotglass.jpg,shot glass,z,sounds/animalfarm_chinese.wav,,,,,,,,,0,0,0,1,0,40,40,86,190.981896717,8.98004509509e-06,192.057819793,1.07593301847,,,,,z,1,1.06716745812,2018_Nov_26_1232,59.990687782,chinese_cond1,001,1047,
images/barrel01.jpg,barrel,z,sounds/animalfarm_chinese.wav,,,,,,,,,0,0,0,1,0,41,41,9,193.187528023,9.62149351835e-06,194.475072787,1.28755502729,,,,,z,1,1.26721409056,2018_Nov_26_1232,59.990687782,chinese_cond1,001,1047,
images/axe01.jpg,axe,z,sounds/animalfarm_chinese.wav,,,,,,,,,0,0,0,1,0,42,42,104,195.577372083,9.30088572204e-06,198.442738257,2.86537579563,,,,,x,0,2.8509569281,2018_Nov_26_1232,59.990687782,chinese_cond1,001,1047,
images/ruler02b.jpg,watermelon,x,sounds/animalfarm_chinese.wav,,,,,,,,,0,0,0,1,0,43,43,238,199.545202723,9.30088572204e-06,200.826625931,1.28143250896,,,,,x,1,1.26722242916,2018_Nov_26_1232,59.990687782,chinese_cond1,001,1047,
images/lighter02b.jpg,stapler,x,sounds/animalfarm_chinese.wav,,,,,,,,,0,0,0,1,0,44,44,227,201.928014386,8.98016151041e-06,203.410586537,1.48258209275,,,,,x,1,1.4672536673,2018_Nov_26_1232,59.990687782,chinese_cond1,001,1047,
images/fryingpan01.jpg,frying pan,z,sounds/animalfarm_chinese.wav,,,,,,,,,0,0,0,1,0,45,45,45,204.510842534,9.30076930672e-06,205.44441337,0.933580778423,,,,,z,1,0.91713176202,2018_Nov_26_1232,59.990687782,chinese_cond1,001,1047,
images/screwdriver02b.jpg,cola,x,sounds/animalfarm_chinese.wav,,,,,,,,,0,0,0,1,0,46,46,158,206.537954803,9.94221772999e-06,208.12840964,1.59046509967,,,,,x,1,1.56729766983,2018_Nov_26_1232,59.990687782,chinese_cond1,001,1047,
images/wallet01.jpg,lamp,x,sounds/animalfarm_chinese.wav,,,,,,,,,0,0,0,1,0,47,47,193,209.233005281,9.30076930672e-06,212.229246459,2.99625112012,,,,,None,0,,2018_Nov_26_1232,59.990687782,chinese_cond1,001,1047,
images/pipe.jpg,icecube,x,sounds/animalfarm_chinese.wav,,,,,,,,,0,0,0,1,0,48,48,188,213.33792581,9.30088572204e-06,214.813372234,1.47545636666,,,,,z,0,1.45060612611,2018_Nov_26_1232,59.990687782,chinese_cond1,001,1047,
images/desktopcomputer.jpg,desktop computer,z,sounds/animalfarm_chinese.wav,,,,,,,,,0,0,0,1,0,49,49,16,215.948555451,9.30088572204e-06,216.880539372,0.93199386273,,,,,z,1,0.917134648538,2018_Nov_26_1232,59.990687782,chinese_cond1,001,1047,
images/thumbtack02a.jpg,thumb tack,z,sounds/animalfarm_chinese.wav,,,,,,,,,0,0,0,1,0,50,50,60,217.990577287,9.30088572204e-06,219.314458829,1.3238914843,,,,,z,1,1.30055599776,2018_Nov_26_1232,59.990687782,chinese_cond1,001,1047,
images/tape01a.jpg,tie,x,sounds/animalfarm_chinese.wav,,,,,,,,,0,0,0,1,0,51,51,232,220.439934535,9.30076930672e-06,221.281613715,0.841689122259,,,,,x,1,0.817118548555,2018_Nov_26_1232,59.990687782,chinese_cond1,001,1047,
images/comb02a.jpg,diploma,x,sounds/animalfarm_chinese.wav,,,,,,,,,0,0,0,1,0,52,52,166,222.385555732,8.65943729877e-06,223.332110219,0.946564109414,,,,,x,1,0.933805602137,2018_Nov_26_1232,59.990687782,chinese_cond1,001,1047,
images/marker01a.jpg,marker,z,sounds/animalfarm_chinese.wav,,,,,,,,,0,0,0,1,0,53,53,95,224.430656787,3.17511148751e-05,226.149459044,1.71882278309,,,,,x,0,1.70065247,2018_Nov_26_1232,59.990687782,chinese_cond1,001,1047,
images/ashtray02b.jpg,ashtray,z,sounds/animalfarm_chinese.wav,,,,,,,,,0,0,0,1,0,54,54,43,227.262488302,8.98016151041e-06,229.033506436,1.77102775569,,,,,z,1,1.75068329112,2018_Nov_26_1232,59.990687782,chinese_cond1,001,1047,
images/safe.jpg,safe,z,sounds/animalfarm_chinese.wav,,,,,,,,,0,0,0,1,0,55,55,78,230.144315679,8.98016151041e-06,231.317379614,1.17307323485,,,,,x,0,1.15052447107,2018_Nov_26_1232,59.990687782,chinese_cond1,001,1047,
images/lychee02a.jpg,lychee,z,sounds/animalfarm_chinese.wav,,,,,,,,,0,0,0,1,0,56,56,62,232.441277063,9.30088572204e-06,233.851345318,1.41007851833,,,,,z,1,1.40058171947,2018_Nov_26_1232,59.990687782,chinese_cond1,001,1047,
images/peach01.jpg,peach,z,sounds/animalfarm_chinese.wav,,,,,,,,,0,0,0,1,0,57,57,106,234.980284144,9.30088572204e-06,236.518644014,1.538369813,,,,,z,1,1.51727903599,2018_Nov_26_1232,59.990687782,chinese_cond1,001,1047,
images/dresser02.jpg,dresser,z,sounds/animalfarm_chinese.wav,,,,,,,,,0,0,0,1,0,58,58,87,237.640668467,8.98016151041e-06,238.635836841,0.995178316371,,,,,z,1,0.983824235969,2018_Nov_26_1232,59.990687782,chinese_cond1,001,1047,
images/spoon02b.jpg,spoon,z,sounds/animalfarm_chinese.wav,,,,,,,,,0,0,0,1,0,59,59,38,239.726785264,8.65943729877e-06,240.502946763,0.776171120116,,,,,z,1,0.767093821079,2018_Nov_26_1232,59.990687782,chinese_cond1,001,1047,
images/ladybug03.jpg,giraffe,x,sounds/animalfarm_chinese.wav,,,,,,,,,0,0,0,1,0,60,60,178,241.605563249,9.30088572204e-06,244.603794486,2.99824214133,,,,,None,0,,2018_Nov_26_1232,59.990687782,chinese_cond1,001,1047,
images/chessknight02b (1).jpg,cockroach,x,sounds/animalfarm_chinese.wav,,,,,,,,,0,0,0,1,0,61,61,155,245.712077429,8.98016151041e-06,246.704453948,0.992386781494,,,,,x,1,0.983813973027,2018_Nov_26_1232,59.990687782,chinese_cond1,001,1047,
images/cactus.jpg,cactus,z,sounds/animalfarm_chinese.wav,,,,,,,,,0,0,0,1,0,62,62,70,247.816261909,9.62149351835e-06,248.654936276,0.838685913128,,,,,z,1,0.8171070026,2018_Nov_26_1232,59.990687782,chinese_cond1,001,1047,
images/panda.jpg,panda,z,sounds/animalfarm_chinese.wav,,,,,,,,,0,0,0,1,0,63,63,83,249.763832113,9.62160993367e-06,251.005506418,1.24168392667,,,,,z,1,1.21720058832,2018_Nov_26_1232,59.990687782,chinese_cond1,001,1047,
images/nailclipper03a.jpg,aquarium,x,sounds/animalfarm_chinese.wav,,,,,,,,,0,0,0,1,0,64,64,123,252.104330407,9.62160993367e-06,253.889573374,1.78525258834,,,,,x,1,1.76736835623,2018_Nov_26_1232,59.990687782,chinese_cond1,001,1047,
images/lily.jpg,kiwi,x,sounds/animalfarm_chinese.wav,,,,,,,,,0,0,0,1,0,65,65,190,254.989030461,8.98016151041e-06,255.923368777,0.934347937349,,,,,x,1,0.917132403585,2018_Nov_26_1232,59.990687782,chinese_cond1,001,1047,
images/apple06.jpg,apple,z,sounds/animalfarm_chinese.wav,,,,,,,,,0,0,0,1,0,66,66,13,257.049948076,9.30076930672e-06,257.973869451,0.92393099668,,,,,z,1,0.900465619285,2018_Nov_26_1232,59.990687782,chinese_cond1,001,1047,
images/treadmill.jpg,lily,x,sounds/animalfarm_chinese.wav,,,,,,,,,0,0,0,1,0,67,67,199,259.079665221,8.98016151041e-06,259.974351491,0.894696212141,,,,,x,1,0.883787289145,2018_Nov_26_1232,59.990687782,chinese_cond1,001,1047,
images/parrot01.jpg,chameleon,x,sounds/animalfarm_chinese.wav,,,,,,,,,0,0,0,1,0,68,68,150,261.087545919,8.98016151041e-06,262.474964063,1.38742776611,,,,,x,1,1.3672417365,2018_Nov_26_1232,59.990687782,chinese_cond1,001,1047,
images/gorilla.jpg,gorilla,z,sounds/animalfarm_chinese.wav,,,,,,,,,0,0,0,1,0,69,69,80,263.585739632,9.30076930672e-06,264.342088738,0.75635872758,,,,,z,1,0.733742613113,2018_Nov_26_1232,59.990687782,chinese_cond1,001,1047,
images/candle08a.jpg,screw driver,x,sounds/animalfarm_chinese.wav,,,,,,,,,0,0,0,1,0,70,70,221,265.454804333,9.94221772999e-06,266.509280955,1.05448720616,,,,,x,1,1.03382458875,2018_Nov_26_1232,59.990687782,chinese_cond1,001,1047,
images/computermouse02a.jpg,world map,x,sounds/animalfarm_chinese.wav,,,,,,,,,0,0,0,1,0,71,71,239,267.61053984,9.30088572204e-06,269.643375012,2.03284511412,,,,,x,1,2.0173954569,2018_Nov_26_1232,59.990687782,chinese_cond1,001,1047,
images/binder03b.jpg,dj mixer,x,sounds/animalfarm_chinese.wav,,,,,,,,,0,0,0,1,0,72,72,167,270.756022615,8.98004509509e-06,273.12765531,2.3716577111,,,,,x,1,2.35083184787,2018_Nov_26_1232,59.990687782,chinese_cond1,001,1047,
images/hairdryer03a.jpg,hairdryer,z,sounds/animalfarm_chinese.wav,,,,,,,,,0,0,0,1,0,73,73,119,274.22772946,9.62149351835e-06,274.927997067,0.700277870521,,,,,z,1,0.683738411637,2018_Nov_26_1232,59.990687782,chinese_cond1,001,1047,
images/acousticguitar02.jpg,acoustic guitar,z,sounds/animalfarm_chinese.wav,,,,,,,,,0,0,0,1,0,74,74,97,276.040727736,9.30076930672e-06,277.128544983,1.08782718913,,,,,z,1,1.06717900396,2018_Nov_26_1232,59.990687782,chinese_cond1,001,1047,
images/plant01.jpg,plant,z,sounds/animalfarm_chinese.wav,,,,,,,,,0,0,0,1,0,75,75,47,278.239880205,8.98016151041e-06,279.079010955,0.839140050812,,,,,z,1,0.817112134071,2018_Nov_26_1232,59.990687782,chinese_cond1,001,1047,
images/globe.jpg,cloud,x,sounds/animalfarm_chinese.wav,,,,,,,,,0,0,0,1,0,76,76,154,280.206180055,9.30076930672e-06,281.76299632,1.55682620709,,,,,z,0,1.53395351768,2018_Nov_26_1232,59.990687782,chinese_cond1,001,1047,
images/handbag02a.jpg,candle,x,sounds/animalfarm_chinese.wav,,,,,,,,,0,0,0,1,0,77,77,144,282.879999282,8.98004509509e-06,283.796837265,0.91684728465,,,,,x,1,0.900467222906,2018_Nov_26_1232,59.990687782,chinese_cond1,001,1047,
images/dragonfly02.jpg,dragon fly,z,sounds/animalfarm_chinese.wav,,,,,,,,,0,0,0,1,0,78,78,29,284.892439315,8.98016151041e-06,285.697289415,0.804859720869,,,,,z,1,0.783770547714,2018_Nov_26_1232,59.990687782,chinese_cond1,001,1047,
images/drink.jpg,drink,z,sounds/animalfarm_chinese.wav,,,,,,,,,0,0,0,1,0,79,79,117,286.797394674,8.98016151041e-06,287.881149379,1.08376432571,,,,,z,1,1.06716649584,2018_Nov_26_1232,59.990687782,chinese_cond1,001,1047,
images/weight01.jpg,weight,z,sounds/animalfarm_chinese.wav,,,,,,,,,0,0,0,1,0,80,80,67,288.985203326,8.98016151041e-06,290.665160144,1.67996643996,,,,,z,1,1.66731248703,2018_Nov_26_1232,59.990687782,chinese_cond1,001,1047,
images/dolphin01.jpg,dolphin,z,sounds/animalfarm_chinese.wav,,,,,,,,,0,0,0,1,0,81,81,99,291.767005623,8.98016151041e-06,292.548946792,0.781951110926,,,,,z,1,0.76709029323,2018_Nov_26_1232,59.990687782,chinese_cond1,001,1047,
images/straw.jpg,straw,z,sounds/animalfarm_chinese.wav,,,,,,,,,0,0,0,1,0,82,82,109,293.639975715,9.62149351835e-06,295.416333814,1.77636772057,,,,,x,0,1.76735616894,2018_Nov_26_1232,59.990687782,chinese_cond1,001,1047,
images/ant.jpg,ant,z,sounds/animalfarm_chinese.wav,,,,,,,,,0,0,0,1,0,83,83,98,296.510624125,9.30088572204e-06,298.483740528,1.97312698734,,,,,z,1,1.95072543342,2018_Nov_26_1232,59.990687782,chinese_cond1,001,1047,
images/cloud.jpg,ceiling fan,x,sounds/animalfarm_chinese.wav,,,,,,,,,0,0,0,1,0,84,84,149,299.58951898,9.30088572204e-06,300.567585996,0.978077279055,,,,,x,1,0.967164507485,2018_Nov_26_1232,59.990687782,chinese_cond1,001,1047,
images/candycane01a.jpg,lip,x,sounds/animalfarm_chinese.wav,,,,,,,,,0,0,0,1,0,85,85,200,301.661568417,9.30088572204e-06,303.284908457,1.62335062434,,,,,x,1,1.60063797352,2018_Nov_26_1232,59.990687782,chinese_cond1,001,1047,
images/lock02a.jpg,lock,z,sounds/animalfarm_chinese.wav,,,,,,,,,0,0,0,1,0,86,86,65,304.39615035,9.62149351835e-06,305.235391427,0.839251981582,,,,,z,1,0.817115662037,2018_Nov_26_1232,59.990687782,chinese_cond1,001,1047,
images/elbow.jpg,elbow,z,sounds/animalfarm_chinese.wav,,,,,,,,,0,0,0,1,0,87,87,105,306.347682712,9.30088572204e-06,307.16918388,0.821510789916,,,,,z,1,0.800413919496,2018_Nov_26_1232,59.990687782,chinese_cond1,001,1047,
images/atm.jpg,atm,z,sounds/animalfarm_chinese.wav,,,,,,,,,0,0,0,1,0,88,88,96,308.306158952,9.30088572204e-06,309.202998527,0.896849516896,,,,,z,1,0.883777026203,2018_Nov_26_1232,59.990687782,chinese_cond1,001,1047,
images/tissuebox03.jpg,tissue box,z,sounds/animalfarm_chinese.wav,,,,,,,,,0,0,0,1,0,89,89,58,310.328622404,9.62160993367e-06,311.053456417,0.724844275042,,,,,z,1,0.700408082339,2018_Nov_26_1232,59.990687782,chinese_cond1,001,1047,
images/highlighter03b.jpg,coin,x,sounds/animalfarm_chinese.wav,,,,,,,,,0,0,0,1,0,90,90,156,312.155367964,8.98016151041e-06,313.604091792,1.44873345015,,,,,x,1,1.43393805891,2018_Nov_26_1232,59.990687782,chinese_cond1,001,1047,
images/lollipop03b.jpg,lollipop,z,sounds/animalfarm_chinese.wav,,,,,,,,,0,0,0,1,0,91,91,42,314.69723393,8.98016151041e-06,315.487871384,0.790647396119,,,,,z,1,0.767095745425,2018_Nov_26_1232,59.990687782,chinese_cond1,001,1047,
images/antelope.jpg,antelope,z,sounds/animalfarm_chinese.wav,,,,,,,,,0,0,0,1,0,92,92,12,316.591315966,8.65932088345e-06,317.238300345,0.64699400065,,,,,z,1,0.633675518679,2018_Nov_26_1232,59.990687782,chinese_cond1,001,1047,
images/redfox.jpg,red fox,z,sounds/animalfarm_chinese.wav,,,,,,,,,0,0,0,1,0,93,93,1,318.350909141,8.65943729877e-06,319.188621032,0.837721512304,,,,,z,1,0.816958189243,2018_Nov_26_1232,59.990687782,chinese_cond1,001,1047,
images/screw03c.jpg,screw,z,sounds/animalfarm_chinese.wav,,,,,,,,,0,0,0,1,0,94,94,84,320.282582927,9.30088572204e-06,321.322639078,1.0400664144,,,,,z,1,1.01716453955,2018_Nov_26_1232,59.990687782,chinese_cond1,001,1047,
images/toucan.jpg,toucan,z,sounds/animalfarm_chinese.wav,,,,,,,,,0,0,0,1,0,95,95,81,322.423112202,8.98016151041e-06,323.339784054,0.916681793868,,,,,z,1,0.900463053491,2018_Nov_26_1232,59.990687782,chinese_cond1,001,1047,
images/bed.jpg,bed,z,sounds/animalfarm_chinese.wav,,,,,,,,,0,0,0,1,0,96,96,103,324.459153919,9.94221772999e-06,325.390284086,0.93114010978,,,,,z,1,0.917123423424,2018_Nov_26_1232,59.990687782,chinese_cond1,001,1047,
images/razor04a.jpg,razor,z,sounds/animalfarm_chinese.wav,,,,,,,,,0,0,0,1,0,97,97,36,326.489377799,9.62160993367e-06,327.340752945,0.851385408198,,,,,z,1,0.833775069797,2018_Nov_26_1232,59.990687782,chinese_cond1,001,1047,
images/blueberry02.jpg,blueberry,z,sounds/animalfarm_chinese.wav,,,,,,,,,0,0,0,1,0,98,98,46,328.45397752,8.98016151041e-06,329.17454405,0.720576151856,,,,,z,1,0.700415779604,2018_Nov_26_1232,59.990687782,chinese_cond1,001,1047,
images/button07.jpg,radish,x,sounds/animalfarm_chinese.wav,,,,,,,,,0,0,0,1,0,99,99,215,330.285977733,9.30088572204e-06,331.491767795,1.205799683,,,,,x,1,1.18386092619,2018_Nov_26_1232,59.990687782,chinese_cond1,001,1047,
images/radio03a.jpg,radio,z,sounds/animalfarm_chinese.wav,,,,,,,,,0,0,0,1,0,100,100,37,332.60517069,9.62160993367e-06,333.475580164,0.870420058025,,,,,z,1,0.850439288304,2018_Nov_26_1232,59.990687782,chinese_cond1,001,1047,
images/fireextinguisher02.jpg,fire extinguisher,z,sounds/animalfarm_chinese.wav,,,,,,,,,0,0,0,1,0,101,101,175,334.585923724,9.30088572204e-06,335.309364214,0.723450752674,,,,,z,1,0.700411289581,2018_Nov_26_1232,59.990687782,chinese_cond1,001,1047,
images/licenseplate.jpg,license plate,z,sounds/animalfarm_chinese.wav,,,,,,,,,0,0,0,1,0,102,102,40,336.427629845,9.30088572204e-06,337.426554475,0.998934252071,,,,,z,1,0.983742131968,2018_Nov_26_1232,59.990687782,chinese_cond1,001,1047,
images/eraser.jpg,eraser,z,sounds/animalfarm_chinese.wav,,,,,,,,,0,0,0,1,0,103,103,110,338.531790271,9.30076930672e-06,339.31033118,0.77855085209,,,,,z,1,0.767027111608,2018_Nov_26_1232,59.990687782,chinese_cond1,001,1047,
images/computerkeyboard01a.jpg,computer keyboard,z,sounds/animalfarm_chinese.wav,,,,,,,,,0,0,0,1,0,104,104,61,340.427826766,8.98016151041e-06,341.394178252,0.966360786697,,,,,z,1,0.950474952115,2018_Nov_26_1232,59.990687782,chinese_cond1,001,1047,
images/paperclip04.jpg,eye drops,x,sounds/animalfarm_chinese.wav,,,,,,,,,0,0,0,1,0,105,105,174,342.499753367,8.98004509509e-06,343.744746789,1.24500336428,,,,,x,1,1.23387506988,2018_Nov_26_1232,59.990687782,chinese_cond1,001,1047,
images/flipflop01b.jpg,flip flop,z,sounds/animalfarm_chinese.wav,,,,,,,,,0,0,0,1,0,106,106,27,344.861723773,9.62160993367e-06,345.695226552,0.833513042657,,,,,z,1,0.817109568394,2018_Nov_26_1232,59.990687782,chinese_cond1,001,1047,
images/lightbulb03b.jpg,treadmill,x,sounds/animalfarm_chinese.wav,,,,,,,,,0,0,0,1,0,107,107,234,346.797494097,9.62160993367e-06,348.345875783,1.5483916282,,,,,x,1,1.53395159333,2018_Nov_26_1232,59.990687782,chinese_cond1,001,1047,
images/masquerademask02b.jpg,mirror,x,sounds/animalfarm_chinese.wav,,,,,,,,,0,0,0,1,0,108,108,204,349.450566678,8.98004509509e-06,350.313027462,0.862470405642,,,,,x,1,0.850431270315,2018_Nov_26_1232,59.990687782,chinese_cond1,001,1047,
images/mailbox01.jpg,mail box,z,sounds/animalfarm_chinese.wav,,,,,,,,,0,0,0,1,0,109,109,73,351.432469168,8.98004509509e-06,352.596903847,1.16444462119,,,,,z,1,1.15050715231,2018_Nov_26_1232,59.990687782,chinese_cond1,001,1047,
images/notebook02b.jpg,notebook,z,sounds/animalfarm_chinese.wav,,,,,,,,,0,0,0,1,0,110,110,7,353.702399424,9.30076930672e-06,354.597394225,0.895004422637,,,,,z,1,0.883797552204,2018_Nov_26_1232,59.990687782,chinese_cond1,001,1047,
images/showerhead01.jpg,skateboard,x,sounds/animalfarm_chinese.wav,,,,,,,,,0,0,0,1,0,111,111,223,355.705207636,9.30076930672e-06,356.964631472,1.25943377765,,,,,x,1,1.25055468292,2018_Nov_26_1232,59.990687782,chinese_cond1,001,1047,
images/cat.jpg,black olive,x,sounds/animalfarm_chinese.wav,,,,,,,,,0,0,0,1,0,112,112,133,358.095170363,9.30088572204e-06,359.53194646,1.43678636104,,,,,x,1,1.41727961332,2018_Nov_26_1232,59.990687782,chinese_cond1,001,1047,
images/toothbrush03a.jpg,parrot,x,sounds/animalfarm_chinese.wav,,,,,,,,,0,0,0,1,0,113,113,210,360.624448444,9.30088572204e-06,361.682452009,1.05801382812,,,,,x,1,1.03383132385,2018_Nov_26_1232,59.990687782,chinese_cond1,001,1047,
images/baseball01a.jpg,baseball,z,sounds/animalfarm_chinese.wav,,,,,,,,,0,0,0,1,0,114,114,74,362.815742666,8.98004509509e-06,363.532913106,0.717180383042,,,,,z,1,0.70042059035,2018_Nov_26_1232,59.990687782,chinese_cond1,001,1047,
images/hat05.jpg,hat,z,sounds/animalfarm_chinese.wav,,,,,,,,,0,0,0,1,0,115,115,15,364.636473147,9.30076930672e-06,366.533634082,1.89717119769,,,,,z,1,1.88403616683,2018_Nov_26_1232,59.990687782,chinese_cond1,001,1047,
images/egg01b (1).jpg,egg,z,sounds/animalfarm_chinese.wav,,,,,,,,,0,0,0,1,0,116,116,19,367.645793872,9.30076930672e-06,368.734185846,1.08840127534,,,,,z,1,1.06719151197,2018_Nov_26_1232,59.990687782,chinese_cond1,001,1047,
images/coin01b.jpg,arrow,x,sounds/animalfarm_chinese.wav,,,,,,,,,0,0,0,1,0,117,117,124,369.837229209,8.98004509509e-06,370.684651177,0.847431268427,,,,,x,1,0.833774749073,2018_Nov_26_1232,59.990687782,chinese_cond1,001,1047,
images/umbrella01.jpg,umbrella,z,sounds/animalfarm_chinese.wav,,,,,,,,,0,0,0,1,0,118,118,53,371.797464591,9.62149351835e-06,373.285300055,1.48784572654,,,,,z,1,1.46729183279,2018_Nov_26_1232,59.990687782,chinese_cond1,001,1047,
images/mirror02.jpg,8 ball,x,sounds/animalfarm_chinese.wav,,,,,,,,,0,0,0,1,0,119,119,121,374.387725072,9.30076930672e-06,375.335826707,0.948111256002,,,,,x,1,0.933852427057,2018_Nov_26_1232,59.990687782,chinese_cond1,001,1047,
images/bat.jpg,hand,x,sounds/animalfarm_chinese.wav,,,,,,,,,0,0,0,1,0,120,120,185,376.434020804,9.62160993367e-06,377.519647864,1.08563892602,,,,,x,1,1.06717804179,2018_Nov_26_1232,59.990687782,chinese_cond1,001,1047,
images/swan.jpg,swan,z,sounds/animalfarm_chinese.wav,,,,,,,,,0,0,0,1,0,121,121,54,378.611595004,8.98016151041e-06,379.653494967,1.04190926359,,,,,x,0,1.01714946586,2018_Nov_26_1232,59.990687782,chinese_cond1,001,1047,
images/ceilingfan02.jpg,paper clip,x,sounds/animalfarm_chinese.wav,,,,,,,,,0,0,0,1,0,122,122,208,380.753897854,9.94233414531e-06,381.570625446,0.816737534828,,,,,x,1,0.800420333748,2018_Nov_26_1232,59.990687782,chinese_cond1,001,1047,
images/triangleruler02.jpg,bottle of red wine,x,sounds/animalfarm_chinese.wav,,,,,,,,,0,0,0,1,0,123,123,134,382.679481193,8.98016151041e-06,383.854509208,1.17503827775,,,,,x,1,1.15052575408,2018_Nov_26_1232,59.990687782,chinese_cond1,001,1047,
images/doorhandle.jpg,doll,x,sounds/animalfarm_chinese.wav,,,,,,,,,0,0,0,1,0,124,124,168,384.957728966,9.30088572204e-06,385.855004397,0.897285052808,,,,,x,1,0.883795627858,2018_Nov_26_1232,59.990687782,chinese_cond1,001,1047,
images/stapler03a.jpg,candy cane,x,sounds/animalfarm_chinese.wav,,,,,,,,,0,0,0,1,0,125,125,145,386.965666431,9.94233414531e-06,387.755462961,0.78980711347,,,,,x,1,0.767085803207,2018_Nov_26_1232,59.990687782,chinese_cond1,001,1047,
images/sunglasses03a.jpg,sun glasses,z,sounds/animalfarm_chinese.wav,,,,,,,,,0,0,0,1,0,126,126,17,388.863295615,9.30076930672e-06,389.589523149,0.726237797411,,,,,z,1,0.717368644895,2018_Nov_26_1232,59.990687782,chinese_cond1,001,1047,
images/electrictoothbrush01a.jpg,banjo,x,sounds/animalfarm_chinese.wav,,,,,,,,,0,0,0,1,0,127,127,127,390.683718848,8.98004509509e-06,391.689761186,1.00605260173,,,,,x,1,0.983821670176,2018_Nov_26_1232,59.990687782,chinese_cond1,001,1047,
images/cola.jpg,comb,x,sounds/animalfarm_chinese.wav,,,,,,,,,0,0,0,1,0,128,128,157,392.810923227,9.62160993367e-06,393.69024483,0.879331866163,,,,,x,1,0.867114411318,2018_Nov_26_1232,59.990687782,chinese_cond1,001,1047,
images/apricot.jpg,apricot,z,sounds/animalfarm_chinese.wav,,,,,,,,,0,0,0,1,0,129,129,32,394.807466522,3.84862069041e-05,396.79100596,1.98355868086,,,,,z,1,1.96739895281,2018_Nov_26_1232,59.990687782,chinese_cond1,001,1047,
images/cherry01.jpg,highlighter,x,sounds/animalfarm_chinese.wav,,,,,,,,,0,0,0,1,0,130,130,187,397.899980051,9.30076930672e-06,398.80815735,0.908186919871,,,,,x,1,0.883796910755,2018_Nov_26_1232,59.990687782,chinese_cond1,001,1047,
images/rubberglove02a.jpg,lady bug,x,sounds/animalfarm_chinese.wav,,,,,,,,,0,0,0,1,0,131,131,192,399.912169604,9.30088572204e-06,400.992012503,1.07985284156,,,,,x,1,1.06716649584,2018_Nov_26_1232,59.990687782,chinese_cond1,001,1047,
images/cake.jpg,cake,z,sounds/animalfarm_chinese.wav,,,,,,,,,0,0,0,1,0,132,132,23,402.106023801,8.65943729877e-06,403.292570746,1.18655624543,,,,,z,1,1.16717714374,2018_Nov_26_1232,59.990687782,chinese_cond1,001,1047,
images/electricguitar02.jpg,electric guitar,z,sounds/animalfarm_chinese.wav,,,,,,,,,0,0,0,1,0,133,133,100,404.394337969,8.98016151041e-06,405.126356079,0.73202837212,,,,,z,1,0.717067490099,2018_Nov_26_1232,59.990687782,chinese_cond1,001,1047,
images/battery03b.jpg,battery,z,sounds/animalfarm_chinese.wav,,,,,,,,,0,0,0,1,0,134,134,34,406.233837546,9.30088572204e-06,406.893457918,0.659630314098,,,,,z,1,0.650403239415,2018_Nov_26_1232,59.990687782,chinese_cond1,001,1047,
images/sock03.jpg,sock,z,sounds/animalfarm_chinese.wav,,,,,,,,,0,0,0,1,0,135,135,90,407.999391917,8.98016151041e-06,408.710562675,0.711180699873,,,,,z,1,0.700411289581,2018_Nov_26_1232,59.990687782,chinese_cond1,001,1047,
images/leaf01a.jpg,leaf,z,sounds/animalfarm_chinese.wav,,,,,,,,,0,0,0,1,0,136,136,68,409.81309802,9.30088572204e-06,410.394308463,0.581220706343,,,,,z,1,0.567027624813,2018_Nov_26_1232,59.990687782,chinese_cond1,001,1047,
images/cupcake.jpg,scissors,x,sounds/animalfarm_chinese.wav,,,,,,,,,0,0,0,1,0,137,137,219,411.513217776,8.65932088345e-06,412.16141383,0.648205675534,,,,,x,1,0.633727795794,2018_Nov_26_1232,59.990687782,chinese_cond1,001,1047,
images/diaper01a.jpg,camera,x,sounds/animalfarm_chinese.wav,,,,,,,,,0,0,0,1,0,138,138,143,413.281386646,9.62149351835e-06,414.745461351,1.46408464655,,,,,x,1,1.45069464447,2018_Nov_26_1232,59.990687782,chinese_cond1,001,1047,
images/flower01.jpg,bus,x,sounds/animalfarm_chinese.wav,,,,,,,,,0,0,0,1,0,139,139,140,415.85808971,9.30088572204e-06,416.679179396,0.821099628694,,,,,x,1,0.800441180472,2018_Nov_26_1232,59.990687782,chinese_cond1,001,1047,
images/broom02.jpg,broom,z,sounds/animalfarm_chinese.wav,,,,,,,,,0,0,0,1,0,140,140,116,417.77282378,8.98016151041e-06,418.462935191,0.690121994936,,,,,z,1,0.667066175141,2018_Nov_26_1232,59.990687782,chinese_cond1,001,1047,
images/medal01.jpg,medal,z,sounds/animalfarm_chinese.wav,,,,,,,,,0,0,0,1,0,141,141,115,419.563787725,9.62160993367e-06,420.546891307,0.983114164905,,,,,z,1,0.967248214991,2018_Nov_26_1232,59.990687782,chinese_cond1,001,1047,
images/donut.jpg,rhinoceros,x,sounds/animalfarm_chinese.wav,,,,,,,,,0,0,0,1,0,142,142,216,421.672318263,9.30076930672e-06,422.363886378,0.691578378086,,,,,x,1,0.667068420211,2018_Nov_26_1232,59.990687782,chinese_cond1,001,1047,
images/envelope02a.jpg,grand piano,x,sounds/animalfarm_chinese.wav,,,,,,,,,0,0,0,1,0,143,143,182,423.486629562,6.67094718665e-05,424.297702564,0.811123034684,,,,,x,1,0.800428031012,2018_Nov_26_1232,59.990687782,chinese_cond1,001,1047,
images/grandpiano.jpg,tulip,x,sounds/animalfarm_chinese.wav,,,,,,,,,0,0,0,1,0,144,144,236,425.411759725,8.98016151041e-06,426.281509481,0.869760019123,,,,,x,1,0.850443136878,2018_Nov_26_1232,59.990687782,chinese_cond1,001,1047,
images/mitten01.jpg,mitten,z,sounds/animalfarm_chinese.wav,,,,,,,,,0,0,0,1,0,145,145,102,427.402258436,9.94233414531e-06,427.998591725,0.596343551297,,,,,x,0,0.583717500791,2018_Nov_26_1232,59.990687782,chinese_cond1,001,1047,
images/croissant02b.jpg,croissant,z,sounds/animalfarm_chinese.wav,,,,,,,,,0,0,0,1,0,146,146,39,429.109041443,9.62149351835e-06,429.949076619,0.840045760153,,,,,z,1,0.817111492623,2018_Nov_26_1232,59.990687782,chinese_cond1,001,1047,
images/seagull.jpg,seagull,z,sounds/animalfarm_chinese.wav,,,,,,,,,0,0,0,1,0,147,147,50,431.056975662,8.98016151041e-06,431.999562861,0.942597461632,,,,,z,1,0.93379950861,2018_Nov_26_1232,59.990687782,chinese_cond1,001,1047,
images/basketball01.jpg,basket ball,z,sounds/animalfarm_chinese.wav,,,,,,,,,0,0,0,1,0,148,148,33,433.139081872,9.30076930672e-06,434.233451401,1.09437947033,,,,,z,1,1.08384610899,2018_Nov_26_1232,59.990687782,chinese_cond1,001,1047,
images/feather03b.jpg,feather,z,sounds/animalfarm_chinese.wav,,,,,,,,,0,0,0,1,0,149,149,114,435.33423466,9.30076930672e-06,437.300693907,1.9664691895,,,,,z,1,1.95054198243,2018_Nov_26_1232,59.990687782,chinese_cond1,001,1047,
images/lightswitch02a.jpg,fork,x,sounds/animalfarm_chinese.wav,,,,,,,,,0,0,0,1,0,150,150,177,438.412652285,9.30088572204e-06,439.117971532,0.705329509568,,,,,x,1,0.68374065659,2018_Nov_26_1232,59.990687782,chinese_cond1,001,1047,
images/birthdaycandle.jpg,birthday candle,z,sounds/animalfarm_chinese.wav,,,,,,,,,0,0,0,1,0,151,151,55,440.214028681,9.30088572204e-06,441.668619095,1.45460067654,,,,,z,1,1.43395313271,2018_Nov_26_1232,59.990687782,chinese_cond1,001,1047,
images/kiwi03.jpg,backpack,x,sounds/animalfarm_chinese.wav,,,,,,,,,0,0,0,1,0,152,152,125,442.797320588,9.62160993367e-06,443.585849638,0.788558555883,,,,,x,1,0.767100556171,2018_Nov_26_1232,59.990687782,chinese_cond1,001,1047,
images/grasshopper.jpg,cauliflower,x,sounds/animalfarm_chinese.wav,,,,,,,,,0,0,0,1,0,153,153,148,444.678979268,9.30088572204e-06,445.519518293,0.840549288434,,,,,x,1,0.817098984611,2018_Nov_26_1232,59.990687782,chinese_cond1,001,1047,
images/remotecontrol01c.jpg,remote control,z,sounds/animalfarm_chinese.wav,,,,,,,,,0,0,0,1,0,154,154,85,446.629206305,9.30088572204e-06,447.319962681,0.690766639425,,,,,z,1,0.667073230958,2018_Nov_26_1232,59.990687782,chinese_cond1,001,1047,
images/bottleofredwine02.jpg,pipe,x,sounds/animalfarm_chinese.wav,,,,,,,,,0,0,0,1,0,155,155,213,448.418344078,9.62160993367e-06,449.587176451,1.16884295631,,,,,x,1,1.15051452885,2018_Nov_26_1232,59.990687782,chinese_cond1,001,1047,
images/puzzle.jpg,puzzle,z,sounds/animalfarm_chinese.wav,,,,,,,,,0,0,0,1,0,156,156,57,450.706313474,8.98016151041e-06,452.254508502,1.54820496996,,,,,z,1,1.53395576263,2018_Nov_26_1232,59.990687782,chinese_cond1,001,1047,
images/ear.jpg,bullet,x,sounds/animalfarm_chinese.wav,,,,,,,,,0,0,0,1,0,157,157,139,453.357804271,9.30076930672e-06,454.321674036,0.963879707386,,,,,x,1,0.950477838749,2018_Nov_26_1232,59.990687782,chinese_cond1,001,1047,
images/bull.jpg,button,x,sounds/animalfarm_chinese.wav,,,,,,,,,0,0,0,1,0,158,158,141,455.427805919,9.62149351835e-06,456.422180515,0.994384537684,,,,,x,1,0.983821028727,2018_Nov_26_1232,59.990687782,chinese_cond1,001,1047,
images/fork01.jpg,cooking pot,x,sounds/animalfarm_chinese.wav,,,,,,,,,0,0,0,1,0,159,159,160,457.516629902,8.65943729877e-06,458.32263555,0.806015590788,,,,,x,1,0.783712497563,2018_Nov_26_1232,59.990687782,chinese_cond1,001,1047,
images/banana04a.jpg,banana,z,sounds/animalfarm_chinese.wav,,,,,,,,,0,0,0,1,0,160,160,118,459.428726702,9.30076930672e-06,460.03972966,0.611012579175,,,,,z,1,0.600391020183,2018_Nov_26_1232,59.990687782,chinese_cond1,001,1047,
images/crocodile.jpg,triangle ruler,x,sounds/animalfarm_chinese.wav,,,,,,,,,0,0,0,1,0,161,161,235,461.136637676,9.30088572204e-06,462.840409455,1.70378172153,,,,,x,1,1.6839831199,2018_Nov_26_1232,59.990687782,chinese_cond1,001,1047,
images/hairpin.jpg,hair pin,z,sounds/animalfarm_chinese.wav,,,,,,,,,0,0,0,1,0,162,162,28,463.9311446,9.30088572204e-06,464.824225673,0.893091656966,,,,,z,1,0.88379498641,2018_Nov_26_1232,59.990687782,chinese_cond1,001,1047,
images/pineapple01a.jpg,pineapple,z,sounds/animalfarm_chinese.wav,,,,,,,,,0,0,0,1,0,163,163,51,465.937245309,8.98004509509e-06,466.724690972,0.787455283804,,,,,z,1,0.767102801241,2018_Nov_26_1232,59.990687782,chinese_cond1,001,1047,
images/cocktailshrimp01.jpg,cocktail shrimp,z,sounds/animalfarm_chinese.wav,,,,,,,,,0,0,0,1,0,164,164,30,467.839970712,8.98016151041e-06,468.508453501,0.668492731522,,,,,x,0,0.650397466612,2018_Nov_26_1232,59.990687782,chinese_cond1,001,1047,
images/mushroom01.jpg,shower head,x,sounds/animalfarm_chinese.wav,,,,,,,,,0,0,0,1,0,165,165,222,469.624938823,9.30076930672e-06,470.742348456,1.11741989572,,,,,x,1,1.10051417607,2018_Nov_26_1232,59.990687782,chinese_cond1,001,1047,
images/sportshorts02.jpg,tape,x,sounds/animalfarm_chinese.wav,,,,,,,,,0,0,0,1,0,166,166,230,471.851825434,9.62160993367e-06,472.892859457,1.04104428552,,,,,x,1,1.01715620083,2018_Nov_26_1232,59.990687782,chinese_cond1,001,1047,
images/skateboard.jpg,key,x,sounds/animalfarm_chinese.wav,,,,,,,,,0,0,0,1,0,167,167,189,473.984142068,9.30088572204e-06,474.693322125,0.709189678775,,,,,x,1,0.700437909109,2018_Nov_26_1232,59.990687782,chinese_cond1,001,1047,
images/pouch01b.jpg,pouch,z,sounds/animalfarm_chinese.wav,,,,,,,,,0,0,0,1,0,168,168,25,475.805907509,9.30088572204e-06,476.743886301,0.937988414313,,,,,z,1,0.917226694874,2018_Nov_26_1232,59.990687782,chinese_cond1,001,1047,
images/parkingmeter.jpg,ear,x,sounds/animalfarm_chinese.wav,,,,,,,,,0,0,0,1,0,169,169,171,477.845276039,8.65932088345e-06,478.64427559,0.799009492621,,,,,x,1,0.783755794517,2018_Nov_26_1232,59.990687782,chinese_cond1,001,1047,
images/squirrel.jpg,binder,x,sounds/animalfarm_chinese.wav,,,,,,,,,0,0,0,1,0,170,170,132,479.747289126,8.98004509509e-06,480.878142642,1.13086313719,,,,,x,1,1.11719667551,2018_Nov_26_1232,59.990687782,chinese_cond1,001,1047,
images/lion.jpg,lion,z,sounds/animalfarm_chinese.wav,,,,,,,,,0,0,0,1,0,171,171,44,481.990734439,9.94221772999e-06,482.728597324,0.737872827332,,,,,z,1,0.717097637709,2018_Nov_26_1232,59.990687782,chinese_cond1,001,1047,
images/chameleon.jpg,50 dollar bill,x,sounds/animalfarm_chinese.wav,,,,,,,,,0,0,0,1,0,172,172,120,483.840300731,9.62149351835e-06,485.062489456,1.22219898785,,,,,x,1,1.20054214273,2018_Nov_26_1232,59.990687782,chinese_cond1,001,1047,
images/camera01a.jpg,bull,x,sounds/animalfarm_chinese.wav,,,,,,,,,0,0,0,1,0,173,173,138,486.173997546,9.30088572204e-06,486.929630167,0.755642562988,,,,,x,1,0.733783665113,2018_Nov_26_1232,59.990687782,chinese_cond1,001,1047,
images/scissors04a.jpg,leek,x,sounds/animalfarm_chinese.wav,,,,,,,,,0,0,0,1,0,174,174,194,488.02347115,8.98004509509e-06,489.180149891,1.15668836213,,,,,x,1,1.13385031035,2018_Nov_26_1232,59.990687782,chinese_cond1,001,1047,
images/mattress.jpg,cat,x,sounds/animalfarm_chinese.wav,,,,,,,,,0,0,0,1,0,175,175,147,490.284502428,9.30076930672e-06,491.247325688,0.962832881836,,,,,x,1,0.950477197184,2018_Nov_26_1232,59.990687782,chinese_cond1,001,1047,
images/snowman.jpg,globe,x,sounds/animalfarm_chinese.wav,,,,,,,,,0,0,0,1,0,176,176,180,492.358423578,8.65943729877e-06,492.9977508,0.639336843742,,,,,x,1,0.617061332334,2018_Nov_26_1232,59.990687782,chinese_cond1,001,1047,
images/butterfly.jpg,butterfly,z,sounds/animalfarm_chinese.wav,,,,,,,,,0,0,0,1,0,177,177,91,494.105298336,8.98004509509e-06,494.964909535,0.859620820731,,,,,z,1,0.850469756522,2018_Nov_26_1232,59.990687782,chinese_cond1,001,1047,
images/50dollarbill.jpg,cherry,x,sounds/animalfarm_chinese.wav,,,,,,,,,0,0,0,1,0,178,178,151,496.085519298,8.98004509509e-06,496.948712924,0.863203568384,,,,,x,1,0.850457248511,2018_Nov_26_1232,59.990687782,chinese_cond1,001,1047,
images/tie01.jpg,bench,x,sounds/animalfarm_chinese.wav,,,,,,,,,0,0,0,1,0,179,179,130,498.047413116,9.62149351835e-06,499.816118227,1.7687153744,,,,,x,1,1.75071183499,2018_Nov_26_1232,59.990687782,chinese_cond1,001,1047,
images/nailpolish02b.jpg,nail polish,z,sounds/animalfarm_chinese.wav,,,,,,,,,0,0,0,1,0,180,180,94,500.925283788,9.30076930672e-06,501.68321115,0.757937304559,,,,,z,1,0.733766987687,2018_Nov_26_1232,59.990687782,chinese_cond1,001,1047,
images/8ball.jpg,nail clipper,x,sounds/animalfarm_chinese.wav,,,,,,,,,0,0,0,1,0,181,181,206,502.799195509,8.98016151041e-06,503.600337139,0.801151572261,,,,,x,1,0.783770868438,2018_Nov_26_1232,59.990687782,chinese_cond1,001,1047,
images/worldmap.jpg,scooter,x,sounds/animalfarm_chinese.wav,,,,,,,,,0,0,0,1,0,182,182,220,504.731297454,8.98004509509e-06,505.467474963,0.736187130329,,,,,x,1,0.717104051961,2018_Nov_26_1232,59.990687782,chinese_cond1,001,1047,
images/corkscrew02a.jpg,masquerade mask,x,sounds/animalfarm_chinese.wav,,,,,,,,,0,0,0,1,0,183,183,201,506.571772336,8.98016151041e-06,507.968085932,1.39632417983,,,,,x,1,1.3839386683,2018_Nov_26_1232,59.990687782,chinese_cond1,001,1047,
images/aloe02.jpg,broad sword,x,sounds/animalfarm_chinese.wav,,,,,,,,,0,0,0,1,0,184,184,137,509.088453553,9.30076930672e-06,509.651813439,0.563369508251,,,,,x,1,0.550369179226,2018_Nov_26_1232,59.990687782,chinese_cond1,001,1047,
images/tent.jpg,tent,z,sounds/animalfarm_chinese.wav,,,,,,,,,0,0,0,1,0,185,185,11,510.778609223,9.30088572204e-06,511.335563718,0.556964757503,,,,,x,0,0.533697904903,2018_Nov_26_1232,59.990687782,chinese_cond1,001,1047,
images/table02.jpg,table,z,sounds/animalfarm_chinese.wav,,,,,,,,,0,0,0,1,0,186,186,49,512.450526588,9.30076930672e-06,513.202668187,0.75215154083,,,,,z,1,0.73375255533,2018_Nov_26_1232,59.990687782,chinese_cond1,001,1047,
images/backpack01b.jpg,swallow,x,sounds/animalfarm_chinese.wav,,,,,,,,,0,0,0,1,0,187,187,228,514.333574941,8.98004509509e-06,515.236500472,0.902935152524,,,,,x,1,0.883795627858,2018_Nov_26_1232,59.990687782,chinese_cond1,001,1047,
images/cockroach02.jpg,belt,x,sounds/animalfarm_chinese.wav,,,,,,,,,0,0,0,1,0,188,188,129,516.335681742,8.98016151041e-06,516.92025043,0.584578630282,,,,,x,1,0.567050075042,2018_Nov_26_1232,59.990687782,chinese_cond1,001,1047,
images/daisy.jpg,daisy,z,sounds/animalfarm_chinese.wav,,,,,,,,,0,0,0,1,0,189,189,6,518.022063837,9.30076930672e-06,519.321060501,1.2990066061,,,,,x,0,1.28412045166,2018_Nov_26_1232,59.990687782,chinese_cond1,001,1047,
images/swallow.jpg,mattress,x,sounds/animalfarm_chinese.wav,,,,,,,,,0,0,0,1,0,190,190,202,520.421251072,9.94233414531e-06,521.171284266,0.750043778098,,,,,x,1,0.733750630985,2018_Nov_26_1232,59.990687782,chinese_cond1,001,1047,
images/eyedrops.jpg,bicycle,x,sounds/animalfarm_chinese.wav,,,,,,,,,0,0,0,1,0,191,191,131,522.272036416,8.98016151041e-06,522.938384823,0.666358028422,,,,,x,1,0.650407729554,2018_Nov_26_1232,59.990687782,chinese_cond1,001,1047,
images/raisin.jpg,ruler,x,sounds/animalfarm_chinese.wav,,,,,,,,,0,0,0,1,0,192,192,218,524.043192138,8.98016151041e-06,524.722139976,0.678957459284,,,,,x,1,0.667071627453,2018_Nov_26_1232,59.990687782,chinese_cond1,001,1047,
images/graduationcap.jpg,graduation cap,z,sounds/animalfarm_chinese.wav,,,,,,,,,0,0,0,1,0,193,193,35,525.824538053,9.30088572204e-06,526.605928869,0.781400757842,,,,,z,1,0.767094783252,2018_Nov_26_1232,59.990687782,chinese_cond1,001,1047,
images/honeycomb.jpg,honey comb,z,sounds/animalfarm_chinese.wav,,,,,,,,,0,0,0,1,0,194,194,59,527.719313162,8.98016151041e-06,528.756442756,1.0371388949,,,,,z,1,1.01713278843,2018_Nov_26_1232,59.990687782,chinese_cond1,001,1047,
images/doll.jpg,carrot,x,sounds/animalfarm_chinese.wav,,,,,,,,,0,0,0,1,0,195,195,146,529.866290806,8.98004509509e-06,531.05701479,1.19073424675,,,,,x,1,1.16718580318,2018_Nov_26_1232,59.990687782,chinese_cond1,001,1047,
images/radish01.jpg,raisin,x,sounds/animalfarm_chinese.wav,,,,,,,,,0,0,0,1,0,196,196,214,532.167488241,8.98004509509e-06,533.757666618,1.59018864029,,,,,x,1,1.56725854217,2018_Nov_26_1232,59.990687782,chinese_cond1,001,1047,
images/giraffe.jpg,lettuce,x,sounds/animalfarm_chinese.wav,,,,,,,,,0,0,0,1,0,197,197,195,534.858608633,8.98016151041e-06,535.608118735,0.749519723933,,,,,x,1,0.73374870664,2018_Nov_26_1232,59.990687782,chinese_cond1,001,1047,
images/beermug01b.jpg,beer mug,z,sounds/animalfarm_chinese.wav,,,,,,,,,0,0,0,1,0,198,198,111,536.724750946,9.30088572204e-06,537.541949995,0.817208991153,,,,,z,1,0.800455292105,2018_Nov_26_1232,59.990687782,chinese_cond1,001,1047,
images/pingpongpaddle01c (1).jpg,ping pong paddle,z,sounds/animalfarm_chinese.wav,,,,,,,,,0,0,0,1,0,199,199,10,538.653556224,8.98016151041e-06,539.342378988,0.688832064741,,,,,z,1,0.667082852451,2018_Nov_26_1232,59.990687782,chinese_cond1,001,1047,
images/lantern03.jpg,lantern,z,sounds/animalfarm_chinese.wav,,,,,,,,,0,0,0,1,0,200,200,5,540.45102755,9.62149351835e-06,541.176147964,0.725129714585,,,,,z,1,0.700418666122,2018_Nov_26_1232,59.990687782,chinese_cond1,001,1047,
images/hanger02a.jpg,hanger,z,sounds/animalfarm_chinese.wav,,,,,,,,,0,0,0,1,0,201,201,88,542.269542828,9.30088572204e-06,542.959919153,0.69038626703,,,,,z,1,0.667032178957,2018_Nov_26_1232,59.990687782,chinese_cond1,001,1047,
images/carrot02.jpg,corkscrew,x,sounds/animalfarm_chinese.wav,,,,,,,,,0,0,0,1,0,202,202,161,544.061465402,9.30088572204e-06,545.077108452,1.01565299276,,,,,x,1,1.00048236083,2018_Nov_26_1232,59.990687782,chinese_cond1,001,1047,
images/hand01a.jpg,cupcake,x,sounds/animalfarm_chinese.wav,,,,,,,,,0,0,0,1,0,203,203,163,546.187261506,9.30076930672e-06,547.310956582,1.12370533915,,,,,x,1,1.10049910226,2018_Nov_26_1232,59.990687782,chinese_cond1,001,1047,
images/belt02a.jpg,snowman,x,sounds/animalfarm_chinese.wav,,,,,,,,,0,0,0,1,0,204,204,224,548.414141702,9.30088572204e-06,549.061401258,0.647269818583,,,,,x,1,0.633725230116,2018_Nov_26_1232,59.990687782,chinese_cond1,001,1047,
images/floorlamp.jpg,floor lamp,z,sounds/animalfarm_chinese.wav,,,,,,,,,0,0,0,1,0,205,205,26,550.153733261,9.62149351835e-06,551.311944716,1.15822171781,,,,,z,1,1.13383876451,2018_Nov_26_1232,59.990687782,chinese_cond1,001,1047,
images/parkbench03.jpg,park bench,z,sounds/animalfarm_chinese.wav,,,,,,,,,0,0,0,1,0,206,206,71,552.416301742,8.98016151041e-06,553.24575577,0.829464290873,,,,,x,0,0.817079100176,2018_Nov_26_1232,59.990687782,chinese_cond1,001,1047,
images/gps.jpg,gps,z,sounds/animalfarm_chinese.wav,,,,,,,,,0,0,0,1,0,207,207,21,554.364410433,9.30088572204e-06,555.112877879,0.74847770913,,,,,x,0,0.733763459721,2018_Nov_26_1232,59.990687782,chinese_cond1,001,1047,
images/cauliflower01.jpg,glue stick,x,sounds/animalfarm_chinese.wav,,,,,,,,,0,0,0,1,0,208,208,181,556.228611436,9.30088572204e-06,557.013332914,0.784731741413,,,,,x,1,0.76709157601,2018_Nov_26_1232,59.990687782,chinese_cond1,001,1047,
images/bowtie.jpg,bowtie,z,sounds/animalfarm_chinese.wav,,,,,,,,,0,0,0,1,0,209,209,89,558.123793216,9.30076930672e-06,558.780263169,0.656479894998,,,,,z,1,0.633505537757,2018_Nov_26_1232,59.990687782,chinese_cond1,001,1047,
images/plate01b.jpg,plate,z,sounds/animalfarm_chinese.wav,,,,,,,,,0,0,0,1,0,210,210,3,559.878762911,8.65943729877e-06,560.597546567,0.718793597654,,,,,z,1,0.700420590467,2018_Nov_26_1232,59.990687782,chinese_cond1,001,1047,
images/broadsword.jpg,teapot,x,sounds/animalfarm_chinese.wav,,,,,,,,,0,0,0,1,0,211,211,231,561.690442393,8.98016151041e-06,563.348245894,1.6578134431,,,,,x,1,1.63401163183,2018_Nov_26_1232,59.990687782,chinese_cond1,001,1047,
,,,sounds/animalfarm_chinese.wav,,,,,,,,,0,0,0,1,,,,,,,,,,,,,,,,2018_Nov_26_1232,59.990687782,chinese_cond1,001,1047,
images/hanger02a.jpg,hanger,z,sounds/greatgatsby_english.wav,,,,,,,,,0,1,1,0,0,0,0,88,584.467006393,9.94221772999e-06,586.303799746,1.83680393628,,,,574.351048654,x,0,1.81734369299,2018_Nov_26_1232,59.990687782,chinese_cond1,001,1047,
images/fryingpan01.jpg,frying pan,z,sounds/greatgatsby_english.wav,,,,,,,,,0,1,1,0,0,1,1,45,587.403516295,9.30076930672e-06,588.154083486,0.750577453873,,,,,z,1,0.733587064547,2018_Nov_26_1232,59.990687782,chinese_cond1,001,1047,
images/marker01a.jpg,marker,z,sounds/greatgatsby_english.wav,,,,,,,,,0,1,1,0,0,2,2,95,589.251582265,8.98016151041e-06,590.088061634,0.836489311419,,,,,x,0,0.817115982762,2018_Nov_26_1232,59.990687782,chinese_cond1,001,1047,
images/pictureframe04.jpg,picture frame,z,sounds/greatgatsby_english.wav,,,,,,,,,0,1,1,0,0,3,3,41,591.209171077,8.65943729877e-06,592.32193029,1.11276883446,,,,,z,1,1.10052347684,2018_Nov_26_1232,59.990687782,chinese_cond1,001,1047,
images/elbow.jpg,elbow,z,sounds/greatgatsby_english.wav,,,,,,,,,0,1,1,0,0,4,4,105,593.432512785,8.98016151041e-06,594.139043707,0.706540863728,,,,,z,1,0.683745467453,2018_Nov_26_1232,59.990687782,chinese_cond1,001,1047,
images/shotglass.jpg,shot glass,z,sounds/greatgatsby_english.wav,,,,,,,,,0,1,1,0,0,5,5,86,595.245736206,8.65943729877e-06,596.48944932,1.24372273497,,,,,z,1,1.2336919395,2018_Nov_26_1232,59.990687782,chinese_cond1,001,1047,
images/bicycle.jpg,hand bag,x,sounds/greatgatsby_english.wav,,,,,,,,,0,1,1,0,0,6,6,186,597.599020269,9.30088572204e-06,599.340369044,1.74135903874,,,,,x,1,1.71740071685,2018_Nov_26_1232,59.990687782,chinese_cond1,001,1047,
images/bottleofredwine02.jpg,pipe,x,sounds/greatgatsby_english.wav,,,,,,,,,0,1,1,0,0,7,7,213,600.43843261,9.62149351835e-06,601.407469472,0.969047446386,,,,,x,1,0.950465330621,2018_Nov_26_1232,59.990687782,chinese_cond1,001,1047,
images/gorilla.jpg,gorilla,z,sounds/greatgatsby_english.wav,,,,,,,,,0,1,1,0,0,8,8,80,602.517768453,9.30088572204e-06,603.291262534,0.773503703414,,,,,z,1,0.750425753882,2018_Nov_26_1232,59.990687782,chinese_cond1,001,1047,
images/coin01b.jpg,arrow,x,sounds/greatgatsby_english.wav,,,,,,,,,0,1,1,0,0,9,9,124,604.393975237,9.30076930672e-06,605.641842939,1.24787796522,,,,,x,1,1.23388661572,2018_Nov_26_1232,59.990687782,chinese_cond1,001,1047,
images/cheetah.jpg,cheetah,z,sounds/greatgatsby_english.wav,,,,,,,,,0,1,1,0,0,10,10,82,606.743223055,9.30088572204e-06,607.675694789,0.932481996482,,,,,x,0,0.917161268182,2018_Nov_26_1232,59.990687782,chinese_cond1,001,1047,
images/chameleon.jpg,50 dollar bill,x,sounds/greatgatsby_english.wav,,,,,,,,,0,1,1,0,0,11,11,120,608.784952396,9.62160993367e-06,610.126289369,1.3413472363,,,,,x,1,1.31726319261,2018_Nov_26_1232,59.990687782,chinese_cond1,001,1047,
images/pineapple01a.jpg,pineapple,z,sounds/greatgatsby_english.wav,,,,,,,,,0,1,1,0,0,12,12,51,611.237105989,9.30088572204e-06,611.993388706,0.756292018108,,,,,z,1,0.733762818272,2018_Nov_26_1232,59.990687782,chinese_cond1,001,1047,
images/bull.jpg,button,x,sounds/greatgatsby_english.wav,,,,,,,,,0,1,1,0,0,13,13,141,613.099244451,8.98016151041e-06,614.060571238,0.961337050307,,,,,x,1,0.950497723301,2018_Nov_26_1232,59.990687782,chinese_cond1,001,1047,
images/boxingglove02a.jpg,bracelet,x,sounds/greatgatsby_english.wav,,,,,,,,,0,1,1,0,0,14,14,135,615.170984715,9.62149351835e-06,615.94435949,0.773385037435,,,,,x,1,0.750436658389,2018_Nov_26_1232,59.990687782,chinese_cond1,001,1047,
images/showerhead01.jpg,skateboard,x,sounds/greatgatsby_english.wav,,,,,,,,,0,1,1,0,0,15,15,223,617.05161902,9.62160993367e-06,618.144885276,1.09327619837,,,,,x,1,1.08385188191,2018_Nov_26_1232,59.990687782,chinese_cond1,001,1047,
images/lightbulb03b.jpg,treadmill,x,sounds/greatgatsby_english.wav,,,,,,,,,0,1,1,0,0,16,16,234,619.246686496,9.30088572204e-06,620.045333576,0.798657343606,,,,,x,1,0.783757398254,2018_Nov_26_1232,59.990687782,chinese_cond1,001,1047,
images/clothespin02a.jpg,clothes pin,z,sounds/greatgatsby_english.wav,,,,,,,,,0,1,1,0,0,17,17,79,621.149530885,8.98016151041e-06,622.379254894,1.22973395116,,,,,z,1,1.21722047287,2018_Nov_26_1232,59.990687782,chinese_cond1,001,1047,
images/lion.jpg,lion,z,sounds/greatgatsby_english.wav,,,,,,,,,0,1,1,0,0,18,18,44,623.49145766,8.98016151041e-06,624.163019668,0.671572271734,,,,,z,1,0.650420558406,2018_Nov_26_1232,59.990687782,chinese_cond1,001,1047,
images/volleyball.jpg,volley ball,z,sounds/greatgatsby_english.wav,,,,,,,,,0,1,1,0,0,19,19,2,625.295100574,9.30076930672e-06,626.413562164,1.11847185274,,,,,z,1,1.10047857638,2018_Nov_26_1232,59.990687782,chinese_cond1,001,1047,
images/bench02.jpg,electric toothbrush,x,sounds/greatgatsby_english.wav,,,,,,,,,0,1,1,0,0,20,20,172,627.52222131,9.30088572204e-06,628.297348812,0.775138085359,,,,,x,1,0.750422226032,2018_Nov_26_1232,59.990687782,chinese_cond1,001,1047,
images/bowtie.jpg,bowtie,z,sounds/greatgatsby_english.wav,,,,,,,,,0,1,1,0,0,21,21,89,629.405833807,9.94233414531e-06,630.064455461,0.658631596365,,,,,z,1,0.65041478537,2018_Nov_26_1232,59.990687782,chinese_cond1,001,1047,
images/umbrella01.jpg,umbrella,z,sounds/greatgatsby_english.wav,,,,,,,,,0,1,1,0,0,22,22,53,631.176130966,1.02630583569e-05,631.798205451,0.622085068724,,,,,x,0,0.600401283125,2018_Nov_26_1232,59.990687782,chinese_cond1,001,1047,
images/belt02a.jpg,snowman,x,sounds/greatgatsby_english.wav,,,,,,,,,0,1,1,0,0,23,23,224,632.899334124,1.02629419416e-05,633.848700031,0.949376170174,,,,,x,1,0.933796622092,2018_Nov_26_1232,59.990687782,chinese_cond1,001,1047,
images/barrel01.jpg,barrel,z,sounds/greatgatsby_english.wav,,,,,,,,,0,1,1,0,0,24,24,9,634.978101654,8.65943729877e-06,635.932750759,0.954677648959,,,,,z,1,0.933916891576,2018_Nov_26_1232,59.990687782,chinese_cond1,001,1047,
images/apricot.jpg,apricot,z,sounds/greatgatsby_english.wav,,,,,,,,,0,1,1,0,0,25,25,32,637.047225175,9.30088572204e-06,637.98288902,0.935674108798,,,,,z,1,0.916981986491,2018_Nov_26_1232,59.990687782,chinese_cond1,001,1047,
images/triangleruler02.jpg,bottle of red wine,x,sounds/greatgatsby_english.wav,,,,,,,,,0,1,1,0,0,26,26,134,639.093407372,8.98016151041e-06,639.883508585,0.790111154667,,,,,x,1,0.767104084138,2018_Nov_26_1232,59.990687782,chinese_cond1,001,1047,
images/doll.jpg,carrot,x,sounds/greatgatsby_english.wav,,,,,,,,,0,1,1,0,0,27,27,146,640.994161959,8.98016151041e-06,641.833989951,0.839838255197,,,,,x,1,0.817123680026,2018_Nov_26_1232,59.990687782,chinese_cond1,001,1047,
images/screw03c.jpg,screw,z,sounds/greatgatsby_english.wav,,,,,,,,,0,1,1,0,0,28,28,84,642.925914321,9.30088572204e-06,643.834481292,0.90857691376,,,,,z,1,0.900480372366,2018_Nov_26_1232,59.990687782,chinese_cond1,001,1047,
images/hairdryer03a.jpg,hairdryer,z,sounds/greatgatsby_english.wav,,,,,,,,,0,1,1,0,0,29,29,119,644.931898289,9.30088572204e-06,645.701851958,0.769963611267,,,,,z,1,0.750684894621,2018_Nov_26_1232,59.990687782,chinese_cond1,001,1047,
images/binder03b.jpg,dj mixer,x,sounds/greatgatsby_english.wav,,,,,,,,,0,1,1,0,0,30,30,167,646.814536764,8.98016151041e-06,647.9188088,1.10428165772,,,,,x,1,1.08385669265,2018_Nov_26_1232,59.990687782,chinese_cond1,001,1047,
images/grandpiano.jpg,tulip,x,sounds/greatgatsby_english.wav,,,,,,,,,0,1,1,0,0,31,31,236,649.032590464,9.30076930672e-06,649.902629829,0.870049307239,,,,,x,1,0.850449230638,2018_Nov_26_1232,59.990687782,chinese_cond1,001,1047,
images/candycane01a.jpg,lip,x,sounds/greatgatsby_english.wav,,,,,,,,,0,1,1,0,0,32,32,200,650.995900895,8.98016151041e-06,651.703043748,0.70715279493,,,,,z,0,0.68373712874,2018_Nov_26_1232,59.990687782,chinese_cond1,001,1047,
images/glasses01b.jpg,calculator,x,sounds/greatgatsby_english.wav,,,,,,,,,0,1,1,0,0,33,33,142,652.795132967,9.30088572204e-06,653.653529284,0.858405938721,,,,,x,1,0.85044987197,2018_Nov_26_1232,59.990687782,chinese_cond1,001,1047,
images/mushroom01.jpg,shower head,x,sounds/greatgatsby_english.wav,,,,,,,,,0,1,1,0,0,34,34,222,654.769168871,8.65943729877e-06,655.670704086,0.901545158122,,,,,x,1,0.883813267341,2018_Nov_26_1232,59.990687782,chinese_cond1,001,1047,
images/dreamcatcher.jpg,dream catcher,z,sounds/greatgatsby_english.wav,,,,,,,,,0,1,1,0,0,35,35,48,656.769138082,9.62149351835e-06,658.037938767,1.2688112692,,,,,z,1,1.25055692787,2018_Nov_26_1232,59.990687782,chinese_cond1,001,1047,
images/broom02.jpg,broom,z,sounds/greatgatsby_english.wav,,,,,,,,,0,1,1,0,0,36,36,116,659.129013874,9.30088572204e-06,660.071757583,0.942753972253,,,,,z,1,0.933815223747,2018_Nov_26_1232,59.990687782,chinese_cond1,001,1047,
images/ladybug03.jpg,giraffe,x,sounds/greatgatsby_english.wav,,,,,,,,,0,1,1,0,0,37,37,178,661.17437856,9.30088572204e-06,661.805530664,0.631163009093,,,,,x,1,0.617065822356,2018_Nov_26_1232,59.990687782,chinese_cond1,001,1047,
images/parkbench03.jpg,park bench,z,sounds/greatgatsby_english.wav,,,,,,,,,0,1,1,0,0,38,38,71,662.909414952,9.62160993367e-06,663.655965462,0.746560773929,,,,,z,1,0.733760252595,2018_Nov_26_1232,59.990687782,chinese_cond1,001,1047,
images/bowl02b (1).jpg,bowl,z,sounds/greatgatsby_english.wav,,,,,,,,,0,1,1,0,0,39,39,24,664.774903961,9.30088572204e-06,665.556424347,0.781530328095,,,,,z,1,0.767106329091,2018_Nov_26_1232,59.990687782,chinese_cond1,001,1047,
images/beachumbrella01.jpg,beach umbrella,z,sounds/greatgatsby_english.wav,,,,,,,,,0,1,1,0,0,40,40,92,666.661066813,8.98016151041e-06,668.040377832,1.37932096177,,,,,z,1,1.36723788793,2018_Nov_26_1232,59.990687782,chinese_cond1,001,1047,
images/leaf01a.jpg,leaf,z,sounds/greatgatsby_english.wav,,,,,,,,,0,1,1,0,0,41,41,68,669.142399707,8.98016151041e-06,670.290911348,1.14852158341,,,,,z,1,1.13385351759,2018_Nov_26_1232,59.990687782,chinese_cond1,001,1047,
images/fork01.jpg,cooking pot,x,sounds/greatgatsby_english.wav,,,,,,,,,0,1,1,0,0,42,42,160,671.384995757,8.98004509509e-06,673.108266266,1.72328109248,,,,,x,1,1.70066850586,2018_Nov_26_1232,59.990687782,chinese_cond1,001,1047,
images/toucan.jpg,toucan,z,sounds/greatgatsby_english.wav,,,,,,,,,0,1,1,0,0,43,43,81,674.20719064,9.62160993367e-06,675.058745067,0.851565010729,,,,,z,1,0.833790784935,2018_Nov_26_1232,59.990687782,chinese_cond1,001,1047,
images/flipflop01b.jpg,flip flop,z,sounds/greatgatsby_english.wav,,,,,,,,,0,1,1,0,0,44,44,27,676.175143153,9.30088572204e-06,677.209281404,1.0341481939,,,,,z,1,1.01717833045,2018_Nov_26_1232,59.990687782,chinese_cond1,001,1047,
images/bus.jpg,microphone,x,sounds/greatgatsby_english.wav,,,,,,,,,0,1,1,0,0,45,45,203,678.326774103,1.02630583569e-05,679.326441197,0.999677998479,,,,,x,1,0.983819104382,2018_Nov_26_1232,59.990687782,chinese_cond1,001,1047,
images/remotecontrol01c.jpg,remote control,z,sounds/greatgatsby_english.wav,,,,,,,,,0,1,1,0,0,46,46,85,680.434033312,9.62160993367e-06,681.260265722,0.826242672396,,,,,z,1,0.817134905141,2018_Nov_26_1232,59.990687782,chinese_cond1,001,1047,
images/raisin.jpg,ruler,x,sounds/greatgatsby_english.wav,,,,,,,,,0,1,1,0,0,47,47,218,682.365322556,9.30076930672e-06,683.51080052,1.14548758522,,,,,x,1,1.13385929039,2018_Nov_26_1232,59.990687782,chinese_cond1,001,1047,
images/tank.jpg,wallet,x,sounds/greatgatsby_english.wav,,,,,,,,,0,1,1,0,0,48,48,237,684.61383779,9.62149351835e-06,685.461280604,0.847453077207,,,,,x,1,0.833707077429,2018_Nov_26_1232,59.990687782,chinese_cond1,001,1047,
images/icecube02 (2).jpg,aloe,x,sounds/greatgatsby_english.wav,,,,,,,,,0,1,1,0,0,49,49,122,686.57161775,8.98016151041e-06,688.528717145,1.95710965828,,,,,x,1,1.93408013741,2018_Nov_26_1232,59.990687782,chinese_cond1,001,1047,
images/ostrich.jpg,ostrich,z,sounds/greatgatsby_english.wav,,,,,,,,,0,1,1,0,0,50,50,76,689.627082185,9.30076930672e-06,691.145988548,1.5189166253,,,,,z,1,1.50061064831,2018_Nov_26_1232,59.990687782,chinese_cond1,001,1047,
images/mitten01.jpg,mitten,z,sounds/greatgatsby_english.wav,,,,,,,,,0,1,1,0,0,51,51,102,692.265990549,9.62160993367e-06,693.413209373,1.14722908742,,,,,x,0,1.13382786012,2018_Nov_26_1232,59.990687782,chinese_cond1,001,1047,
images/pen03c.jpg,pepper,x,sounds/greatgatsby_english.wav,,,,,,,,,0,1,1,0,0,52,52,211,694.506587881,9.62160993367e-06,695.763781439,1.25720414193,,,,,x,1,1.23387635278,2018_Nov_26_1232,59.990687782,chinese_cond1,001,1047,
images/cocktailshrimp01.jpg,cocktail shrimp,z,sounds/greatgatsby_english.wav,,,,,,,,,0,1,1,0,0,53,53,30,696.878303642,8.98016151041e-06,697.514209438,0.635915417457,,,,,z,1,0.617073519621,2018_Nov_26_1232,59.990687782,chinese_cond1,001,1047,
images/highheelshoe02a.jpg,high heel shoe,z,sounds/greatgatsby_english.wav,,,,,,,,,0,1,1,0,0,54,54,75,698.620721694,8.98016151041e-06,699.448147177,0.827435424901,,,,,z,1,0.817252288223,2018_Nov_26_1232,59.990687782,chinese_cond1,001,1047,
images/paintbrush03a.jpg,paint brush,z,sounds/greatgatsby_english.wav,,,,,,,,,0,1,1,0,0,55,55,0,700.548433001,8.98016151041e-06,701.281784337,0.733361278544,,,,,z,1,0.71708352596,2018_Nov_26_1232,59.990687782,chinese_cond1,001,1047,
images/paperclip04.jpg,eye drops,x,sounds/greatgatsby_english.wav,,,,,,,,,0,1,1,0,0,56,56,174,702.387085239,9.30076930672e-06,703.198919307,0.811844651587,,,,,x,1,0.800425465335,2018_Nov_26_1232,59.990687782,chinese_cond1,001,1047,
images/hairband.jpg,hairband,z,sounds/greatgatsby_english.wav,,,,,,,,,0,1,1,0,0,57,57,66,704.308331821,9.30076930672e-06,705.116053314,0.807731756009,,,,,z,1,0.783762209001,2018_Nov_26_1232,59.990687782,chinese_cond1,001,1047,
images/radish01.jpg,raisin,x,sounds/greatgatsby_english.wav,,,,,,,,,0,1,1,0,0,58,58,214,706.226724007,9.30088572204e-06,707.216566207,0.989852463012,,,,,x,1,0.967151037301,2018_Nov_26_1232,59.990687782,chinese_cond1,001,1047,
images/cauliflower01.jpg,glue stick,x,sounds/greatgatsby_english.wav,,,,,,,,,0,1,1,0,0,59,59,181,708.332533568,9.94221772999e-06,709.083699861,0.751176556223,,,,,x,1,0.733763459837,2018_Nov_26_1232,59.990687782,chinese_cond1,001,1047,
images/computermouse02a.jpg,world map,x,sounds/greatgatsby_english.wav,,,,,,,,,0,1,1,0,0,60,60,239,710.184821478,9.94221772999e-06,711.200864144,1.01605292875,,,,,x,1,1.00048620941,2018_Nov_26_1232,59.990687782,chinese_cond1,001,1047,
images/corn01.jpg,corn,z,sounds/greatgatsby_english.wav,,,,,,,,,0,1,1,0,0,61,61,22,712.300080693,9.62160993367e-06,713.168014861,0.867943789577,,,,,z,1,0.850449230522,2018_Nov_26_1232,59.990687782,chinese_cond1,001,1047,
images/honeycomb.jpg,honey comb,z,sounds/greatgatsby_english.wav,,,,,,,,,0,1,1,0,0,62,62,59,714.281068814,9.62160993367e-06,714.968458928,0.687400056049,,,,,z,1,0.667084456072,2018_Nov_26_1232,59.990687782,chinese_cond1,001,1047,
images/axe01.jpg,axe,z,sounds/greatgatsby_english.wav,,,,,,,,,0,1,1,0,0,63,63,104,716.071302483,9.30076930672e-06,716.918922976,0.847630113945,,,,,x,0,0.833781484049,2018_Nov_26_1232,59.990687782,chinese_cond1,001,1047,
images/teapot.jpg,light switch,x,sounds/greatgatsby_english.wav,,,,,,,,,0,1,1,0,0,64,64,197,718.033782254,8.98016151041e-06,718.819383143,0.785610830993,,,,,x,1,0.767093500355,2018_Nov_26_1232,59.990687782,chinese_cond1,001,1047,
images/panda.jpg,panda,z,sounds/greatgatsby_english.wav,,,,,,,,,0,1,1,0,0,65,65,83,719.928119582,9.62149351835e-06,720.503136307,0.575026988401,,,,,z,1,0.567043981398,2018_Nov_26_1232,59.990687782,chinese_cond1,001,1047,
images/rhinoceros01.jpg,envelope,x,sounds/greatgatsby_english.wav,,,,,,,,,0,1,1,0,0,66,66,173,721.615304756,9.30088572204e-06,722.40359904,0.788304867456,,,,,x,1,0.767076181597,2018_Nov_26_1232,59.990687782,chinese_cond1,001,1047,
images/ladder.jpg,ladder,z,sounds/greatgatsby_english.wav,,,,,,,,,0,1,1,0,0,67,67,113,723.496176072,9.30088572204e-06,724.170688692,0.674523203634,,,,,z,1,0.650402918807,2018_Nov_26_1232,59.990687782,chinese_cond1,001,1047,
images/puma.jpg,puma,z,sounds/greatgatsby_english.wav,,,,,,,,,0,1,1,0,0,68,68,4,725.267878299,8.98016151041e-06,726.221190649,0.953322292073,,,,,z,1,0.933806885034,2018_Nov_26_1232,59.990687782,chinese_cond1,001,1047,
images/lip.jpg,boxing glove,x,sounds/greatgatsby_english.wav,,,,,,,,,0,1,1,0,0,69,69,136,727.323364543,9.62160993367e-06,728.405056706,1.08170242573,,,,,x,1,1.06716777885,2018_Nov_26_1232,59.990687782,chinese_cond1,001,1047,
images/aquarium.jpg,computer mouse,x,sounds/greatgatsby_english.wav,,,,,,,,,0,1,1,0,0,70,70,159,729.540173534,9.62149351835e-06,730.472230258,0.932066665846,,,,,x,1,0.917135290103,2018_Nov_26_1232,59.990687782,chinese_cond1,001,1047,
images/chessknight02b (1).jpg,cockroach,x,sounds/greatgatsby_english.wav,,,,,,,,,0,1,1,0,0,71,71,155,731.580897743,8.98016151041e-06,732.806304238,1.22541643714,,,,,x,1,1.21738692583,2018_Nov_26_1232,59.990687782,chinese_cond1,001,1047,
images/cat.jpg,black olive,x,sounds/greatgatsby_english.wav,,,,,,,,,0,1,1,0,0,72,72,133,733.936510543,9.30076930672e-06,734.939979436,1.00347915548,,,,,x,1,0.983810445061,2018_Nov_26_1232,59.990687782,chinese_cond1,001,1047,
images/cupcake.jpg,scissors,x,sounds/greatgatsby_english.wav,,,,,,,,,0,1,1,0,0,73,73,219,736.057113892,8.65932088345e-06,736.790425459,0.733321830165,,,,,x,1,0.717086091754,2018_Nov_26_1232,59.990687782,chinese_cond1,001,1047,
images/lollipop03b.jpg,lollipop,z,sounds/greatgatsby_english.wav,,,,,,,,,0,1,1,0,0,74,74,42,737.883233087,9.30088572204e-06,738.874269323,0.991045856965,,,,,z,1,0.967133397819,2018_Nov_26_1232,59.990687782,chinese_cond1,001,1047,
images/razor04a.jpg,razor,z,sounds/greatgatsby_english.wav,,,,,,,,,0,1,1,0,0,75,75,36,739.973827437,9.62160993367e-06,740.574697931,0.60088075744,,,,,z,1,0.583735460998,2018_Nov_26_1232,59.990687782,chinese_cond1,001,1047,
images/snowman.jpg,globe,x,sounds/greatgatsby_english.wav,,,,,,,,,0,1,1,0,0,76,76,180,741.683879528,9.62149351835e-06,742.791877673,1.1080087286,,,,,x,1,1.08382558299,2018_Nov_26_1232,59.990687782,chinese_cond1,001,1047,
images/puzzle.jpg,puzzle,z,sounds/greatgatsby_english.wav,,,,,,,,,0,1,1,0,0,77,77,57,743.910549013,9.62160993367e-06,744.642346788,0.731807717704,,,,,z,1,0.717067490099,2018_Nov_26_1232,59.990687782,chinese_cond1,001,1047,
images/printer03a.jpg,printer,z,sounds/greatgatsby_english.wav,,,,,,,,,0,1,1,0,0,78,78,72,745.751083869,8.98016151041e-06,747.142953908,1.39187966124,,,,,z,1,1.38392134954,2018_Nov_26_1232,59.990687782,chinese_cond1,001,1047,
images/50dollarbill.jpg,cherry,x,sounds/greatgatsby_english.wav,,,,,,,,,0,1,1,0,0,79,79,151,748.262645133,9.62149351835e-06,748.943386109,0.680751238484,,,,,x,1,0.667072910233,2018_Nov_26_1232,59.990687782,chinese_cond1,001,1047,
images/stapler03a.jpg,candy cane,x,sounds/greatgatsby_english.wav,,,,,,,,,0,1,1,0,0,80,80,145,750.054068989,8.65943729877e-06,751.077260152,1.02320078458,,,,,x,1,1.00050416961,2018_Nov_26_1232,59.990687782,chinese_cond1,001,1047,
images/skateboard.jpg,key,x,sounds/greatgatsby_english.wav,,,,,,,,,0,1,1,0,0,81,81,189,752.168325637,9.62160993367e-06,753.827927407,1.65961171244,,,,,x,1,1.65066751163,2018_Nov_26_1232,59.990687782,chinese_cond1,001,1047,
images/toothbrush03a.jpg,parrot,x,sounds/greatgatsby_english.wav,,,,,,,,,0,1,1,0,0,82,82,210,754.920261334,8.98016151041e-06,755.911760046,0.99150865397,,,,,x,1,0.967155527323,2018_Nov_26_1232,59.990687782,chinese_cond1,001,1047,
images/electrictoothbrush01a.jpg,banjo,x,sounds/greatgatsby_english.wav,,,,,,,,,0,1,1,0,0,83,83,127,757.008454143,9.62149351835e-06,757.878914932,0.870470731519,,,,,x,1,0.85043896758,2018_Nov_26_1232,59.990687782,chinese_cond1,001,1047,
images/hairpin.jpg,hair pin,z,sounds/greatgatsby_english.wav,,,,,,,,,0,1,1,0,0,84,84,28,758.969787344,9.30076930672e-06,759.812698725,0.842921643867,,,,,z,1,0.833784370567,2018_Nov_26_1232,59.990687782,chinese_cond1,001,1047,
images/pepper05a.jpg,lighter,x,sounds/greatgatsby_english.wav,,,,,,,,,0,1,1,0,0,85,85,198,760.93387584,8.98004509509e-06,761.679834945,0.745968727279,,,,,x,1,0.733774043503,2018_Nov_26_1232,59.990687782,chinese_cond1,001,1047,
images/arrow02.jpg,hammer,x,sounds/greatgatsby_english.wav,,,,,,,,,0,1,1,0,0,86,86,184,762.776422563,8.98004509509e-06,764.130427922,1.35401530075,,,,,x,1,1.33391618589,2018_Nov_26_1232,59.990687782,chinese_cond1,001,1047,
images/basketball01.jpg,basket ball,z,sounds/greatgatsby_english.wav,,,,,,,,,0,1,1,0,0,87,87,33,765.268729486,9.62149351835e-06,765.930865895,0.662147313706,,,,,z,1,0.65041703044,2018_Nov_26_1232,59.990687782,chinese_cond1,001,1047,
images/spoon02b.jpg,spoon,z,sounds/greatgatsby_english.wav,,,,,,,,,0,1,1,0,0,88,88,38,767.021527596,9.30076930672e-06,767.697955226,0.676437252318,,,,,z,1,0.667080928222,2018_Nov_26_1232,59.990687782,chinese_cond1,001,1047,
images/calculator02b.jpg,dice,x,sounds/greatgatsby_english.wav,,,,,,,,,0,1,1,0,0,89,89,165,768.799800064,9.62160993367e-06,770.148559428,1.348769948,,,,,x,1,1.33391233732,2018_Nov_26_1232,59.990687782,chinese_cond1,001,1047,
images/straw.jpg,straw,z,sounds/greatgatsby_english.wav,,,,,,,,,0,1,1,0,0,90,90,109,771.239338191,8.65932088345e-06,771.965662261,0.726333692321,,,,,z,1,0.717090261052,2018_Nov_26_1232,59.990687782,chinese_cond1,001,1047,
images/button07.jpg,radish,x,sounds/greatgatsby_english.wav,,,,,,,,,0,1,1,0,0,91,91,215,773.076923077,9.30088572204e-06,773.832799123,0.755886309082,,,,,x,1,0.733777892077,2018_Nov_26_1232,59.990687782,chinese_cond1,001,1047,
images/mattress.jpg,cat,x,sounds/greatgatsby_english.wav,,,,,,,,,0,1,1,0,0,92,92,147,774.936988734,9.30088572204e-06,775.733414197,0.796435405035,,,,,x,1,0.783940849244,2018_Nov_26_1232,59.990687782,chinese_cond1,001,1047,
images/bullet (2).jpg,rubber glove,x,sounds/greatgatsby_english.wav,,,,,,,,,0,1,1,0,0,93,93,217,776.835972313,9.94233414531e-06,777.733769553,0.897807503468,,,,,x,1,0.883825454628,2018_Nov_26_1232,59.990687782,chinese_cond1,001,1047,
images/key03b.jpg,cigar,x,sounds/greatgatsby_english.wav,,,,,,,,,0,1,1,0,0,94,94,153,778.834724076,9.62160993367e-06,779.900938679,1.06622518681,,,,,x,1,1.05051221966,2018_Nov_26_1232,59.990687782,chinese_cond1,001,1047,
images/tissuebox03.jpg,tissue box,z,sounds/greatgatsby_english.wav,,,,,,,,,0,1,1,0,0,95,95,58,781.026315604,8.98016151041e-06,781.734712145,0.708406483871,,,,,z,1,0.683751240373,2018_Nov_26_1232,59.990687782,chinese_cond1,001,1047,
images/rubberglove02a.jpg,lady bug,x,sounds/greatgatsby_english.wav,,,,,,,,,0,1,1,0,0,96,96,192,782.839425811,9.62149351835e-06,783.868558928,1.02914337977,,,,,x,1,1.01715395588,2018_Nov_26_1232,59.990687782,chinese_cond1,001,1047,
images/plate01b.jpg,plate,z,sounds/greatgatsby_english.wav,,,,,,,,,0,1,1,0,0,97,97,3,784.967549049,8.65943729877e-06,785.702598911,0.735060125124,,,,,z,1,0.717343949596,2018_Nov_26_1232,59.990687782,chinese_cond1,001,1047,
images/sunglasses03a.jpg,sun glasses,z,sounds/greatgatsby_english.wav,,,,,,,,,0,1,1,0,0,98,98,17,786.810730796,9.62160993367e-06,787.56945322,0.758732686751,,,,,z,1,0.750424791826,2018_Nov_26_1232,59.990687782,chinese_cond1,001,1047,
images/charcoalbarbecue.jpg,charcoal barbecue,z,sounds/greatgatsby_english.wav,,,,,,,,,0,1,1,0,0,99,99,77,788.684809291,9.62160993367e-06,790.036733507,1.35193479923,,,,,z,1,1.33391297876,2018_Nov_26_1232,59.990687782,chinese_cond1,001,1047,
images/cigar.jpg,crocodile,x,sounds/greatgatsby_english.wav,,,,,,,,,0,1,1,0,0,100,100,162,791.135176482,9.62160993367e-06,792.620699564,1.48553302477,,,,,x,1,1.4672796455,2018_Nov_26_1232,59.990687782,chinese_cond1,001,1047,
images/orange.jpg,bat,x,sounds/greatgatsby_english.wav,,,,,,,,,0,1,1,0,0,101,101,128,793.745182646,9.30088572204e-06,794.637858972,0.892686268664,,,,,x,1,0.883809418767,2018_Nov_26_1232,59.990687782,chinese_cond1,001,1047,
images/atm.jpg,atm,z,sounds/greatgatsby_english.wav,,,,,,,,,0,1,1,0,0,102,102,96,795.774910696,8.98016151041e-06,796.671693503,0.896793070482,,,,,z,1,0.883812305168,2018_Nov_26_1232,59.990687782,chinese_cond1,001,1047,
images/envelope02a.jpg,grand piano,x,sounds/greatgatsby_english.wav,,,,,,,,,0,1,1,0,0,103,103,182,797.793782741,9.62160993367e-06,799.155454878,1.36168272083,,,,,x,1,1.35041555506,2018_Nov_26_1232,59.990687782,chinese_cond1,001,1047,
images/lemon02.jpg,lemon,z,sounds/greatgatsby_english.wav,,,,,,,,,0,1,1,0,0,104,104,14,800.267580993,9.30088572204e-06,801.489518916,1.22194786521,,,,,z,1,1.20054631203,2018_Nov_26_1232,59.990687782,chinese_cond1,001,1047,
images/beermug01b.jpg,beer mug,z,sounds/greatgatsby_english.wav,,,,,,,,,0,1,1,0,0,105,105,111,802.606051704,9.62160993367e-06,803.873423909,1.26738246786,,,,,z,1,1.25054153334,2018_Nov_26_1232,59.990687782,chinese_cond1,001,1047,
images/lighter02b.jpg,stapler,x,sounds/greatgatsby_english.wav,,,,,,,,,0,1,1,0,0,106,106,227,804.974737957,9.62149351835e-06,806.257351993,1.28262429929,,,,,x,1,1.26721890143,2018_Nov_26_1232,59.990687782,chinese_cond1,001,1047,
images/lettuce.jpg,mushroom,x,sounds/greatgatsby_english.wav,,,,,,,,,0,1,1,0,0,107,107,205,807.378903386,9.30088572204e-06,808.541240565,1.16234808357,,,,,x,1,1.15052094322,2018_Nov_26_1232,59.990687782,chinese_cond1,001,1047,
images/dice05a.jpg,band aid,x,sounds/greatgatsby_english.wav,,,,,,,,,0,1,1,0,0,108,108,126,809.65379965,9.30076930672e-06,810.691753491,1.03796378314,,,,,x,1,1.01715363516,2018_Nov_26_1232,59.990687782,chinese_cond1,001,1047,
images/flower01.jpg,bus,x,sounds/greatgatsby_english.wav,,,,,,,,,0,1,1,0,0,109,109,140,811.804634256,9.30076930672e-06,813.20904279,1.4044204005,,,,,x,1,1.38392712246,2018_Nov_26_1232,59.990687782,chinese_cond1,001,1047,
images/coffeepot03b.jpg,coffee pot,z,sounds/greatgatsby_english.wav,,,,,,,,,0,1,1,0,0,110,110,107,814.329898544,9.30076930672e-06,815.076171633,0.746283031534,,,,,z,1,0.733770836261,2018_Nov_26_1232,59.990687782,chinese_cond1,001,1047,
images/giraffe.jpg,lettuce,x,sounds/greatgatsby_english.wav,,,,,,,,,0,1,1,0,0,111,111,195,816.175759253,9.62160993367e-06,816.843258398,0.667510049767,,,,,x,1,0.650408050278,2018_Nov_26_1232,59.990687782,chinese_cond1,001,1047,
images/worldmap.jpg,scooter,x,sounds/greatgatsby_english.wav,,,,,,,,,0,1,1,0,0,112,112,220,817.972206846,8.98016151041e-06,818.743722414,0.771526152384,,,,,x,1,0.750432168366,2018_Nov_26_1232,59.990687782,chinese_cond1,001,1047,
images/sock03.jpg,sock,z,sounds/greatgatsby_english.wav,,,,,,,,,0,1,1,0,0,113,113,90,819.848478415,8.98004509509e-06,820.510814311,0.6623458385,,,,,z,1,0.650385599933,2018_Nov_26_1232,59.990687782,chinese_cond1,001,1047,
images/radio03a.jpg,radio,z,sounds/greatgatsby_english.wav,,,,,,,,,0,1,1,0,0,114,114,37,821.624324647,8.98004509509e-06,822.394596469,0.770281764097,,,,,z,1,0.750420943252,2018_Nov_26_1232,59.990687782,chinese_cond1,001,1047,
images/tape01a.jpg,tie,x,sounds/greatgatsby_english.wav,,,,,,,,,0,1,1,0,0,115,115,232,823.520552932,9.30088572204e-06,824.228404572,0.707861903706,,,,,x,1,0.683766955626,2018_Nov_26_1232,59.990687782,chinese_cond1,001,1047,
images/handbag02a.jpg,candle,x,sounds/greatgatsby_english.wav,,,,,,,,,0,1,1,0,0,116,116,144,825.344696501,8.98004509509e-06,825.995475943,0.650789384614,,,,,x,1,0.633727154345,2018_Nov_26_1232,59.990687782,chinese_cond1,001,1047,
images/mirror02.jpg,8 ball,x,sounds/greatgatsby_english.wav,,,,,,,,,0,1,1,0,0,117,117,121,827.096391338,9.30088572204e-06,828.146015488,1.04963377141,,,,,x,1,1.03384768043,2018_Nov_26_1232,59.990687782,chinese_cond1,001,1047,
images/redfox.jpg,red fox,z,sounds/greatgatsby_english.wav,,,,,,,,,0,1,1,0,0,118,118,1,829.258489903,8.98004509509e-06,829.946445444,0.687965162215,,,,,z,1,0.667072268785,2018_Nov_26_1232,59.990687782,chinese_cond1,001,1047,
images/broadsword.jpg,teapot,x,sounds/greatgatsby_english.wav,,,,,,,,,0,1,1,0,0,119,119,231,831.039492007,9.30088572204e-06,831.747106637,0.707634834922,,,,,x,1,0.683931163512,2018_Nov_26_1232,59.990687782,chinese_cond1,001,1047,
images/diaper01a.jpg,camera,x,sounds/greatgatsby_english.wav,,,,,,,,,0,1,1,0,0,120,120,143,832.867290165,8.98004509509e-06,833.880735652,1.01345574949,,,,,x,1,1.00048877508,2018_Nov_26_1232,59.990687782,chinese_cond1,001,1047,
images/gluestick.jpg,squirrel,x,sounds/greatgatsby_english.wav,,,,,,,,,0,1,1,0,0,121,121,226,834.988062533,9.30088572204e-06,835.764531921,0.776479651453,,,,,x,1,0.767114026356,2018_Nov_26_1232,59.990687782,chinese_cond1,001,1047,
images/scooter.jpg,pen,x,sounds/greatgatsby_english.wav,,,,,,,,,0,1,1,0,0,122,122,212,836.857497984,1.09043903649e-05,837.58163732,0.724150239956,,,,,x,1,0.700418024673,2018_Nov_26_1232,59.990687782,chinese_cond1,001,1047,
images/mailbox01.jpg,mail box,z,sounds/greatgatsby_english.wav,,,,,,,,,0,1,1,0,0,123,123,73,838.70160308,8.98016151041e-06,839.715489234,1.01389609615,,,,,z,1,1.00049518957,2018_Nov_26_1232,59.990687782,chinese_cond1,001,1047,
images/dryingmachine01.jpg,drying machine,z,sounds/greatgatsby_english.wav,,,,,,,,,0,1,1,0,0,124,124,18,840.834711889,9.62160993367e-06,842.182757975,1.34805602825,,,,,z,1,1.33390047075,2018_Nov_26_1232,59.990687782,chinese_cond1,001,1047,
images/8ball.jpg,nail clipper,x,sounds/greatgatsby_english.wav,,,,,,,,,0,1,1,0,0,125,125,206,843.299152854,9.30088572204e-06,843.949862059,0.650718826684,,,,,x,1,0.633747359738,2018_Nov_26_1232,59.990687782,chinese_cond1,001,1047,
images/bed.jpg,bed,z,sounds/greatgatsby_english.wav,,,,,,,,,0,1,1,0,0,126,126,103,845.069028588,9.62149351835e-06,845.650264048,0.581245401641,,,,,z,1,0.567057130975,2018_Nov_26_1232,59.990687782,chinese_cond1,001,1047,
images/gamecontroller01.jpg,game controller,z,sounds/greatgatsby_english.wav,,,,,,,,,0,1,1,0,0,127,127,112,846.770377338,9.30076930672e-06,847.634085718,0.86371832178,,,,,z,1,0.850463662879,2018_Nov_26_1232,59.990687782,chinese_cond1,001,1047,
images/lychee02a.jpg,lychee,z,sounds/greatgatsby_english.wav,,,,,,,,,0,1,1,0,0,128,128,62,848.758139999,9.62160993367e-06,849.818132982,1.06000324572,,,,,z,1,1.05060202081,2018_Nov_26_1232,59.990687782,chinese_cond1,001,1047,
images/graduationcap.jpg,graduation cap,z,sounds/greatgatsby_english.wav,,,,,,,,,0,1,1,0,0,129,129,35,850.920761976,9.30088572204e-06,851.951820046,1.03106833296,,,,,z,1,1.01718249975,2018_Nov_26_1232,59.990687782,chinese_cond1,001,1047,
images/butterfly.jpg,butterfly,z,sounds/greatgatsby_english.wav,,,,,,,,,0,1,1,0,0,130,130,91,853.059257575,8.98016151041e-06,853.768908126,0.709660173045,,,,,z,1,0.700406799442,2018_Nov_26_1232,59.990687782,chinese_cond1,001,1047,
images/carrot02.jpg,corkscrew,x,sounds/greatgatsby_english.wav,,,,,,,,,0,1,1,0,0,131,131,161,854.870981316,9.30076930672e-06,855.919427787,1.04845673405,,,,,x,1,1.03382587165,2018_Nov_26_1232,59.990687782,chinese_cond1,001,1047,
images/cockroach02.jpg,belt,x,sounds/greatgatsby_english.wav,,,,,,,,,0,1,1,0,0,132,132,129,857.018468581,8.98016151041e-06,858.169981507,1.15152318892,,,,,x,1,1.13385961123,2018_Nov_26_1232,59.990687782,chinese_cond1,001,1047,
images/ashtray02b.jpg,ashtray,z,sounds/greatgatsby_english.wav,,,,,,,,,0,1,1,0,0,133,133,43,859.283437,8.98016151041e-06,860.220478012,0.937051595305,,,,,z,1,0.917138497229,2018_Nov_26_1232,59.990687782,chinese_cond1,001,1047,
images/pouch01b.jpg,pouch,z,sounds/greatgatsby_english.wav,,,,,,,,,0,1,1,0,0,134,134,25,861.332640688,9.30076930672e-06,862.154283614,0.821652868297,,,,,z,1,0.800437011174,2018_Nov_26_1232,59.990687782,chinese_cond1,001,1047,
images/lock02a.jpg,lock,z,sounds/greatgatsby_english.wav,,,,,,,,,0,1,1,0,0,135,135,65,863.264829548,9.30088572204e-06,864.238126836,0.973307231208,,,,,z,1,0.950476555736,2018_Nov_26_1232,59.990687782,chinese_cond1,001,1047,
images/camera01a.jpg,bull,x,sounds/greatgatsby_english.wav,,,,,,,,,0,1,1,0,0,136,136,138,865.349067896,9.62160993367e-06,866.638723309,1.28966599726,,,,,x,1,1.26724103093,2018_Nov_26_1232,59.990687782,chinese_cond1,001,1047,
images/licenseplate.jpg,license plate,z,sounds/greatgatsby_english.wav,,,,,,,,,0,1,1,0,0,137,137,40,867.755285282,8.98016151041e-06,869.256015879,1.50074021856,,,,,z,1,1.483943864,2018_Nov_26_1232,59.990687782,chinese_cond1,001,1047,
images/hat05.jpg,hat,z,sounds/greatgatsby_english.wav,,,,,,,,,0,1,1,0,0,138,138,15,870.359686889,9.30076930672e-06,871.056455777,0.696779151214,,,,,z,1,0.683757334016,2018_Nov_26_1232,59.990687782,chinese_cond1,001,1047,
images/table02.jpg,table,z,sounds/greatgatsby_english.wav,,,,,,,,,0,1,1,0,0,139,139,49,872.170519032,9.62149351835e-06,873.140297717,0.96978958929,,,,,z,1,0.950483611668,2018_Nov_26_1232,59.990687782,chinese_cond1,001,1047,
images/squirrel.jpg,binder,x,sounds/greatgatsby_english.wav,,,,,,,,,0,1,1,0,0,140,140,132,874.243389508,8.98016151041e-06,875.324171472,1.08079158491,,,,,x,1,1.06718862546,2018_Nov_26_1232,59.990687782,chinese_cond1,001,1047,
images/doorhandle.jpg,doll,x,sounds/greatgatsby_english.wav,,,,,,,,,0,1,1,0,0,141,141,168,876.42657436,8.98016151041e-06,877.357985477,0.9314210593,,,,,x,1,0.917059279745,2018_Nov_26_1232,59.990687782,chinese_cond1,001,1047,
images/treadmill.jpg,lily,x,sounds/greatgatsby_english.wav,,,,,,,,,0,1,1,0,0,142,142,199,878.46361319,9.30088572204e-06,879.591861509,1.12825858127,,,,,x,1,1.11718961969,2018_Nov_26_1232,59.990687782,chinese_cond1,001,1047,
images/dragonfly02.jpg,dragon fly,z,sounds/greatgatsby_english.wav,,,,,,,,,0,1,1,0,0,143,143,29,880.689377286,9.30076930672e-06,881.47581493,0.78644758591,,,,,z,1,0.767267650575,2018_Nov_26_1232,59.990687782,chinese_cond1,001,1047,
images/swallow.jpg,mattress,x,sounds/greatgatsby_english.wav,,,,,,,,,0,1,1,0,0,144,144,202,882.576961884,8.33871308714e-06,883.659512931,1.08256066882,,,,,x,1,1.06716457161,2018_Nov_26_1232,59.990687782,chinese_cond1,001,1047,
images/wallet01.jpg,lamp,x,sounds/greatgatsby_english.wav,,,,,,,,,0,1,1,0,0,145,145,193,884.764533524,9.30076930672e-06,885.509803406,0.745279503055,,,,,x,1,0.733594761812,2018_Nov_26_1232,59.990687782,chinese_cond1,001,1047,
images/magnifyingglass01b.jpg,magnifying glass,z,sounds/greatgatsby_english.wav,,,,,,,,,0,1,1,0,0,146,146,64,886.616960306,9.30076930672e-06,887.677162076,1.06021171273,,,,,z,1,1.05050067382,2018_Nov_26_1232,59.990687782,chinese_cond1,001,1047,
images/daisy.jpg,daisy,z,sounds/greatgatsby_english.wav,,,,,,,,,0,1,1,0,0,147,147,6,888.779147709,9.30088572204e-06,889.511006421,0.731868974864,,,,,z,1,0.717152801226,2018_Nov_26_1232,59.990687782,chinese_cond1,001,1047,
images/screwdriver02b.jpg,cola,x,sounds/greatgatsby_english.wav,,,,,,,,,0,1,1,0,0,148,148,158,890.605115526,9.62160993367e-06,891.411403086,0.80629750248,,,,,x,1,0.783763491781,2018_Nov_26_1232,59.990687782,chinese_cond1,001,1047,
images/kiwi03.jpg,backpack,x,sounds/greatgatsby_english.wav,,,,,,,,,0,1,1,0,0,149,149,125,892.539831648,9.30088572204e-06,893.278520063,0.738698998583,,,,,x,1,0.717084808857,2018_Nov_26_1232,59.990687782,chinese_cond1,001,1047,
images/antelope.jpg,antelope,z,sounds/greatgatsby_english.wav,,,,,,,,,0,1,1,0,0,150,150,12,894.382768687,8.98004509509e-06,895.128967049,0.746207983466,,,,,z,1,0.733749989537,2018_Nov_26_1232,59.990687782,chinese_cond1,001,1047,
images/pipe.jpg,icecube,x,sounds/greatgatsby_english.wav,,,,,,,,,0,1,1,0,0,151,151,188,896.237565258,9.30088572204e-06,897.379524939,1.14196994354,,,,,x,1,1.13386570488,2018_Nov_26_1232,59.990687782,chinese_cond1,001,1047,
images/lantern03.jpg,lantern,z,sounds/greatgatsby_english.wav,,,,,,,,,0,1,1,0,0,152,152,5,898.48801218,8.98004509509e-06,899.179970609,0.691968371975,,,,,z,1,0.68375989981,2018_Nov_26_1232,59.990687782,chinese_cond1,001,1047,
images/ant.jpg,ant,z,sounds/greatgatsby_english.wav,,,,,,,,,0,1,1,0,0,153,153,98,900.274962652,9.62149351835e-06,900.930395401,0.655442691059,,,,,z,1,0.633743190439,2018_Nov_26_1232,59.990687782,chinese_cond1,001,1047,
images/flashlight05.jpg,flash light,z,sounds/greatgatsby_english.wav,,,,,,,,,0,1,1,0,0,154,154,8,902.032889053,9.30088572204e-06,902.614248951,0.58136984054,,,,,z,1,0.567165533779,2018_Nov_26_1232,59.990687782,chinese_cond1,001,1047,
images/egg01b (1).jpg,egg,z,sounds/greatgatsby_english.wav,,,,,,,,,0,1,1,0,0,155,155,19,903.726590909,9.94233414531e-06,904.531275517,0.804694871535,,,,,z,1,0.783778565587,2018_Nov_26_1232,59.990687782,chinese_cond1,001,1047,
images/nametag01a.jpg,name tag,z,sounds/greatgatsby_english.wav,,,,,,,,,0,1,1,0,0,156,156,108,905.651472515,8.65943729877e-06,906.648446856,0.996983641526,,,,,z,1,0.98381974583,2018_Nov_26_1232,59.990687782,chinese_cond1,001,1047,
images/birthdaycandle.jpg,birthday candle,z,sounds/greatgatsby_english.wav,,,,,,,,,0,1,1,0,0,157,157,55,907.744864493,8.98016151041e-06,908.632284883,0.887430652627,,,,,z,1,0.867141993018,2018_Nov_26_1232,59.990687782,chinese_cond1,001,1047,
images/ceilingfan02.jpg,paper clip,x,sounds/greatgatsby_english.wav,,,,,,,,,0,1,1,0,0,158,158,208,909.731402971,8.98016151041e-06,911.149548524,1.41815517517,,,,,x,1,1.40058877517,2018_Nov_26_1232,59.990687782,chinese_cond1,001,1047,
images/tie01.jpg,bench,x,sounds/greatgatsby_english.wav,,,,,,,,,0,1,1,0,0,159,159,130,912.247720172,9.30088572204e-06,913.133644409,0.885934179532,,,,,x,1,0.86740562378,2018_Nov_26_1232,59.990687782,chinese_cond1,001,1047,
images/lamp04b.jpg,parking meter,x,sounds/greatgatsby_english.wav,,,,,,,,,0,1,1,0,0,160,160,209,914.25388727,8.98004509509e-06,914.95046501,0.69658800296,,,,,x,1,0.683749957476,2018_Nov_26_1232,59.990687782,chinese_cond1,001,1047,
images/blackolive.jpg,tank,x,sounds/greatgatsby_english.wav,,,,,,,,,0,1,1,0,0,161,161,229,916.065553602,9.30076930672e-06,916.784258361,0.718714380171,,,,,x,1,0.700430532685,2018_Nov_26_1232,59.990687782,chinese_cond1,001,1047,
images/plant01.jpg,plant,z,sounds/greatgatsby_english.wav,,,,,,,,,0,1,1,0,0,162,162,47,917.895780882,9.62160993367e-06,918.518013161,0.622242541518,,,,,z,1,0.600407376769,2018_Nov_26_1232,59.990687782,chinese_cond1,001,1047,
images/backpack01b.jpg,swallow,x,sounds/greatgatsby_english.wav,,,,,,,,,0,1,1,0,0,163,163,228,919.649250577,8.65943729877e-06,920.468477209,0.819235932897,,,,,x,1,0.800441501196,2018_Nov_26_1232,59.990687782,chinese_cond1,001,1047,
images/bandaid01.jpg,door handle,x,sounds/greatgatsby_english.wav,,,,,,,,,0,1,1,0,0,164,164,170,921.575812428,8.98004509509e-06,922.352267064,0.776464577531,,,,,x,1,0.767100235447,2018_Nov_26_1232,59.990687782,chinese_cond1,001,1047,
images/notebook02b.jpg,notebook,z,sounds/greatgatsby_english.wav,,,,,,,,,0,1,1,0,0,165,165,7,923.458500294,9.94221772999e-06,924.086030203,0.627540492336,,,,,z,1,0.617071274552,2018_Nov_26_1232,59.990687782,chinese_cond1,001,1047,
images/cactus.jpg,cactus,z,sounds/greatgatsby_english.wav,,,,,,,,,0,1,1,0,0,166,166,70,925.197875047,8.98004509509e-06,925.869796581,0.671931797289,,,,,z,1,0.650416388991,2018_Nov_26_1232,59.990687782,chinese_cond1,001,1047,
images/fireextinguisher02.jpg,fire extinguisher,z,sounds/greatgatsby_english.wav,,,,,,,,,0,1,1,0,0,167,167,175,926.980041681,9.30076930672e-06,927.586715258,0.60668351932,,,,,z,1,0.583563235123,2018_Nov_26_1232,59.990687782,chinese_cond1,001,1047,
images/blueberry02.jpg,blueberry,z,sounds/greatgatsby_english.wav,,,,,,,,,0,1,1,0,0,168,168,46,928.699519692,9.30088572204e-06,929.387336041,0.6878266118,,,,,z,1,0.667099209153,2018_Nov_26_1232,59.990687782,chinese_cond1,001,1047,
images/flamingo.jpg,flamingo,z,sounds/greatgatsby_english.wav,,,,,,,,,0,1,1,0,0,169,169,52,930.485661954,8.65943729877e-06,931.287790114,0.802137781982,,,,,z,1,0.783786262851,2018_Nov_26_1232,59.990687782,chinese_cond1,001,1047,
images/thumbtack02a.jpg,thumb tack,z,sounds/greatgatsby_english.wav,,,,,,,,,0,1,1,0,0,170,170,60,932.397617959,9.30076930672e-06,933.088212372,0.690604676376,,,,,z,1,0.667070985888,2018_Nov_26_1232,59.990687782,chinese_cond1,001,1047,
images/nailpolish02b.jpg,nail polish,z,sounds/greatgatsby_english.wav,,,,,,,,,0,1,1,0,0,171,171,94,934.195766643,9.62149351835e-06,934.922016307,0.726259606308,,,,,z,1,0.717105655698,2018_Nov_26_1232,59.990687782,chinese_cond1,001,1047,
images/candle08a.jpg,screw driver,x,sounds/greatgatsby_english.wav,,,,,,,,,0,1,1,0,0,172,172,221,936.035877829,9.30076930672e-06,936.822469418,0.786601210129,,,,,x,1,0.767109536333,2018_Nov_26_1232,59.990687782,chinese_cond1,001,1047,
images/dolphin01.jpg,dolphin,z,sounds/greatgatsby_english.wav,,,,,,,,,0,1,1,0,0,173,173,99,937.92236589,9.30088572204e-06,938.656236149,0.733880522079,,,,,z,1,0.717084488133,2018_Nov_26_1232,59.990687782,chinese_cond1,001,1047,
images/watermelon01.jpg,orange,x,sounds/greatgatsby_english.wav,,,,,,,,,0,1,1,0,0,174,174,207,939.785109227,9.30076930672e-06,940.573373684,0.788274399121,,,,,x,1,0.767100556171,2018_Nov_26_1232,59.990687782,chinese_cond1,001,1047,
images/candy.jpg,candy,z,sounds/greatgatsby_english.wav,,,,,,,,,0,1,1,0,0,175,175,31,941.673962587,8.98016151041e-06,942.440500924,0.766549240914,,,,,z,1,0.750435696216,2018_Nov_26_1232,59.990687782,chinese_cond1,001,1047,
images/diploma01.jpg,glasses,x,sounds/greatgatsby_english.wav,,,,,,,,,0,1,1,0,0,176,176,179,943.571908321,9.30088572204e-06,944.47431974,0.902421040693,,,,,x,1,0.883794024237,2018_Nov_26_1232,59.990687782,chinese_cond1,001,1047,
images/dresser02.jpg,dresser,z,sounds/greatgatsby_english.wav,,,,,,,,,0,1,1,0,0,177,177,87,945.596324308,9.94233414531e-06,946.2747606,0.678446554462,,,,,z,1,0.667078683153,2018_Nov_26_1232,59.990687782,chinese_cond1,001,1047,
images/nailclipper03a.jpg,aquarium,x,sounds/greatgatsby_english.wav,,,,,,,,,0,1,1,0,0,178,178,123,947.372152901,8.98016151041e-06,948.125207264,0.753064626711,,,,,x,1,0.733746140962,2018_Nov_26_1232,59.990687782,chinese_cond1,001,1047,
images/bracelet02a.jpg,chess knight,x,sounds/greatgatsby_english.wav,,,,,,,,,0,1,1,0,0,179,179,152,949.234317661,9.30088572204e-06,949.958995484,0.724688085145,,,,,x,1,0.700425401214,2018_Nov_26_1232,59.990687782,chinese_cond1,001,1047,
images/corkscrew02a.jpg,masquerade mask,x,sounds/greatgatsby_english.wav,,,,,,,,,0,1,1,0,0,180,180,201,951.063716205,9.30088572204e-06,952.109523162,1.04581754061,,,,,x,1,1.03383966256,2018_Nov_26_1232,59.990687782,chinese_cond1,001,1047,
images/scissors04a.jpg,leek,x,sounds/greatgatsby_english.wav,,,,,,,,,0,1,1,0,0,181,181,194,953.203590894,9.62160993367e-06,953.826591614,0.623010983341,,,,,x,1,0.600390378735,2018_Nov_26_1232,59.990687782,chinese_cond1,001,1047,
images/djmixer01.jpg,light bulb,x,sounds/greatgatsby_english.wav,,,,,,,,,0,1,1,0,0,182,182,196,954.947761352,8.98016151041e-06,955.777089017,0.829337607021,,,,,x,1,0.817124962923,2018_Nov_26_1232,59.990687782,chinese_cond1,001,1047,
images/peach01.jpg,peach,z,sounds/greatgatsby_english.wav,,,,,,,,,0,1,1,0,0,183,183,106,956.905563121,9.30076930672e-06,958.094313082,1.18876022368,,,,,z,1,1.16720632918,2018_Nov_26_1232,59.990687782,chinese_cond1,001,1047,
images/tent.jpg,tent,z,sounds/greatgatsby_english.wav,,,,,,,,,0,1,1,0,0,184,184,11,959.220951393,8.65932088345e-06,959.944598746,0.723656974733,,,,,z,1,0.700258948258,2018_Nov_26_1232,59.990687782,chinese_cond1,001,1047,
images/safe.jpg,safe,z,sounds/greatgatsby_english.wav,,,,,,,,,0,1,1,0,0,185,185,78,961.05586373,8.65943729877e-06,961.711847153,0.655993364984,,,,,z,1,0.633734851726,2018_Nov_26_1232,59.990687782,chinese_cond1,001,1047,
images/medal01.jpg,medal,z,sounds/greatgatsby_english.wav,,,,,,,,,0,1,1,0,0,186,186,115,962.812768321,9.30088572204e-06,963.612321111,0.799562090891,,,,,x,0,0.783780489815,2018_Nov_26_1232,59.990687782,chinese_cond1,001,1047,
images/hammer02a.jpg,flower,x,sounds/greatgatsby_english.wav,,,,,,,,,0,1,1,0,0,187,187,176,964.708851,9.30088572204e-06,965.346132679,0.637291941908,,,,,x,1,0.61707929254,2018_Nov_26_1232,59.990687782,chinese_cond1,001,1047,
images/microphone01.jpg,diaper,x,sounds/greatgatsby_english.wav,,,,,,,,,0,1,1,0,0,188,188,164,966.445160645,9.62160993367e-06,967.129847742,0.684697039658,,,,,x,1,0.667086380417,2018_Nov_26_1232,59.990687782,chinese_cond1,001,1047,
images/computerkeyboard01a.jpg,computer keyboard,z,sounds/greatgatsby_english.wav,,,,,,,,,0,1,1,0,0,189,189,61,968.246633577,8.98016151041e-06,968.896947657,0.650323701324,,,,,z,1,0.633745435276,2018_Nov_26_1232,59.990687782,chinese_cond1,001,1047,
images/cherry01.jpg,highlighter,x,sounds/greatgatsby_english.wav,,,,,,,,,0,1,1,0,0,190,190,187,970.006023737,8.98016151041e-06,970.880761309,0.874747193535,,,,,x,1,0.850459814304,2018_Nov_26_1232,59.990687782,chinese_cond1,001,1047,
images/bowlingball.jpg,bowling ball,z,sounds/greatgatsby_english.wav,,,,,,,,,0,1,1,0,0,191,191,20,972.012486538,9.30088572204e-06,972.731210219,0.71873330255,,,,,z,1,0.700423797593,2018_Nov_26_1232,59.990687782,chinese_cond1,001,1047,
images/leek.jpg,donut,x,sounds/greatgatsby_english.wav,,,,,,,,,0,1,1,0,0,192,192,169,973.830783727,8.98016151041e-06,974.614997187,0.78422308166,,,,,x,1,0.767102159793,2018_Nov_26_1232,59.990687782,chinese_cond1,001,1047,
images/parkfountain.jpg,park fountain,z,sounds/greatgatsby_english.wav,,,,,,,,,0,1,1,0,0,193,193,93,975.735078406,8.98016151041e-06,976.398770942,0.663702799007,,,,,z,1,0.650399070117,2018_Nov_26_1232,59.990687782,chinese_cond1,001,1047,
images/saltshaker03c.jpg,salt shaker,z,sounds/greatgatsby_english.wav,,,,,,,,,0,1,1,0,0,194,194,63,977.509985574,9.94233414531e-06,978.28254893,0.772573940107,,,,,z,1,0.750424150378,2018_Nov_26_1232,59.990687782,chinese_cond1,001,1047,
images/swan.jpg,swan,z,sounds/greatgatsby_english.wav,,,,,,,,,0,1,1,0,0,195,195,54,979.374557649,9.62160993367e-06,980.266368356,0.891820969759,,,,,z,1,0.883798834984,2018_Nov_26_1232,59.990687782,chinese_cond1,001,1047,
images/cola.jpg,comb,x,sounds/greatgatsby_english.wav,,,,,,,,,0,1,1,0,0,196,196,157,981.387781198,8.98016151041e-06,982.250184574,0.862412997056,,,,,x,1,0.850456607062,2018_Nov_26_1232,59.990687782,chinese_cond1,001,1047,
images/drink.jpg,drink,z,sounds/greatgatsby_english.wav,,,,,,,,,0,1,1,0,0,197,197,117,983.350276684,9.62160993367e-06,984.350695863,1.00042912154,,,,,z,1,0.983825839474,2018_Nov_26_1232,59.990687782,chinese_cond1,001,1047,
images/lightswitch02a.jpg,fork,x,sounds/greatgatsby_english.wav,,,,,,,,,0,1,1,0,0,198,198,177,985.462514408,9.62149351835e-06,986.884649702,1.42214491474,,,,,x,1,1.40059166169,2018_Nov_26_1232,59.990687782,chinese_cond1,001,1047,
images/battery03b.jpg,battery,z,sounds/greatgatsby_english.wav,,,,,,,,,0,1,1,0,0,199,199,34,987.993373953,8.98016151041e-06,988.60173002,0.608365367749,,,,,z,1,0.583719425136,2018_Nov_26_1232,59.990687782,chinese_cond1,001,1047,
images/ear.jpg,bullet,x,sounds/greatgatsby_english.wav,,,,,,,,,0,1,1,0,0,200,200,139,989.705020658,8.98004509509e-06,990.568881378,0.863870663103,,,,,x,1,0.850443778327,2018_Nov_26_1232,59.990687782,chinese_cond1,001,1047,
images/weight01.jpg,weight,z,sounds/greatgatsby_english.wav,,,,,,,,,0,1,1,0,0,201,201,67,991.673795172,9.30088572204e-06,992.285957207,0.61217197706,,,,,z,1,0.600389737287,2018_Nov_26_1232,59.990687782,chinese_cond1,001,1047,
images/feather03b.jpg,feather,z,sounds/greatgatsby_english.wav,,,,,,,,,0,1,1,0,0,202,202,114,993.386198772,9.62160993367e-06,994.53651189,1.15032305988,,,,,x,0,1.13385896978,2018_Nov_26_1232,59.990687782,chinese_cond1,001,1047,
images/parkingmeter.jpg,ear,x,sounds/greatgatsby_english.wav,,,,,,,,,0,1,1,0,0,203,203,171,995.638152109,9.30088572204e-06,996.286942455,0.648801250034,,,,,x,1,0.63374447322,2018_Nov_26_1232,59.990687782,chinese_cond1,001,1047,
images/apple06.jpg,apple,z,sounds/greatgatsby_english.wav,,,,,,,,,0,1,1,0,0,204,204,13,997.414161266,9.30088572204e-06,997.987357272,0.573206268833,,,,,z,1,0.550389705226,2018_Nov_26_1232,59.990687782,chinese_cond1,001,1047,
images/tulip02.jpg,sport shorts,x,sounds/greatgatsby_english.wav,,,,,,,,,0,1,1,0,0,205,205,225,999.082712369,9.30088572204e-06,1000.40461187,1.32190944324,,,,,x,1,1.30056914734,2018_Nov_26_1232,59.990687782,chinese_cond1,001,1047,
images/globe.jpg,cloud,x,sounds/greatgatsby_english.wav,,,,,,,,,0,1,1,0,0,206,206,154,1001.53218508,9.30088572204e-06,1002.48844964,0.956274506985,,,,,x,1,0.933808809379,2018_Nov_26_1232,59.990687782,chinese_cond1,001,1047,
images/electricguitar02.jpg,electric guitar,z,sounds/greatgatsby_english.wav,,,,,,,,,0,1,1,0,0,207,207,100,1003.58855971,9.30088572204e-06,1004.10551193,0.516961845336,,,,,x,0,0.500371392118,2018_Nov_26_1232,59.990687782,chinese_cond1,001,1047,
images/acousticguitar02.jpg,acoustic guitar,z,sounds/greatgatsby_english.wav,,,,,,,,,0,1,1,0,0,208,208,97,1005.21926217,9.30076930672e-06,1005.8059213,0.58666843269,,,,,z,1,0.567052320112,2018_Nov_26_1232,59.990687782,chinese_cond1,001,1047,
images/lily.jpg,kiwi,x,sounds/greatgatsby_english.wav,,,,,,,,,0,1,1,0,0,209,209,190,1006.90440469,8.98016151041e-06,1007.77308709,0.868692026124,,,,,x,1,0.850472963764,2018_Nov_26_1232,59.990687782,chinese_cond1,001,1047,
images/comb02a.jpg,diploma,x,sounds/greatgatsby_english.wav,,,,,,,,,0,1,1,0,0,210,210,166,1008.87763879,9.30076930672e-06,1009.607146,0.729517145199,,,,,x,1,0.717323744204,2018_Nov_26_1232,59.990687782,chinese_cond1,001,1047,
images/ruler02b.jpg,watermelon,x,sounds/greatgatsby_english.wav,,,,,,,,,0,1,1,0,0,211,211,238,1010.70846261,9.94221772999e-06,1011.4572992,0.748846856179,,,,,x,1,0.733764742617,2018_Nov_26_1232,59.990687782,chinese_cond1,001,1047,
images/eyedrops.jpg,bicycle,x,sounds/greatgatsby_english.wav,,,,,,,,,0,1,1,0,0,212,212,131,1012.55755071,8.65943729877e-06,1013.24106686,0.683525454486,,,,,x,1,0.667074834579,2018_Nov_26_1232,59.990687782,chinese_cond1,001,1047,
images/cookingpot.jpg,grasshopper,x,sounds/greatgatsby_english.wav,,,,,,,,,0,1,1,0,0,213,213,183,1014.35503903,8.98016151041e-06,1015.12486538,0.769835965242,,,,,x,1,0.750441469136,2018_Nov_26_1232,59.990687782,chinese_cond1,001,1047,
images/desktopcomputer.jpg,desktop computer,z,sounds/greatgatsby_english.wav,,,,,,,,,0,1,1,0,0,214,214,16,1016.25873557,9.30088572204e-06,1016.97531653,0.71659122291,,,,,z,1,0.700429249788,2018_Nov_26_1232,59.990687782,chinese_cond1,001,1047,
images/headphones02b.jpg,headphones,z,sounds/greatgatsby_english.wav,,,,,,,,,0,1,1,0,0,215,215,101,1018.08636151,8.98016151041e-06,1018.97580563,0.88945374568,,,,,z,1,0.867140710121,2018_Nov_26_1232,59.990687782,chinese_cond1,001,1047,
images/donut.jpg,rhinoceros,x,sounds/greatgatsby_english.wav,,,,,,,,,0,1,1,0,0,216,216,216,1020.10141636,8.98004509509e-06,1021.02631079,0.924904056941,,,,,x,1,0.900480051641,2018_Nov_26_1232,59.990687782,chinese_cond1,001,1047,
images/aloe02.jpg,broad sword,x,sounds/greatgatsby_english.wav,,,,,,,,,0,1,1,0,0,217,217,137,1022.14724031,9.30076930672e-06,1022.99345445,0.846223762841,,,,,x,1,0.833802010166,2018_Nov_26_1232,59.990687782,chinese_cond1,001,1047,
images/gps.jpg,gps,z,sounds/greatgatsby_english.wav,,,,,,,,,0,1,1,0,0,218,218,21,1024.11167134,9.62149351835e-06,1024.82722022,0.715558829717,,,,,z,1,0.700420911075,2018_Nov_26_1232,59.990687782,chinese_cond1,001,1047,
images/pingpongpaddle01c (1).jpg,ping pong paddle,z,sounds/greatgatsby_english.wav,,,,,,,,,0,1,1,0,0,219,219,10,1025.93793678,9.30088572204e-06,1026.64432049,0.706394295325,,,,,z,1,0.683741939603,2018_Nov_26_1232,59.990687782,chinese_cond1,001,1047,
images/sportshorts02.jpg,tape,x,sounds/greatgatsby_english.wav,,,,,,,,,0,1,1,0,0,220,220,230,1027.75273268,9.30076930672e-06,1028.711495,0.958772584214,,,,,x,1,0.950480404426,2018_Nov_26_1232,59.990687782,chinese_cond1,001,1047,
images/banana04a.jpg,banana,z,sounds/greatgatsby_english.wav,,,,,,,,,0,1,1,0,0,221,221,118,1029.81867788,9.94221772999e-06,1030.77867593,0.960008633672,,,,,z,1,0.950496761012,2018_Nov_26_1232,59.990687782,chinese_cond1,001,1047,
