images,name,corrAns,sounds,trials_3.thisRepN,trials_3.thisTrialN,trials_3.thisN,trials_3.thisIndex,trials_4.thisRepN,trials_4.thisTrialN,trials_4.thisN,trials_4.thisIndex,trials_2.thisRepN,trials_2.thisTrialN,trials_2.thisN,trials_2.thisIndex,trials.thisRepN,trials.thisTrialN,trials.thisN,trials.thisIndex,begin_global,begin_routine,end_global,end_routine,key_resp_2.keys,key_resp_2.corr,key_resp_2.rt,begin_book,key_resp_1.keys,key_resp_1.corr,key_resp_1.rt,date,frameRate,expName,session,participant,
images/volleyball.jpg,volley ball,z,,0,0,0,0,,,,,,,,,,,,,,,,,,,,,,,,2018_Nov_26_1232,59.9848973638,chinese_cond2,001,1048,
images/puma.jpg,puma,z,,,,,,0,0,0,0,,,,,,,,,48.1677221411,1.02634076029e-05,49.986086339,1.81837542343,z,1,1.80076468852,,,,,2018_Nov_26_1232,59.9848973638,chinese_cond2,001,1048,
images/gorilla.jpg,gorilla,z,sounds/greatgatsby_chinese.wav,,,,,,,,,0,0,0,0,0,0,0,80,92.1766032013,9.30123496801e-06,93.4651241184,1.28853118047,,,,81.9836455709,z,1,1.26727661281,2018_Nov_26_1232,59.9848973638,chinese_cond2,001,1048,
images/aloe02.jpg,broad sword,x,sounds/greatgatsby_chinese.wav,,,,,,,,,0,0,0,0,0,1,1,137,94.592946918,9.30111855268e-06,96.3325833557,1.73964605969,,,,,x,1,1.71738279099,2018_Nov_26_1232,59.9848973638,chinese_cond2,001,1048,
images/glasses01b.jpg,calculator,x,sounds/greatgatsby_chinese.wav,,,,,,,,,0,0,0,0,0,2,2,142,97.4268390193,9.30123496801e-06,99.0833841426,1.65655538673,,,,,x,1,1.63404964481,2018_Nov_26_1232,59.9848973638,chinese_cond2,001,1048,
images/dresser02.jpg,dresser,z,sounds/greatgatsby_chinese.wav,,,,,,,,,0,0,0,0,0,3,3,87,100.205570724,8.98051075637e-06,101.68395389,1.4783931087,,,,,z,1,1.4671655756,2018_Nov_26_1232,59.9848973638,chinese_cond2,001,1048,
images/lettuce.jpg,mushroom,x,sounds/greatgatsby_chinese.wav,,,,,,,,,0,0,0,0,0,4,4,205,102.808491756,8.98051075637e-06,105.051747491,2.24326599785,,,,,x,1,2.23419827188,2018_Nov_26_1232,59.9848973638,chinese_cond2,001,1048,
images/banjo.jpg,knife,x,sounds/greatgatsby_chinese.wav,,,,,,,,,0,0,0,0,0,5,5,191,106.148560027,8.65978654474e-06,107.885873726,1.7373252454,,,,,x,1,1.71739754465,2018_Nov_26_1232,59.9848973638,chinese_cond2,001,1048,
images/ostrich.jpg,ostrich,z,sounds/greatgatsby_chinese.wav,,,,,,,,,0,0,0,0,0,6,6,76,108.987229427,8.98051075637e-06,110.736686027,1.74946622236,,,,,x,0,1.73406147968,2018_Nov_26_1232,59.9848973638,chinese_cond2,001,1048,
images/bottleofredwine02.jpg,pipe,x,sounds/greatgatsby_chinese.wav,,,,,,,,,0,0,0,0,0,7,7,213,111.834786943,9.30123496801e-06,112.970645675,1.13586867449,,,,,x,1,1.11721299565,2018_Nov_26_1232,59.9848973638,chinese_cond2,001,1048,
images/dryingmachine01.jpg,drying machine,z,sounds/greatgatsby_chinese.wav,,,,,,,,,0,0,0,0,0,8,8,18,114.09177288,9.62195917964e-06,115.771281108,1.67951913341,,,,,z,1,1.66720816866,2018_Nov_26_1232,59.9848973638,chinese_cond2,001,1048,
images/hand01a.jpg,cupcake,x,sounds/greatgatsby_chinese.wav,,,,,,,,,0,0,0,0,0,9,9,163,116.882227328,9.30123496801e-06,118.638934067,1.75671668258,,,,,x,1,1.73407398839,2018_Nov_26_1232,59.9848973638,chinese_cond2,001,1048,
images/nailclipper03a.jpg,aquarium,x,sounds/greatgatsby_chinese.wav,,,,,,,,,0,0,0,0,0,10,10,123,119.739588649,9.30123496801e-06,121.806505786,2.06692675874,,,,,x,1,2.05083051859,2018_Nov_26_1232,59.9848973638,chinese_cond2,001,1048,
images/cocktailshrimp01.jpg,cocktail shrimp,z,sounds/greatgatsby_chinese.wav,,,,,,,,,0,0,0,0,0,11,11,30,122.921885158,9.94268339127e-06,125.074104092,2.15222983889,,,,,z,1,2.13419637945,2018_Nov_26_1232,59.9848973638,chinese_cond2,001,1048,
images/globe.jpg,cloud,x,sounds/greatgatsby_chinese.wav,,,,,,,,,0,0,0,0,0,12,12,154,126.201009599,8.65978654474e-06,128.074950182,1.87395020516,,,,,x,1,1.85077926575,2018_Nov_26_1232,59.9848973638,chinese_cond2,001,1048,
images/handbag02a.jpg,candle,x,sounds/greatgatsby_chinese.wav,,,,,,,,,0,0,0,0,0,13,13,144,129.191805883,9.30123496801e-06,131.025778167,1.83398190618,,,,,x,1,1.81741964305,2018_Nov_26_1232,59.9848973638,chinese_cond2,001,1048,
images/bowlingball.jpg,bowling ball,z,sounds/greatgatsby_chinese.wav,,,,,,,,,0,0,0,0,0,14,14,20,132.159063027,8.98051075637e-06,133.576716933,1.41766352754,,,,,z,1,1.40085494239,2018_Nov_26_1232,59.9848973638,chinese_cond2,001,1048,
images/arrow02.jpg,hammer,x,sounds/greatgatsby_chinese.wav,,,,,,,,,0,0,0,0,0,15,15,184,134.674159066,9.30123496801e-06,136.56068099,1.88653154671,,,,,x,1,1.86743133375,2018_Nov_26_1232,59.9848973638,chinese_cond2,001,1048,
images/tie01.jpg,bench,x,sounds/greatgatsby_chinese.wav,,,,,,,,,0,0,0,0,0,16,16,130,137.65867414,9.30123496801e-06,140.511817198,2.85315332166,,,,,x,1,2.83438282087,2018_Nov_26_1232,59.9848973638,chinese_cond2,001,1048,
images/lamp04b.jpg,parking meter,x,sounds/greatgatsby_chinese.wav,,,,,,,,,0,0,0,0,0,17,17,209,141.632315449,9.62195917964e-06,144.629501028,2.99719584291,,,,,None,0,,2018_Nov_26_1232,59.9848973638,chinese_cond2,001,1048,
images/cloud.jpg,ceiling fan,x,sounds/greatgatsby_chinese.wav,,,,,,,,,0,0,0,0,0,18,18,149,145.734608648,8.98051075637e-06,145.763314133,0.0287151072407,,,,,x,1,0.0168977484573,2018_Nov_26_1232,59.9848973638,chinese_cond2,001,1048,
images/tulip02.jpg,sport shorts,x,sounds/greatgatsby_chinese.wav,,,,,,,,,0,0,0,0,0,19,19,225,146.857702259,9.62195917964e-06,148.730821448,1.87313009426,,,,,x,1,1.85077445477,2018_Nov_26_1232,59.9848973638,chinese_cond2,001,1048,
images/scooter.jpg,pen,x,sounds/greatgatsby_chinese.wav,,,,,,,,,0,0,0,0,0,20,20,212,149.824234229,1.02634076029e-05,152.215139433,2.39091578836,,,,,x,1,2.36757582333,2018_Nov_26_1232,59.9848973638,chinese_cond2,001,1048,
images/printer03a.jpg,printer,z,sounds/greatgatsby_chinese.wav,,,,,,,,,0,0,0,0,0,21,21,72,153.325604234,8.65967012942e-06,156.099574036,2.77397974441,,,,,z,1,2.75102401606,2018_Nov_26_1232,59.9848973638,chinese_cond2,001,1048,
images/bowtie.jpg,bowtie,z,sounds/greatgatsby_chinese.wav,,,,,,,,,0,0,0,0,0,22,22,89,157.210884286,9.30123496801e-06,159.117101702,1.90622703766,,,,,z,1,1.88411804079,2018_Nov_26_1232,59.9848973638,chinese_cond2,001,1048,
images/microphone01.jpg,diaper,x,sounds/greatgatsby_chinese.wav,,,,,,,,,0,0,0,0,0,23,23,164,160.215425526,9.62195917964e-06,161.184351758,0.968936174759,,,,,x,1,0.950516554411,2018_Nov_26_1232,59.9848973638,chinese_cond2,001,1048,
images/clothespin02a.jpg,clothes pin,z,sounds/greatgatsby_chinese.wav,,,,,,,,,0,0,0,0,0,24,24,79,162.289154041,9.30123496801e-06,164.401945109,2.11280133144,,,,,z,1,2.10084637883,2018_Nov_26_1232,59.9848973638,chinese_cond2,001,1048,
images/acousticguitar02.jpg,acoustic guitar,z,sounds/greatgatsby_chinese.wav,,,,,,,,,0,0,0,0,0,25,25,97,165.588205862,8.98051075637e-06,167.186270696,1.59809209558,,,,,z,1,1.58418164181,2018_Nov_26_1232,59.9848973638,chinese_cond2,001,1048,
images/cheetah.jpg,cheetah,z,sounds/greatgatsby_chinese.wav,,,,,,,,,0,0,0,0,0,26,26,82,168.287656866,8.98039434105e-06,169.753459652,1.46581304993,,,,,z,1,1.45065944036,2018_Nov_26_1232,59.9848973638,chinese_cond2,001,1048,
images/lighter02b.jpg,stapler,x,sounds/greatgatsby_chinese.wav,,,,,,,,,0,0,0,0,0,27,27,227,170.856430237,8.98051075637e-06,172.104127143,1.24770684866,,,,,x,1,1.2339320645,2018_Nov_26_1232,59.9848973638,chinese_cond2,001,1048,
images/worldmap.jpg,scooter,x,sounds/greatgatsby_chinese.wav,,,,,,,,,0,0,0,0,0,28,28,220,173.233718778,9.30111855268e-06,175.588447053,2.35473789647,,,,,x,1,2.33424121782,2018_Nov_26_1232,59.9848973638,chinese_cond2,001,1048,
images/medal01.jpg,medal,z,sounds/greatgatsby_chinese.wav,,,,,,,,,0,0,0,0,0,29,29,115,176.689996796,9.30123496801e-06,178.455939325,1.76595279283,,,,,z,1,1.75074562093,2018_Nov_26_1232,59.9848973638,chinese_cond2,001,1048,
images/coin01b.jpg,arrow,x,sounds/greatgatsby_chinese.wav,,,,,,,,,0,0,0,0,0,30,30,124,179.558672248,9.30123496801e-06,181.77353521,2.21487290529,,,,,x,1,2.20086398697,2018_Nov_26_1232,59.9848973638,chinese_cond2,001,1048,
images/spoon02b.jpg,spoon,z,sounds/greatgatsby_chinese.wav,,,,,,,,,0,0,0,0,0,31,31,38,182.864170134,8.98039434105e-06,184.607675558,1.74351536669,,,,,z,1,1.73407302611,2018_Nov_26_1232,59.9848973638,chinese_cond2,001,1048,
images/showerhead01.jpg,skateboard,x,sounds/greatgatsby_chinese.wav,,,,,,,,,0,0,0,0,0,32,32,223,185.714643742,9.30123496801e-06,187.591856109,1.8772223097,,,,,x,1,1.86743742763,2018_Nov_26_1232,59.9848973638,chinese_cond2,001,1048,
images/swan.jpg,swan,z,sounds/greatgatsby_chinese.wav,,,,,,,,,0,0,0,0,0,33,33,54,188.683492037,8.98051075637e-06,190.392651267,1.70916885277,,,,,z,1,1.70073072298,2018_Nov_26_1232,59.9848973638,chinese_cond2,001,1048,
images/pineapple01a.jpg,pineapple,z,sounds/greatgatsby_chinese.wav,,,,,,,,,0,0,0,0,0,34,34,51,191.504583095,9.94268339127e-06,192.609969431,1.10539724061,,,,,z,1,1.08390180347,2018_Nov_26_1232,59.9848973638,chinese_cond2,001,1048,
images/gps.jpg,gps,z,sounds/greatgatsby_chinese.wav,,,,,,,,,0,0,0,0,0,35,35,21,193.72784121,9.30111855268e-06,195.227353216,1.49952259089,,,,,z,1,1.48399083863,2018_Nov_26_1232,59.9848973638,chinese_cond2,001,1048,
images/cupcake.jpg,scissors,x,sounds/greatgatsby_chinese.wav,,,,,,,,,0,0,0,0,0,36,36,219,196.346009184,9.62195917964e-06,199.228508171,2.8825095715,,,,,x,1,2.86773378367,2018_Nov_26_1232,59.9848973638,chinese_cond2,001,1048,
images/lock02a.jpg,lock,z,sounds/greatgatsby_chinese.wav,,,,,,,,,0,0,0,0,0,37,37,65,200.338110846,8.65967012942e-06,201.462461725,1.12436050107,,,,,z,1,1.10055836174,2018_Nov_26_1232,59.9848973638,chinese_cond2,001,1048,
images/parkfountain.jpg,park fountain,z,sounds/greatgatsby_chinese.wav,,,,,,,,,0,0,0,0,0,38,38,93,202.582023438,9.62195917964e-06,204.346620178,1.76460764406,,,,,z,1,1.75072477339,2018_Nov_26_1232,59.9848973638,chinese_cond2,001,1048,
images/hat05.jpg,hat,z,sounds/greatgatsby_chinese.wav,,,,,,,,,0,0,0,0,0,39,39,15,205.449617062,8.98039434105e-06,206.197153442,0.747545680963,,,,,z,1,0.73379302735,2018_Nov_26_1232,59.9848973638,chinese_cond2,001,1048,
images/knife04.jpg,tooth brush,x,sounds/greatgatsby_chinese.wav,,,,,,,,,0,0,0,0,0,40,40,233,207.295066409,9.30123496801e-06,208.447799155,1.15274333034,,,,,x,1,1.13391092839,2018_Nov_26_1232,59.9848973638,chinese_cond2,001,1048,
images/crocodile.jpg,triangle ruler,x,sounds/greatgatsby_chinese.wav,,,,,,,,,0,0,0,0,0,41,41,235,209.544848713,8.98039434105e-06,211.682038481,2.13719939021,,,,,x,1,2.11749556032,2018_Nov_26_1232,59.9848973638,chinese_cond2,001,1048,
images/bicycle.jpg,hand bag,x,sounds/greatgatsby_chinese.wav,,,,,,,,,0,0,0,0,0,42,42,186,212.791732564,9.62195917964e-06,213.765955038,0.974233058398,,,,,x,1,0.950479990919,2018_Nov_26_1232,59.9848973638,chinese_cond2,001,1048,
images/table02.jpg,table,z,sounds/greatgatsby_chinese.wav,,,,,,,,,0,0,0,0,0,43,43,49,214.881164743,8.98051075637e-06,216.816831742,1.93567694118,,,,,z,1,1.91745136352,2018_Nov_26_1232,59.9848973638,chinese_cond2,001,1048,
images/highheelshoe02a.jpg,high heel shoe,z,sounds/greatgatsby_chinese.wav,,,,,,,,,0,0,0,0,0,44,44,75,217.995966158,9.30123496801e-06,219.767666141,1.7717096057,,,,,z,1,1.75074080995,2018_Nov_26_1232,59.9848973638,chinese_cond2,001,1048,
images/doll.jpg,carrot,x,sounds/greatgatsby_chinese.wav,,,,,,,,,0,0,0,0,0,45,45,146,220.880192285,9.30123496801e-06,222.135024509,1.25484216632,,,,,x,1,1.23394970479,2018_Nov_26_1232,59.9848973638,chinese_cond2,001,1048,
images/gluestick.jpg,squirrel,x,sounds/greatgatsby_chinese.wav,,,,,,,,,0,0,0,0,0,46,46,226,223.242316311,8.98051075637e-06,224.36898159,1.12667490088,,,,,x,1,1.11721908965,2018_Nov_26_1232,59.9848973638,chinese_cond2,001,1048,
images/dice05a.jpg,band aid,x,sounds/greatgatsby_chinese.wav,,,,,,,,,0,0,0,0,0,47,47,126,225.481809222,8.98051075637e-06,226.48623564,1.00443700212,,,,,x,1,0.98384634906,2018_Nov_26_1232,59.9848973638,chinese_cond2,001,1048,
images/bed.jpg,bed,z,sounds/greatgatsby_chinese.wav,,,,,,,,,0,0,0,0,0,48,48,103,227.605372063,9.94268339127e-06,228.586842753,0.981480952934,,,,,z,1,0.967192677315,2018_Nov_26_1232,59.9848973638,chinese_cond2,001,1048,
images/50dollarbill.jpg,cherry,x,sounds/greatgatsby_chinese.wav,,,,,,,,,0,0,0,0,0,49,49,151,229.707767576,8.98051075637e-06,231.604377154,1.89661952015,,,,,x,1,1.88412766275,2018_Nov_26_1232,59.9848973638,chinese_cond2,001,1048,
images/dreamcatcher.jpg,dream catcher,z,sounds/greatgatsby_chinese.wav,,,,,,,,,0,0,0,0,0,50,50,48,232.704976248,9.62195917964e-06,234.671894379,1.96692903584,,,,,z,1,1.95078468602,2018_Nov_26_1232,59.9848973638,chinese_cond2,001,1048,
images/aquarium.jpg,computer mouse,x,sounds/greatgatsby_chinese.wav,,,,,,,,,0,0,0,0,0,51,51,159,235.80886605,9.30111855268e-06,237.489366943,1.68051083572,,,,,x,1,1.66737976007,2018_Nov_26_1232,59.9848973638,chinese_cond2,001,1048,
images/doorhandle.jpg,doll,x,sounds/greatgatsby_chinese.wav,,,,,,,,,0,0,0,0,0,52,52,168,238.593183939,9.62195917964e-06,240.090105075,1.49693107896,,,,,x,1,1.48399885686,2018_Nov_26_1232,59.9848973638,chinese_cond2,001,1048,
images/orange.jpg,bat,x,sounds/greatgatsby_chinese.wav,,,,,,,,,0,0,0,0,0,53,53,128,241.215427771,1.02634076029e-05,242.290741342,1.07532383467,,,,,x,1,1.05055436864,2018_Nov_26_1232,59.9848973638,chinese_cond2,001,1048,
images/lightbulb03b.jpg,treadmill,x,sounds/greatgatsby_chinese.wav,,,,,,,,,0,0,0,0,0,54,54,234,243.392495071,8.98051075637e-06,245.374939502,1.9824543735,,,,,x,1,1.96745535661,2018_Nov_26_1232,59.9848973638,chinese_cond2,001,1048,
images/grandpiano.jpg,tulip,x,sounds/greatgatsby_chinese.wav,,,,,,,,,0,0,0,0,0,55,55,236,246.489164882,8.65967012942e-06,247.74228087,1.25312528957,,,,,x,1,1.23391763167,2018_Nov_26_1232,59.9848973638,chinese_cond2,001,1048,
images/radish01.jpg,raisin,x,sounds/greatgatsby_chinese.wav,,,,,,,,,0,0,0,0,0,56,56,214,248.854033089,9.30123496801e-06,250.843163171,1.98914034618,,,,,x,1,1.96747107233,2018_Nov_26_1232,59.9848973638,chinese_cond2,001,1048,
images/paintbrush03a.jpg,paint brush,z,sounds/greatgatsby_chinese.wav,,,,,,,,,0,0,0,0,0,57,57,0,251.942569465,8.98039434105e-06,253.727310399,1.78475087648,,,,,z,1,1.76740923536,2018_Nov_26_1232,59.9848973638,chinese_cond2,001,1048,
images/lightswitch02a.jpg,fork,x,sounds/greatgatsby_chinese.wav,,,,,,,,,0,0,0,0,0,58,58,177,254.838201452,9.62195917964e-06,255.861248589,1.02305707964,,,,,x,1,1.00052439631,2018_Nov_26_1232,59.9848973638,chinese_cond2,001,1048,
images/plate01b.jpg,plate,z,sounds/greatgatsby_chinese.wav,,,,,,,,,0,0,0,0,0,59,59,3,256.961127321,9.30123496801e-06,258.762079958,1.80096290063,,,,,z,1,1.78408856562,2018_Nov_26_1232,59.9848973638,chinese_cond2,001,1048,
images/sunglasses03a.jpg,sun glasses,z,sounds/greatgatsby_chinese.wav,,,,,,,,,0,0,0,0,0,60,60,17,259.870420553,9.30123496801e-06,262.713197243,2.84278631152,,,,,z,1,2.83437929279,2018_Nov_26_1232,59.9848973638,chinese_cond2,001,1048,
images/candycane01a.jpg,lip,x,sounds/greatgatsby_chinese.wav,,,,,,,,,0,0,0,0,0,61,61,200,263.807728415,9.30123496801e-06,265.097224356,1.28950588393,,,,,x,1,1.26728398958,2018_Nov_26_1232,59.9848973638,chinese_cond2,001,1048,
images/beermug01b.jpg,beer mug,z,sounds/greatgatsby_chinese.wav,,,,,,,,,0,0,0,0,0,62,62,111,266.214696503,9.30123496801e-06,268.381484032,2.16679779254,,,,,x,0,2.15086095617,2018_Nov_26_1232,59.9848973638,chinese_cond2,001,1048,
images/mirror02.jpg,8 ball,x,sounds/greatgatsby_chinese.wav,,,,,,,,,0,0,0,0,0,63,63,121,269.484076474,9.62195917964e-06,270.932203096,1.44813656493,,,,,x,1,1.43395894184,2018_Nov_26_1232,59.9848973638,chinese_cond2,001,1048,
images/tape01a.jpg,tie,x,sounds/greatgatsby_chinese.wav,,,,,,,,,0,0,0,0,0,64,64,232,272.058068791,9.30123496801e-06,275.049886605,2.99182807759,,,,,None,0,,2018_Nov_26_1232,59.9848973638,chinese_cond2,001,1048,
images/umbrella01.jpg,umbrella,z,sounds/greatgatsby_chinese.wav,,,,,,,,,0,0,0,0,0,65,65,53,276.162927203,9.30123496801e-06,277.317347959,1.15443037893,,,,,z,1,1.13389392954,2018_Nov_26_1232,59.9848973638,chinese_cond2,001,1048,
images/ear.jpg,bullet,x,sounds/greatgatsby_chinese.wav,,,,,,,,,0,0,0,0,0,66,66,139,278.420636069,9.30123496801e-06,280.184833176,1.76420672948,,,,,x,1,1.75073086726,2018_Nov_26_1232,59.9848973638,chinese_cond2,001,1048,
images/computerkeyboard01a.jpg,computer keyboard,z,sounds/greatgatsby_chinese.wav,,,,,,,,,0,0,0,0,0,67,67,61,281.302581473,9.62195917964e-06,282.485480317,1.1829084655,,,,,z,1,1.16723623266,2018_Nov_26_1232,59.9848973638,chinese_cond2,001,1048,
images/teapot.jpg,light switch,x,sounds/greatgatsby_chinese.wav,,,,,,,,,0,0,0,0,0,68,68,197,283.602373863,9.30123496801e-06,285.603048362,2.00068508286,,,,,x,1,1.98414527089,2018_Nov_26_1232,59.9848973638,chinese_cond2,001,1048,
images/cake.jpg,cake,z,sounds/greatgatsby_chinese.wav,,,,,,,,,0,0,0,0,0,69,69,23,286.716969047,8.98051075637e-06,287.870353841,1.15339441563,,,,,z,1,1.13389489171,2018_Nov_26_1232,59.9848973638,chinese_cond2,001,1048,
images/feather03b.jpg,feather,z,sounds/greatgatsby_chinese.wav,,,,,,,,,0,0,0,0,0,70,70,114,288.970939144,8.98051075637e-06,290.687808764,1.71687956306,,,,,z,1,1.7007143657,2018_Nov_26_1232,59.9848973638,chinese_cond2,001,1048,
images/mushroom01.jpg,shower head,x,sounds/greatgatsby_chinese.wav,,,,,,,,,0,0,0,0,0,71,71,222,291.805642055,9.30123496801e-06,294.022175709,2.21654327586,,,,,x,1,2.20094769797,2018_Nov_26_1232,59.9848973638,chinese_cond2,001,1048,
images/squirrel.jpg,binder,x,sounds/greatgatsby_chinese.wav,,,,,,,,,0,0,0,0,0,72,72,132,295.126023174,9.62195917964e-06,296.839569373,1.71355742426,,,,,x,1,1.70073200588,2018_Nov_26_1232,59.9848973638,chinese_cond2,001,1048,
images/pepper05a.jpg,lighter,x,sounds/greatgatsby_chinese.wav,,,,,,,,,0,0,0,0,0,73,73,198,297.961311421,9.62195917964e-06,300.674005756,2.71270459867,,,,,x,1,2.70101585344,2018_Nov_26_1232,59.9848973638,chinese_cond2,001,1048,
images/saltshaker03c.jpg,salt shaker,z,sounds/greatgatsby_chinese.wav,,,,,,,,,0,0,0,0,0,74,74,63,301.785640265,9.30123496801e-06,304.658458929,2.8728286064,,,,,z,1,2.85105317063,2018_Nov_26_1232,59.9848973638,chinese_cond2,001,1048,
images/icecube02 (2).jpg,aloe,x,sounds/greatgatsby_chinese.wav,,,,,,,,,0,0,0,0,0,75,75,122,305.768684144,9.30123496801e-06,306.759050326,0.990376125206,,,,,x,1,0.967166056507,2018_Nov_26_1232,59.9848973638,chinese_cond2,001,1048,
images/seagull.jpg,seagull,z,sounds/greatgatsby_chinese.wav,,,,,,,,,0,0,0,0,0,76,76,50,307.867239215,9.30123496801e-06,308.826297496,0.959068223252,,,,,z,1,0.950507253176,2018_Nov_26_1232,59.9848973638,chinese_cond2,001,1048,
images/nailpolish02b.jpg,nail polish,z,sounds/greatgatsby_chinese.wav,,,,,,,,,0,0,0,0,0,77,77,94,309.936341497,9.30123496801e-06,312.293794387,2.35746315354,,,,,z,1,2.33406962641,2018_Nov_26_1232,59.9848973638,chinese_cond2,001,1048,
images/elbow.jpg,elbow,z,sounds/greatgatsby_chinese.wav,,,,,,,,,0,0,0,0,0,78,78,105,313.405458725,9.30123496801e-06,314.294545862,0.889097079402,,,,,z,1,0.867178276414,2018_Nov_26_1232,59.9848973638,chinese_cond2,001,1048,
images/handfan01b.jpg,handfan,z,sounds/greatgatsby_chinese.wav,,,,,,,,,0,0,0,0,0,79,79,69,315.408901779,9.30123496801e-06,317.061995509,1.65310303087,,,,,z,1,1.63405188988,2018_Nov_26_1232,59.9848973638,chinese_cond2,001,1048,
images/tent.jpg,tent,z,sounds/greatgatsby_chinese.wav,,,,,,,,,0,0,0,0,0,80,80,11,318.189552743,9.30123496801e-06,319.896154138,1.70661101758,,,,,z,1,1.68407288182,2018_Nov_26_1232,59.9848973638,chinese_cond2,001,1048,
images/hairpin.jpg,hair pin,z,sounds/greatgatsby_chinese.wav,,,,,,,,,0,0,0,0,0,81,81,28,320.988336913,9.30123496801e-06,322.346814862,1.35848757054,,,,,z,1,1.33395480434,2018_Nov_26_1232,59.9848973638,chinese_cond2,001,1048,
images/paperclip04.jpg,eye drops,x,sounds/greatgatsby_chinese.wav,,,,,,,,,0,0,0,0,0,82,82,174,323.453324721,9.30123496801e-06,325.931183811,2.47786871227,,,,,x,1,2.46762678761,2018_Nov_26_1232,59.9848973638,chinese_cond2,001,1048,
images/pouch01b.jpg,pouch,z,sounds/greatgatsby_chinese.wav,,,,,,,,,0,0,0,0,0,83,83,25,327.043827984,9.62195917964e-06,329.1821432,2.13832547911,,,,,x,0,2.1175677249,2018_Nov_26_1232,59.9848973638,chinese_cond2,001,1048,
images/graduationcap.jpg,graduation cap,z,sounds/greatgatsby_chinese.wav,,,,,,,,,0,0,0,0,0,84,84,35,330.28706704,9.62195917964e-06,331.649457274,1.36240017624,,,,,z,1,1.35062643711,2018_Nov_26_1232,59.9848973638,chinese_cond2,001,1048,
images/magnifyingglass01b.jpg,magnifying glass,z,sounds/greatgatsby_chinese.wav,,,,,,,,,0,0,0,0,0,85,85,64,332.757533586,9.62195917964e-06,333.833427682,1.07590403839,,,,,z,1,1.06722568069,2018_Nov_26_1232,59.9848973638,chinese_cond2,001,1048,
images/kiwi03.jpg,backpack,x,sounds/greatgatsby_chinese.wav,,,,,,,,,0,0,0,0,0,86,86,125,334.963635763,8.98039434105e-06,337.117688961,2.15406282037,,,,,x,1,2.13419445511,2018_Nov_26_1232,59.9848973638,chinese_cond2,001,1048,
images/gamecontroller01.jpg,game controller,z,sounds/greatgatsby_chinese.wav,,,,,,,,,0,0,0,0,0,87,87,112,338.238789546,8.98051075637e-06,339.384989629,1.14620938455,,,,,z,1,1.13388142106,2018_Nov_26_1232,59.9848973638,chinese_cond2,001,1048,
images/mailbox01.jpg,mail box,z,sounds/greatgatsby_chinese.wav,,,,,,,,,0,0,0,0,0,88,88,73,340.5070925,9.94268339127e-06,342.30249263,1.79541071458,,,,,z,1,1.78408664127,2018_Nov_26_1232,59.9848973638,chinese_cond2,001,1048,
images/baseball01a.jpg,baseball,z,sounds/greatgatsby_chinese.wav,,,,,,,,,0,0,0,0,0,89,89,74,343.435971533,9.30111855268e-06,344.303064816,0.867103225202,,,,,z,1,0.850489645032,2018_Nov_26_1232,59.9848973638,chinese_cond2,001,1048,
images/weight01.jpg,weight,z,sounds/greatgatsby_chinese.wav,,,,,,,,,0,0,0,0,0,90,90,67,345.409003451,8.98051075637e-06,346.853778428,1.44478459819,,,,,z,1,1.43397626129,2018_Nov_26_1232,59.9848973638,chinese_cond2,001,1048,
images/puma.jpg,puma,z,sounds/greatgatsby_chinese.wav,,,,,,,,,0,0,0,0,0,91,91,4,347.952465962,8.98051075637e-06,348.987715335,1.03525931633,,,,,z,1,1.01718736917,2018_Nov_26_1232,59.9848973638,chinese_cond2,001,1048,
images/belt02a.jpg,snowman,x,sounds/greatgatsby_chinese.wav,,,,,,,,,0,0,0,0,0,92,92,224,350.092143325,8.98051075637e-06,351.188356734,1.09622303175,,,,,x,1,1.08389795478,2018_Nov_26_1232,59.9848973638,chinese_cond2,001,1048,
images/leek.jpg,donut,x,sounds/greatgatsby_chinese.wav,,,,,,,,,0,0,0,0,0,93,93,169,352.291615978,8.98051075637e-06,353.789084924,1.497478568,,,,,x,1,1.48399148008,2018_Nov_26_1232,59.9848973638,chinese_cond2,001,1048,
images/hairdryer03a.jpg,hairdryer,z,sounds/greatgatsby_chinese.wav,,,,,,,,,0,0,0,0,0,94,94,119,354.889827385,9.30123496801e-06,355.772812602,0.882995479857,,,,,z,1,0.866990327719,2018_Nov_26_1232,59.9848973638,chinese_cond2,001,1048,
images/bowl02b (1).jpg,bowl,z,sounds/greatgatsby_chinese.wav,,,,,,,,,0,0,0,0,0,95,95,24,356.892016058,9.62184276432e-06,357.556663185,0.664657389512,,,,,z,1,0.650269366568,2018_Nov_26_1232,59.9848973638,chinese_cond2,001,1048,
images/pen03c.jpg,pepper,x,sounds/greatgatsby_chinese.wav,,,,,,,,,0,0,0,0,0,96,96,211,358.65233103,8.65967012942e-06,359.990855298,1.33853356983,,,,,x,1,1.31729824608,2018_Nov_26_1232,59.9848973638,chinese_cond2,001,1048,
images/sportshorts02.jpg,tape,x,sounds/greatgatsby_chinese.wav,,,,,,,,,0,0,0,0,0,97,97,230,361.102177095,9.62195917964e-06,362.474880776,1.37271362415,,,,,x,1,1.35058538348,2018_Nov_26_1232,59.9848973638,chinese_cond2,001,1048,
images/lion.jpg,lion,z,sounds/greatgatsby_chinese.wav,,,,,,,,,0,0,0,0,0,98,98,44,363.58835372,8.98051075637e-06,364.275405878,0.687061780249,,,,,z,1,0.667109062546,2018_Nov_26_1232,59.9848973638,chinese_cond2,001,1048,
images/skateboard.jpg,key,x,sounds/greatgatsby_chinese.wav,,,,,,,,,0,0,0,0,0,99,99,189,365.36745587,9.30123496801e-06,366.559378178,1.19193417567,,,,,x,1,1.16723302531,2018_Nov_26_1232,59.9848973638,chinese_cond2,001,1048,
images/cigar.jpg,crocodile,x,sounds/greatgatsby_chinese.wav,,,,,,,,,0,0,0,0,0,100,100,162,367.659054207,8.98051075637e-06,369.01020472,1.35115981393,,,,,x,1,1.33408534224,2018_Nov_26_1232,59.9848973638,chinese_cond2,001,1048,
images/bracelet02a.jpg,chess knight,x,sounds/greatgatsby_chinese.wav,,,,,,,,,0,0,0,0,0,101,101,152,370.120635523,9.30123496801e-06,371.827542256,1.70691635425,,,,,x,1,1.68405844888,2018_Nov_26_1232,59.9848973638,chinese_cond2,001,1048,
images/apricot.jpg,apricot,z,sounds/greatgatsby_chinese.wav,,,,,,,,,0,0,0,0,0,102,102,32,372.945619623,9.30111855268e-06,375.161819716,2.21620939416,,,,,x,0,2.20085276139,2018_Nov_26_1232,59.9848973638,chinese_cond2,001,1048,
images/button07.jpg,radish,x,sounds/greatgatsby_chinese.wav,,,,,,,,,0,0,0,0,0,103,103,215,376.273509071,9.62195917964e-06,378.329384378,2.05588557071,,,,,x,1,2.03414252866,2018_Nov_26_1232,59.9848973638,chinese_cond2,001,1048,
images/coffeepot03b.jpg,coffee pot,z,sounds/greatgatsby_chinese.wav,,,,,,,,,0,0,0,0,0,104,104,107,379.451123218,9.62195917964e-06,380.446657671,0.995544395526,,,,,z,1,0.983855971019,2018_Nov_26_1232,59.9848973638,chinese_cond2,001,1048,
images/pingpongpaddle01c (1).jpg,ping pong paddle,z,sounds/greatgatsby_chinese.wav,,,,,,,,,0,0,0,0,0,105,105,10,381.558231242,8.98051075637e-06,382.380552627,0.822331327945,,,,,z,1,0.800458710524,2018_Nov_26_1232,59.9848973638,chinese_cond2,001,1048,
images/treadmill.jpg,lily,x,sounds/greatgatsby_chinese.wav,,,,,,,,,0,0,0,0,0,106,106,199,383.486543542,9.30123496801e-06,384.681194636,1.19466135709,,,,,x,1,1.18390209216,2018_Nov_26_1232,59.9848973638,chinese_cond2,001,1048,
images/diaper01a.jpg,camera,x,sounds/greatgatsby_chinese.wav,,,,,,,,,0,0,0,0,0,107,107,143,385.801621684,9.62195917964e-06,386.748450786,0.946839365643,,,,,x,1,0.933839469217,2018_Nov_26_1232,59.9848973638,chinese_cond2,001,1048,
images/panda.jpg,panda,z,sounds/greatgatsby_chinese.wav,,,,,,,,,0,0,0,0,0,108,108,83,387.859186926,4.39402647316e-05,388.715680668,0.856517476263,,,,,z,1,0.833820578177,2018_Nov_26_1232,59.9848973638,chinese_cond2,001,1048,
images/ruler02b.jpg,watermelon,x,sounds/greatgatsby_chinese.wav,,,,,,,,,0,0,0,0,0,109,109,238,389.81929464,8.98051075637e-06,390.999668363,1.18038398644,,,,,x,1,1.16725451441,2018_Nov_26_1232,59.9848973638,chinese_cond2,001,1048,
images/broom02.jpg,broom,z,sounds/greatgatsby_chinese.wav,,,,,,,,,0,0,0,0,0,110,110,116,392.094984366,9.30111855268e-06,393.316985212,1.22201078874,,,,,z,1,1.20058495039,2018_Nov_26_1232,59.9848973638,chinese_cond2,001,1048,
images/drink.jpg,drink,z,sounds/greatgatsby_chinese.wav,,,,,,,,,0,0,0,0,0,111,111,117,394.417553837,8.98051075637e-06,395.384240079,0.966695863986,,,,,z,1,0.950519120321,2018_Nov_26_1232,59.9848973638,chinese_cond2,001,1048,
images/honeycomb.jpg,honey comb,z,sounds/greatgatsby_chinese.wav,,,,,,,,,0,0,0,0,0,112,112,59,396.4985357,8.98039434105e-06,398.401766783,1.90324166708,,,,,z,1,1.88411451271,2018_Nov_26_1232,59.9848973638,chinese_cond2,001,1048,
images/charcoalbarbecue.jpg,charcoal barbecue,z,sounds/greatgatsby_chinese.wav,,,,,,,,,0,0,0,0,0,113,113,77,399.518547111,9.30111855268e-06,401.319256634,1.80072010669,,,,,z,1,1.78408407525,2018_Nov_26_1232,59.9848973638,chinese_cond2,001,1048,
images/flipflop01b.jpg,flip flop,z,sounds/greatgatsby_chinese.wav,,,,,,,,,0,0,0,0,0,114,114,27,402.436472195,9.94268339127e-06,403.920011764,1.48354919103,,,,,z,1,1.46733909124,2018_Nov_26_1232,59.9848973638,chinese_cond2,001,1048,
images/screwdriver02b.jpg,cola,x,sounds/greatgatsby_chinese.wav,,,,,,,,,0,0,0,0,0,115,115,158,405.013831233,8.98051075637e-06,407.987820214,2.97399860353,,,,,x,1,2.9510890604,2018_Nov_26_1232,59.9848973638,chinese_cond2,001,1048,
images/thumbtack02a.jpg,thumb tack,z,sounds/greatgatsby_chinese.wav,,,,,,,,,0,0,0,0,0,116,116,60,409.09993518,8.98039434105e-06,410.505196655,1.40527141758,,,,,z,1,1.38396809879,2018_Nov_26_1232,59.9848973638,chinese_cond2,001,1048,
images/key03b.jpg,cigar,x,sounds/greatgatsby_chinese.wav,,,,,,,,,0,0,0,0,0,117,117,153,411.607717253,9.62195917964e-06,412.689194967,1.08148797695,,,,,z,0,1.06725615007,2018_Nov_26_1232,59.9848973638,chinese_cond2,001,1048,
images/electricguitar02.jpg,electric guitar,z,sounds/greatgatsby_chinese.wav,,,,,,,,,0,0,0,0,0,118,118,100,413.791337101,9.62195917964e-06,414.506332366,0.715005207108,,,,,z,1,0.700438536471,2018_Nov_26_1232,59.9848973638,chinese_cond2,001,1048,
images/dolphin01.jpg,dolphin,z,sounds/greatgatsby_chinese.wav,,,,,,,,,0,0,0,0,0,119,119,99,415.606707269,9.30111855268e-06,416.456881314,0.850183987641,,,,,z,1,0.83380710741,2018_Nov_26_1232,59.9848973638,chinese_cond2,001,1048,
images/fireextinguisher02.jpg,fire extinguisher,z,sounds/greatgatsby_chinese.wav,,,,,,,,,0,0,0,0,0,120,120,175,417.567713032,8.98051075637e-06,418.740858105,1.17315437365,,,,,z,1,1.15055529878,2018_Nov_26_1232,59.9848973638,chinese_cond2,001,1048,
images/parkbench03.jpg,park bench,z,sounds/greatgatsby_chinese.wav,,,,,,,,,0,0,0,0,0,121,121,71,419.846898412,9.30111855268e-06,421.741733061,1.89484427031,,,,,z,1,1.88411483355,2018_Nov_26_1232,59.9848973638,chinese_cond2,001,1048,
images/remotecontrol01c.jpg,remote control,z,sounds/greatgatsby_chinese.wav,,,,,,,,,0,0,0,0,0,122,122,85,422.851520156,8.98051075637e-06,424.025700871,1.17419065768,,,,,z,1,1.15056107205,2018_Nov_26_1232,59.9848973638,chinese_cond2,001,1048,
images/toucan.jpg,toucan,z,sounds/greatgatsby_chinese.wav,,,,,,,,,0,0,0,0,0,123,123,81,425.126048512,8.98051075637e-06,427.443361512,2.31732294243,,,,,x,0,2.3009078952,2018_Nov_26_1232,59.9848973638,chinese_cond2,001,1048,
images/volleyball.jpg,volley ball,z,sounds/greatgatsby_chinese.wav,,,,,,,,,0,0,0,0,0,124,124,2,428.57479575,9.30111855268e-06,429.243859031,0.669072902529,,,,,z,1,0.650412733667,2018_Nov_26_1232,59.9848973638,chinese_cond2,001,1048,
images/grasshopper.jpg,cauliflower,x,sounds/greatgatsby_chinese.wav,,,,,,,,,0,0,0,0,0,125,125,148,430.33726668,9.30123496801e-06,432.294742149,1.95748573309,,,,,z,0,1.93413935334,2018_Nov_26_1232,59.9848973638,chinese_cond2,001,1048,
images/headphones02b.jpg,headphones,z,sounds/greatgatsby_chinese.wav,,,,,,,,,0,0,0,0,0,126,126,101,433.402653606,9.30123496801e-06,434.261946373,0.859303030884,,,,,z,1,0.850483230432,2018_Nov_26_1232,59.9848973638,chinese_cond2,001,1048,
images/butterfly.jpg,butterfly,z,sounds/greatgatsby_chinese.wav,,,,,,,,,0,0,0,0,0,127,127,91,435.36998965,8.65978654474e-06,436.212501736,0.842521707877,,,,,z,1,0.833804862341,2018_Nov_26_1232,59.9848973638,chinese_cond2,001,1048,
images/lychee02a.jpg,lychee,z,sounds/greatgatsby_chinese.wav,,,,,,,,,0,0,0,0,0,128,128,62,437.336229754,9.30123496801e-06,438.613185087,1.27696495468,,,,,z,1,1.26727308473,2018_Nov_26_1232,59.9848973638,chinese_cond2,001,1048,
images/croissant02b.jpg,croissant,z,sounds/greatgatsby_chinese.wav,,,,,,,,,0,0,0,0,0,129,129,39,439.72449245,9.30123496801e-06,440.79715357,1.07267106301,,,,,z,1,1.05055436864,2018_Nov_26_1232,59.9848973638,chinese_cond2,001,1048,
images/candy.jpg,candy,z,sounds/greatgatsby_chinese.wav,,,,,,,,,0,0,0,0,0,130,130,31,441.900730659,8.65978654474e-06,442.697701092,0.796980696148,,,,,z,1,0.783809208311,2018_Nov_26_1232,59.9848973638,chinese_cond2,001,1048,
images/birthdaycandle.jpg,birthday candle,z,sounds/greatgatsby_chinese.wav,,,,,,,,,0,0,0,0,0,131,131,55,443.794765723,9.30123496801e-06,444.964991496,1.17023603607,,,,,z,1,1.15055754397,2018_Nov_26_1232,59.9848973638,chinese_cond2,001,1048,
images/nametag01a.jpg,name tag,z,sounds/greatgatsby_chinese.wav,,,,,,,,,0,0,0,0,0,132,132,108,446.086769145,8.98039434105e-06,447.265639598,1.17888039618,,,,,z,1,1.16717721813,2018_Nov_26_1232,59.9848973638,chinese_cond2,001,1048,
images/desktopcomputer.jpg,desktop computer,z,sounds/greatgatsby_chinese.wav,,,,,,,,,0,0,0,0,0,133,133,16,448.401816175,9.30123496801e-06,449.833040879,1.43123432621,,,,,z,1,1.41730976047,2018_Nov_26_1232,59.9848973638,chinese_cond2,001,1048,
images/blueberry02.jpg,blueberry,z,sounds/greatgatsby_chinese.wav,,,,,,,,,0,0,0,0,0,134,134,46,450.947261449,9.30123496801e-06,452.016997496,1.06974631082,,,,,z,1,1.05054570886,2018_Nov_26_1232,59.9848973638,chinese_cond2,001,1048,
images/radio03a.jpg,radio,z,sounds/greatgatsby_chinese.wav,,,,,,,,,0,0,0,0,0,135,135,37,453.130991308,9.94268339127e-06,454.067577844,0.936596799642,,,,,z,1,0.917172006215,2018_Nov_26_1232,59.9848973638,chinese_cond2,001,1048,
images/boxingglove02a.jpg,bracelet,x,sounds/greatgatsby_chinese.wav,,,,,,,,,0,0,0,0,0,136,136,135,455.179177073,9.30123496801e-06,457.285177931,2.10601176252,,,,,z,0,2.08418436802,2018_Nov_26_1232,59.9848973638,chinese_cond2,001,1048,
images/ladybug03.jpg,giraffe,x,sounds/greatgatsby_chinese.wav,,,,,,,,,0,0,0,0,0,137,137,178,458.388424665,8.98051075637e-06,459.80255822,1.41414381796,,,,,z,0,1.40065737162,2018_Nov_26_1232,59.9848973638,chinese_cond2,001,1048,
images/tank.jpg,wallet,x,sounds/greatgatsby_chinese.wav,,,,,,,,,0,0,0,0,0,138,138,237,460.907184101,9.30123496801e-06,461.903148655,0.995974496705,,,,,x,1,0.983859178261,2018_Nov_26_1232,59.9848973638,chinese_cond2,001,1048,
images/ant.jpg,ant,z,sounds/greatgatsby_chinese.wav,,,,,,,,,0,0,0,0,0,139,139,98,462.998130776,9.30123496801e-06,463.97039807,0.972277878085,,,,,z,1,0.950513988617,2018_Nov_26_1232,59.9848973638,chinese_cond2,001,1048,
images/candle08a.jpg,screw driver,x,sounds/greatgatsby_chinese.wav,,,,,,,,,0,0,0,0,0,140,140,221,465.083990967,9.30123496801e-06,466.704526262,1.62054491672,,,,,x,1,1.60071856726,2018_Nov_26_1232,59.9848973638,chinese_cond2,001,1048,
images/cauliflower01.jpg,glue stick,x,sounds/greatgatsby_chinese.wav,,,,,,,,,0,0,0,0,0,141,141,181,467.823687061,9.30111855268e-06,469.188553664,1.3648765455,,,,,x,1,1.35062098457,2018_Nov_26_1232,59.9848973638,chinese_cond2,001,1048,
images/safe.jpg,safe,z,sounds/greatgatsby_chinese.wav,,,,,,,,,0,0,0,0,0,142,142,78,470.299754223,9.62195917964e-06,471.655901415,1.35615777562,,,,,z,1,1.33394903131,2018_Nov_26_1232,59.9848973638,chinese_cond2,001,1048,
images/parrot01.jpg,chameleon,x,sounds/greatgatsby_chinese.wav,,,,,,,,,0,0,0,0,0,143,143,150,472.770938246,9.30123496801e-06,473.939887827,1.16895984474,,,,,z,0,1.15056299628,2018_Nov_26_1232,59.9848973638,chinese_cond2,001,1048,
images/blackolive.jpg,tank,x,sounds/greatgatsby_chinese.wav,,,,,,,,,0,0,0,0,0,144,144,229,475.054488463,9.94268339127e-06,476.440597446,1.38611924613,,,,,x,1,1.3672807503,2018_Nov_26_1232,59.9848973638,chinese_cond2,001,1048,
images/bandaid01.jpg,door handle,x,sounds/greatgatsby_chinese.wav,,,,,,,,,0,0,0,0,0,145,145,170,477.602287266,8.33894591779e-06,478.958000507,1.35572254274,,,,,x,1,1.33396602992,2018_Nov_26_1232,59.9848973638,chinese_cond2,001,1048,
images/camera01a.jpg,bull,x,sounds/greatgatsby_chinese.wav,,,,,,,,,0,0,0,0,0,146,146,138,480.069067643,9.30111855268e-06,481.392005635,1.32294793462,,,,,x,1,1.30060480372,2018_Nov_26_1232,59.9848973638,chinese_cond2,001,1048,
images/tissuebox03.jpg,tissue box,z,sounds/greatgatsby_chinese.wav,,,,,,,,,0,0,0,0,0,147,147,58,482.517435134,9.62195917964e-06,484.409537149,1.89211163647,,,,,z,1,1.86743614473,2018_Nov_26_1232,59.9848973638,chinese_cond2,001,1048,
images/leaf01a.jpg,leaf,z,sounds/greatgatsby_chinese.wav,,,,,,,,,0,0,0,0,0,148,148,68,485.512634743,9.94268339127e-06,486.193413069,0.680789230857,,,,,z,1,0.667131513823,2018_Nov_26_1232,59.9848973638,chinese_cond2,001,1048,
images/swallow.jpg,mattress,x,sounds/greatgatsby_chinese.wav,,,,,,,,,0,0,0,0,0,149,149,202,487.295196947,9.62195917964e-06,489.460970322,2.16578363895,,,,,x,1,2.15085999388,2018_Nov_26_1232,59.9848973638,chinese_cond2,001,1048,
images/broadsword.jpg,teapot,x,sounds/greatgatsby_chinese.wav,,,,,,,,,0,0,0,0,0,150,150,231,490.553888535,9.30123496801e-06,492.228425102,1.67454683024,,,,,x,1,1.65071422129,2018_Nov_26_1232,59.9848973638,chinese_cond2,001,1048,
images/scissors04a.jpg,leek,x,sounds/greatgatsby_chinese.wav,,,,,,,,,0,0,0,0,0,151,151,194,493.322316735,9.30123496801e-06,496.279571541,2.95726667333,,,,,x,1,2.93440844736,2018_Nov_26_1232,59.9848973638,chinese_cond2,001,1048,
images/lip.jpg,boxing glove,x,sounds/greatgatsby_chinese.wav,,,,,,,,,0,0,0,0,0,152,152,136,497.382404532,9.30123496801e-06,499.363780605,1.98138601624,,,,,x,1,1.9674553565,2018_Nov_26_1232,59.9848973638,chinese_cond2,001,1048,
images/basketball01.jpg,basket ball,z,sounds/greatgatsby_chinese.wav,,,,,,,,,0,0,0,0,0,153,153,33,500.502866219,9.30111855268e-06,501.5477276,1.04487132397,,,,,z,1,1.03385836049,2018_Nov_26_1232,59.9848973638,chinese_cond2,001,1048,
images/antelope.jpg,antelope,z,sounds/greatgatsby_chinese.wav,,,,,,,,,0,0,0,0,0,154,154,12,502.653205986,9.30111855268e-06,503.848403285,1.19520724227,,,,,z,1,1.18391716655,2018_Nov_26_1232,59.9848973638,chinese_cond2,001,1048,
images/wallet01.jpg,lamp,x,sounds/greatgatsby_chinese.wav,,,,,,,,,0,0,0,0,0,155,155,193,504.955076076,9.62195917964e-06,507.732820248,2.77775411482,,,,,x,1,2.76768763049,2018_Nov_26_1232,59.9848973638,chinese_cond2,001,1048,
images/highlighter03b.jpg,coin,x,sounds/greatgatsby_chinese.wav,,,,,,,,,0,0,0,0,0,156,156,156,508.836493556,9.30123496801e-06,510.967092288,2.13060899568,,,,,x,1,2.1175196151,2018_Nov_26_1232,59.9848973638,chinese_cond2,001,1048,
images/flamingo.jpg,flamingo,z,sounds/greatgatsby_chinese.wav,,,,,,,,,0,0,0,0,0,157,157,52,512.066911684,8.98051075637e-06,513.867904092,1.80100202991,,,,,x,0,1.78408150945,2018_Nov_26_1232,59.9848973638,chinese_cond2,001,1048,
images/hanger02a.jpg,hanger,z,sounds/greatgatsby_chinese.wav,,,,,,,,,0,0,0,0,0,158,158,88,514.962666512,8.98039434105e-06,515.952010523,0.989373518038,,,,,z,1,0.967222505365,2018_Nov_26_1232,59.9848973638,chinese_cond2,001,1048,
images/flashlight05.jpg,flash light,z,sounds/greatgatsby_chinese.wav,,,,,,,,,0,0,0,0,0,159,159,8,517.056557183,9.30111855268e-06,517.785740334,0.729194376501,,,,,z,1,0.71715603373,2018_Nov_26_1232,59.9848973638,chinese_cond2,001,1048,
images/redfox.jpg,red fox,z,sounds/greatgatsby_chinese.wav,,,,,,,,,0,0,0,0,0,160,160,1,518.89951701,9.62184276432e-06,520.236387907,1.33688083943,,,,,z,1,1.31728766207,2018_Nov_26_1232,59.9848973638,chinese_cond2,001,1048,
images/lantern03.jpg,lantern,z,sounds/greatgatsby_chinese.wav,,,,,,,,,0,0,0,0,0,161,161,5,521.344248046,8.98051075637e-06,522.470346913,1.12610880949,,,,,z,1,1.11722550413,2018_Nov_26_1232,59.9848973638,chinese_cond2,001,1048,
images/lipstick04.jpg,lipstick,z,sounds/greatgatsby_chinese.wav,,,,,,,,,0,0,0,0,0,162,162,56,523.571663805,8.98051075637e-06,524.470917174,0.899262669962,,,,,z,1,0.883821043186,2018_Nov_26_1232,59.9848973638,chinese_cond2,001,1048,
images/egg01b (1).jpg,egg,z,sounds/greatgatsby_chinese.wav,,,,,,,,,0,0,0,0,0,163,163,19,525.584711491,9.30111855268e-06,526.604856006,1.02015477861,,,,,z,1,1.00052439631,2018_Nov_26_1232,59.9848973638,chinese_cond2,001,1048,
images/lily.jpg,kiwi,x,sounds/greatgatsby_chinese.wav,,,,,,,,,0,0,0,0,0,164,164,190,527.705837092,8.98051075637e-06,529.672404343,1.96657751396,,,,,x,1,1.95079879824,2018_Nov_26_1232,59.9848973638,chinese_cond2,001,1048,
images/puzzle.jpg,puzzle,z,sounds/greatgatsby_chinese.wav,,,,,,,,,0,0,0,0,0,165,165,57,530.794145428,8.65978654474e-06,531.889695885,1.0955597586,,,,,z,1,1.08384856209,2018_Nov_26_1232,59.9848973638,chinese_cond2,001,1048,
images/backpack01b.jpg,swallow,x,sounds/greatgatsby_chinese.wav,,,,,,,,,0,0,0,0,0,166,166,228,533.021785699,9.62195917964e-06,534.99058845,1.96881301375,,,,,x,1,1.95080842031,2018_Nov_26_1232,59.9848973638,chinese_cond2,001,1048,
images/rhinoceros01.jpg,envelope,x,sounds/greatgatsby_chinese.wav,,,,,,,,,0,0,0,0,0,167,167,173,536.104389822,9.30111855268e-06,537.674672878,1.57029331871,,,,,z,0,1.55068634974,2018_Nov_26_1232,59.9848973638,chinese_cond2,001,1048,
images/toothbrush03a.jpg,parrot,x,sounds/greatgatsby_chinese.wav,,,,,,,,,0,0,0,0,0,168,168,210,538.76888845,8.98039434105e-06,540.275537378,1.50665887073,,,,,x,1,1.48412169714,2018_Nov_26_1232,59.9848973638,chinese_cond2,001,1048,
images/raisin.jpg,ruler,x,sounds/greatgatsby_chinese.wav,,,,,,,,,0,0,0,0,0,169,169,218,541.382335254,9.94268339127e-06,542.309325819,0.927001149161,,,,,x,1,0.917154045193,2018_Nov_26_1232,59.9848973638,chinese_cond2,001,1048,
images/cola.jpg,comb,x,sounds/greatgatsby_chinese.wav,,,,,,,,,0,0,0,0,0,170,170,157,543.431493477,8.65978654474e-06,544.810022608,1.37853875291,,,,,x,1,1.36728075019,2018_Nov_26_1232,59.9848973638,chinese_cond2,001,1048,
images/banana04a.jpg,banana,z,sounds/greatgatsby_chinese.wav,,,,,,,,,0,0,0,0,0,171,171,118,545.91735354,8.98051075637e-06,547.14403322,1.22668994323,,,,,z,1,1.21726203559,2018_Nov_26_1232,59.9848973638,chinese_cond2,001,1048,
images/calculator02b.jpg,dice,x,sounds/greatgatsby_chinese.wav,,,,,,,,,0,0,0,0,0,172,172,165,548.247693699,8.98051075637e-06,549.711419748,1.46373663319,,,,,x,1,1.4506446867,2018_Nov_26_1232,59.9848973638,chinese_cond2,001,1048,
images/chessknight02b (1).jpg,cockroach,x,sounds/greatgatsby_chinese.wav,,,,,,,,,0,0,0,0,0,173,173,155,550.821917584,8.98051075637e-06,553.529170386,2.70726242359,,,,,x,1,2.68427815009,2018_Nov_26_1232,59.9848973638,chinese_cond2,001,1048,
images/bus.jpg,microphone,x,sounds/greatgatsby_chinese.wav,,,,,,,,,0,0,0,0,0,174,174,203,554.647900763,8.98039434105e-06,556.246612833,1.5987223332,,,,,x,1,1.58402608696,2018_Nov_26_1232,59.9848973638,chinese_cond2,001,1048,
images/binder03b.jpg,dj mixer,x,sounds/greatgatsby_chinese.wav,,,,,,,,,0,0,0,0,0,175,175,167,557.361154775,9.62195917964e-06,559.347489681,1.98634452804,,,,,x,1,1.96747139306,2018_Nov_26_1232,59.9848973638,chinese_cond2,001,1048,
images/axe01.jpg,axe,z,sounds/greatgatsby_chinese.wav,,,,,,,,,0,0,0,0,0,176,176,104,560.451545622,9.30123496801e-06,562.031590467,1.58005478745,,,,,z,1,1.56735573732,2018_Nov_26_1232,59.9848973638,chinese_cond2,001,1048,
,,,sounds/greatgatsby_chinese.wav,,,,,,,,,0,0,0,0,,,,,,,,,,,,,,,,2018_Nov_26_1232,59.9848973638,chinese_cond2,001,1048,
images/leaf01a.jpg,leaf,z,sounds/animalfarm_english.wav,,,,,,,,,0,1,1,1,0,0,0,68,583.160667327,9.62195917964e-06,585.838364384,2.6777073202,,,,573.034990543,z,1,2.66767964419,2018_Nov_26_1232,59.9848973638,chinese_cond2,001,1048,
images/sportshorts02.jpg,tape,x,sounds/animalfarm_english.wav,,,,,,,,,0,1,1,1,0,1,1,230,586.945002535,9.62195917964e-06,588.25571167,1.31071907724,,,,,x,1,1.30060769035,2018_Nov_26_1232,59.9848973638,chinese_cond2,001,1048,
images/bat.jpg,hand,x,sounds/animalfarm_english.wav,,,,,,,,,0,1,1,1,0,2,2,185,589.353953707,9.30123496801e-06,590.923122862,1.56917909684,,,,,x,1,1.55067416199,2018_Nov_26_1232,59.9848973638,chinese_cond2,001,1048,
images/spoon02b.jpg,spoon,z,sounds/animalfarm_english.wav,,,,,,,,,0,1,1,1,0,3,3,38,592.014094874,9.30123496801e-06,592.873822233,0.859736980754,,,,,z,1,0.850620503537,2018_Nov_26_1232,59.9848973638,chinese_cond2,001,1048,
images/grandpiano.jpg,tulip,x,sounds/animalfarm_english.wav,,,,,,,,,0,1,1,1,0,4,4,236,593.989435098,9.30123496801e-06,596.241304082,2.25187956786,,,,,x,1,2.23420244141,2018_Nov_26_1232,59.9848973638,chinese_cond2,001,1048,
images/ruler02b.jpg,watermelon,x,sounds/animalfarm_english.wav,,,,,,,,,0,1,1,1,0,5,5,238,597.341222264,9.30123496801e-06,599.708972565,2.36776024406,,,,,x,1,2.35091894434,2018_Nov_26_1232,59.9848973638,chinese_cond2,001,1048,
images/volleyball.jpg,volley ball,z,sounds/animalfarm_english.wav,,,,,,,,,0,1,1,1,0,6,6,2,600.839103991,8.98051075637e-06,601.959609939,1.12051589042,,,,,z,1,1.10055098485,2018_Nov_26_1232,59.9848973638,chinese_cond2,001,1048,
images/floorlamp.jpg,floor lamp,z,sounds/animalfarm_english.wav,,,,,,,,,0,1,1,1,0,7,7,26,603.051539977,9.30123496801e-06,605.393917837,2.34238780243,,,,,z,1,2.31757375458,2018_Nov_26_1232,59.9848973638,chinese_cond2,001,1048,
images/table02.jpg,table,z,sounds/animalfarm_english.wav,,,,,,,,,0,1,1,1,0,8,8,49,606.50636027,9.30123496801e-06,607.694572354,1.18822234788,,,,,z,1,1.16724713752,2018_Nov_26_1232,59.9848973638,chinese_cond2,001,1048,
images/apricot.jpg,apricot,z,sounds/animalfarm_english.wav,,,,,,,,,0,1,1,1,0,9,9,32,608.810809363,8.98051075637e-06,609.91185652,1.10105645808,,,,,z,1,1.08387839003,2018_Nov_26_1232,59.9848973638,chinese_cond2,001,1048,
images/binder03b.jpg,dj mixer,x,sounds/animalfarm_english.wav,,,,,,,,,0,1,1,1,0,10,10,167,611.024820462,9.62195917964e-06,612.412575119,1.3877642788,,,,,x,1,1.36729582469,2018_Nov_26_1232,59.9848973638,chinese_cond2,001,1048,
images/pepper05a.jpg,lighter,x,sounds/animalfarm_english.wav,,,,,,,,,0,1,1,1,0,11,11,198,613.531649,9.62195917964e-06,615.580155176,2.04851643951,,,,,x,1,2.03416433837,2018_Nov_26_1232,59.9848973638,chinese_cond2,001,1048,
images/gluestick.jpg,squirrel,x,sounds/animalfarm_english.wav,,,,,,,,,0,1,1,1,0,12,12,226,616.686414864,9.62195917964e-06,619.68132806,2.99492377974,,,,,None,0,,2018_Nov_26_1232,59.9848973638,chinese_cond2,001,1048,
images/axe01.jpg,axe,z,sounds/animalfarm_english.wav,,,,,,,,,0,1,1,1,0,13,13,104,620.7833233,9.30123496801e-06,621.531829251,0.748516215128,,,,,z,1,0.733769293176,2018_Nov_26_1232,59.9848973638,chinese_cond2,001,1048,
images/pouch01b.jpg,pouch,z,sounds/animalfarm_english.wav,,,,,,,,,0,1,1,1,0,14,14,25,622.642065371,9.94256697595e-06,624.199271875,1.55721772963,,,,,x,0,1.53403460246,2018_Nov_26_1232,59.9848973638,chinese_cond2,001,1048,
images/blackolive.jpg,tank,x,sounds/animalfarm_english.wav,,,,,,,,,0,1,1,1,0,15,15,229,625.312129014,9.30111855268e-06,626.166475136,0.854356386117,,,,,x,1,0.833809994045,2018_Nov_26_1232,59.9848973638,chinese_cond2,001,1048,
images/bullet (2).jpg,rubber glove,x,sounds/animalfarm_english.wav,,,,,,,,,0,1,1,1,0,16,16,217,627.270656483,8.98051075637e-06,628.867255252,1.5966083908,,,,,x,1,1.58399850409,2018_Nov_26_1232,59.9848973638,chinese_cond2,001,1048,
images/doll.jpg,carrot,x,sounds/animalfarm_english.wav,,,,,,,,,0,1,1,1,0,17,17,146,629.976758179,8.65978654474e-06,631.034539274,1.05779039604,,,,,x,1,1.03388145298,2018_Nov_26_1232,59.9848973638,chinese_cond2,001,1048,
images/parkfountain.jpg,park fountain,z,sounds/animalfarm_english.wav,,,,,,,,,0,1,1,1,0,18,18,93,632.153226031,9.30123496801e-06,633.701958805,1.54874271585,,,,,z,1,1.53400637803,2018_Nov_26_1232,59.9848973638,chinese_cond2,001,1048,
images/lamp04b.jpg,parking meter,x,sounds/animalfarm_english.wav,,,,,,,,,0,1,1,1,0,19,19,209,634.821842533,9.30123496801e-06,636.169323554,1.34749064338,,,,,x,1,1.33394550311,2018_Nov_26_1232,59.9848973638,chinese_cond2,001,1048,
images/tie01.jpg,bench,x,sounds/animalfarm_english.wav,,,,,,,,,0,1,1,1,0,20,20,130,637.26721407,9.30123496801e-06,638.570007226,1.30280309869,,,,,x,1,1.28393701988,2018_Nov_26_1232,59.9848973638,chinese_cond2,001,1048,
images/fireextinguisher02.jpg,fire extinguisher,z,sounds/animalfarm_english.wav,,,,,,,,,0,1,1,1,0,21,21,175,639.678805185,9.30123496801e-06,641.087408042,1.40861247946,,,,,z,1,1.38396328769,2018_Nov_26_1232,59.9848973638,chinese_cond2,001,1048,
images/doorhandle.jpg,doll,x,sounds/animalfarm_english.wav,,,,,,,,,0,1,1,1,0,22,22,168,642.188557833,9.62195917964e-06,643.388057428,1.19950953708,,,,,x,1,1.1839216568,2018_Nov_26_1232,59.9848973638,chinese_cond2,001,1048,
images/broadsword.jpg,teapot,x,sounds/animalfarm_english.wav,,,,,,,,,0,1,1,1,0,23,23,231,644.480601988,9.62195917964e-06,645.555322847,1.07473112259,,,,,x,1,1.05053897365,2018_Nov_26_1232,59.9848973638,chinese_cond2,001,1048,
images/wallet01.jpg,lamp,x,sounds/animalfarm_english.wav,,,,,,,,,0,1,1,1,0,24,24,193,646.660057777,8.98051075637e-06,647.939329433,1.27928192029,,,,,x,1,1.26724646403,2018_Nov_26_1232,59.9848973638,chinese_cond2,001,1048,
images/gamecontroller01.jpg,game controller,z,sounds/animalfarm_english.wav,,,,,,,,,0,1,1,1,0,25,25,112,649.058567208,9.62184276432e-06,649.889904361,0.831347416155,,,,,z,1,0.81713387114,2018_Nov_26_1232,59.9848973638,chinese_cond2,001,1048,
images/key03b.jpg,cigar,x,sounds/animalfarm_english.wav,,,,,,,,,0,1,1,1,0,26,26,153,650.990899239,9.62195917964e-06,653.374209196,2.38331990002,,,,,x,1,2.367569088,2018_Nov_26_1232,59.9848973638,chinese_cond2,001,1048,
images/hat05.jpg,hat,z,sounds/animalfarm_english.wav,,,,,,,,,0,1,1,1,0,27,27,15,654.477910728,9.30123496801e-06,655.50816631,1.03026552417,,,,,z,1,1.01720629248,2018_Nov_26_1232,59.9848973638,chinese_cond2,001,1048,
images/hanger02a.jpg,hanger,z,sounds/animalfarm_english.wav,,,,,,,,,0,1,1,1,0,28,28,88,656.599491448,8.98051075637e-06,657.37535485,0.775873344392,,,,,z,1,0.767136613373,2018_Nov_26_1232,59.9848973638,chinese_cond2,001,1048,
images/bed.jpg,bed,z,sounds/animalfarm_english.wav,,,,,,,,,0,1,1,1,0,29,29,103,658.494497046,8.98051075637e-06,659.225863418,0.731375993462,,,,,z,1,0.717104716692,2018_Nov_26_1232,59.9848973638,chinese_cond2,001,1048,
images/camera01a.jpg,bull,x,sounds/animalfarm_english.wav,,,,,,,,,0,1,1,1,0,30,30,138,660.336265035,1.02635240182e-05,661.176431289,0.840176197235,,,,,x,1,0.817139323568,2018_Nov_26_1232,59.9848973638,chinese_cond2,001,1048,
images/lettuce.jpg,mushroom,x,sounds/animalfarm_english.wav,,,,,,,,,0,1,1,1,0,31,31,205,662.299405909,8.98051075637e-06,663.160325427,0.86092978192,,,,,x,1,0.850487720687,2018_Nov_26_1232,59.9848973638,chinese_cond2,001,1048,
images/hammer02a.jpg,flower,x,sounds/animalfarm_english.wav,,,,,,,,,0,1,1,1,0,32,32,176,664.25660138,8.98051075637e-06,665.044195863,0.787603784702,,,,,x,1,0.767125067068,2018_Nov_26_1232,59.9848973638,chinese_cond2,001,1048,
images/screw03c.jpg,screw,z,sounds/animalfarm_english.wav,,,,,,,,,0,1,1,1,0,33,33,84,666.139160344,9.30123496801e-06,668.011712159,1.87256175769,,,,,x,0,1.85077156813,2018_Nov_26_1232,59.9848973638,chinese_cond2,001,1048,
images/cat.jpg,black olive,x,sounds/animalfarm_english.wav,,,,,,,,,0,1,1,1,0,34,34,133,669.143510748,8.98051075637e-06,670.529085071,1.38558330352,,,,,x,1,1.36723584775,2018_Nov_26_1232,59.9848973638,chinese_cond2,001,1048,
images/redfox.jpg,red fox,z,sounds/animalfarm_english.wav,,,,,,,,,0,1,1,1,0,35,35,1,671.641319028,9.30123496801e-06,672.646352912,1.00504382642,,,,,z,1,0.983849556302,2018_Nov_26_1232,59.9848973638,chinese_cond2,001,1048,
images/medal01.jpg,medal,z,sounds/animalfarm_english.wav,,,,,,,,,0,1,1,1,0,36,36,115,673.747486025,8.98051075637e-06,674.613588567,0.866111843614,,,,,z,1,0.85048868286,2018_Nov_26_1232,59.9848973638,chinese_cond2,001,1048,
images/scissors04a.jpg,leek,x,sounds/animalfarm_english.wav,,,,,,,,,0,1,1,1,0,37,37,194,675.707618115,9.30123496801e-06,676.680858509,0.973250978044,,,,,x,1,0.950536119053,2018_Nov_26_1232,59.9848973638,chinese_cond2,001,1048,
images/licenseplate.jpg,license plate,z,sounds/animalfarm_english.wav,,,,,,,,,0,1,1,1,0,38,38,40,677.79977459,8.98051075637e-06,680.048460311,2.24869566446,,,,,z,1,2.23420564865,2018_Nov_26_1232,59.9848973638,chinese_cond2,001,1048,
images/ear.jpg,bullet,x,sounds/animalfarm_english.wav,,,,,,,,,0,1,1,1,0,39,39,139,681.152438315,9.30123496801e-06,682.31578343,1.1633547378,,,,,x,1,1.15058833407,2018_Nov_26_1232,59.9848973638,chinese_cond2,001,1048,
images/knife04.jpg,tooth brush,x,sounds/animalfarm_english.wav,,,,,,,,,0,1,1,1,0,40,40,233,683.412446185,9.30123496801e-06,685.299960454,1.88752613554,,,,,x,1,1.86744993622,2018_Nov_26_1232,59.9848973638,chinese_cond2,001,1048,
images/cola.jpg,comb,x,sounds/animalfarm_english.wav,,,,,,,,,0,1,1,1,0,41,41,157,686.420911256,8.65967012942e-06,687.567262404,1.14636141132,,,,,x,1,1.13389296737,2018_Nov_26_1232,59.9848973638,chinese_cond2,001,1048,
images/cockroach02.jpg,belt,x,sounds/animalfarm_english.wav,,,,,,,,,0,1,1,1,0,42,42,129,688.666641757,9.30111855268e-06,689.851165747,1.18453425425,,,,,x,1,1.16715476685,2018_Nov_26_1232,59.9848973638,chinese_cond2,001,1048,
images/lightbulb03b.jpg,treadmill,x,sounds/animalfarm_english.wav,,,,,,,,,0,1,1,1,0,43,43,234,690.95337267,8.98051075637e-06,692.385300097,1.43193801155,,,,,x,1,1.41730494949,2018_Nov_26_1232,59.9848973638,chinese_cond2,001,1048,
images/bracelet02a.jpg,chess knight,x,sounds/animalfarm_english.wav,,,,,,,,,0,1,1,1,0,44,44,152,693.493620807,8.98039434105e-06,694.835987762,1.3423772183,,,,,x,1,1.33393459837,2018_Nov_26_1232,59.9848973638,chinese_cond2,001,1048,
images/paperclip04.jpg,eye drops,x,sounds/animalfarm_english.wav,,,,,,,,,0,1,1,1,0,45,45,174,695.941023217,9.30123496801e-06,697.486778638,1.54576600506,,,,,x,1,1.53403716825,2018_Nov_26_1232,59.9848973638,chinese_cond2,001,1048,
images/saltshaker03c.jpg,salt shaker,z,sounds/animalfarm_english.wav,,,,,,,,,0,1,1,1,0,46,46,63,698.597906071,9.30123496801e-06,699.904090644,1.30619483616,,,,,z,1,1.28392932238,2018_Nov_26_1232,59.9848973638,chinese_cond2,001,1048,
images/pen03c.jpg,pepper,x,sounds/animalfarm_english.wav,,,,,,,,,0,1,1,1,0,47,47,211,700.99822026,9.62195917964e-06,702.288121606,1.28991160949,,,,,x,1,1.26726474578,2018_Nov_26_1232,59.9848973638,chinese_cond2,001,1048,
images/parrot01.jpg,chameleon,x,sounds/animalfarm_english.wav,,,,,,,,,0,1,1,1,0,48,48,150,703.401300439,9.30123496801e-06,705.17226723,1.77097641304,,,,,z,0,1.75073471607,2018_Nov_26_1232,59.9848973638,chinese_cond2,001,1048,
images/swan.jpg,swan,z,sounds/animalfarm_english.wav,,,,,,,,,0,1,1,1,0,49,49,54,706.264279375,9.30123496801e-06,707.389563904,1.12529447186,,,,,z,1,1.10055579594,2018_Nov_26_1232,59.9848973638,chinese_cond2,001,1048,
images/basketball01.jpg,basket ball,z,sounds/animalfarm_english.wav,,,,,,,,,0,1,1,1,0,50,50,33,708.528910272,9.30123496801e-06,709.423470695,0.894570365548,,,,,z,1,0.883819118957,2018_Nov_26_1232,59.9848973638,chinese_cond2,001,1048,
images/weight01.jpg,weight,z,sounds/animalfarm_english.wav,,,,,,,,,0,1,1,1,0,51,51,67,710.528130574,9.30123496801e-06,711.490923454,0.962803143542,,,,,z,1,0.950703220209,2018_Nov_26_1232,59.9848973638,chinese_cond2,001,1048,
images/magnifyingglass01b.jpg,magnifying glass,z,sounds/animalfarm_english.wav,,,,,,,,,0,1,1,1,0,52,52,64,712.597107129,9.62184276432e-06,713.958105066,1.36100852152,,,,,z,1,1.35063349328,2018_Nov_26_1232,59.9848973638,chinese_cond2,001,1048,
images/electrictoothbrush01a.jpg,banjo,x,sounds/animalfarm_english.wav,,,,,,,,,0,1,1,1,0,53,53,127,715.053941616,8.98039434105e-06,716.608845587,1.55491391395,,,,,x,1,1.53400894394,2018_Nov_26_1232,59.9848973638,chinese_cond2,001,1048,
images/broom02.jpg,broom,z,sounds/animalfarm_english.wav,,,,,,,,,0,1,1,1,0,54,54,116,717.702851401,8.98051075637e-06,718.77614308,1.07330130076,,,,,z,1,1.05054731248,2018_Nov_26_1232,59.9848973638,chinese_cond2,001,1048,
images/tent.jpg,tent,z,sounds/animalfarm_english.wav,,,,,,,,,0,1,1,1,0,55,55,11,719.902827282,9.62195917964e-06,720.693336254,0.790518914931,,,,,z,1,0.767119293916,2018_Nov_26_1232,59.9848973638,chinese_cond2,001,1048,
images/50dollarbill.jpg,cherry,x,sounds/animalfarm_english.wav,,,,,,,,,0,1,1,1,0,56,56,151,721.813667403,8.98051075637e-06,722.677265031,0.86360789137,,,,,x,1,0.850507926662,2018_Nov_26_1232,59.9848973638,chinese_cond2,001,1048,
images/lip.jpg,boxing glove,x,sounds/animalfarm_english.wav,,,,,,,,,0,1,1,1,0,57,57,136,723.780212202,9.62195917964e-06,724.877863132,1.09766119253,,,,,x,1,1.08387903147,2018_Nov_26_1232,59.9848973638,chinese_cond2,001,1048,
images/sunglasses03a.jpg,sun glasses,z,sounds/animalfarm_english.wav,,,,,,,,,0,1,1,1,0,58,58,17,725.986436899,9.30123496801e-06,726.745076689,0.758649732568,,,,,z,1,0.733797838329,2018_Nov_26_1232,59.9848973638,chinese_cond2,001,1048,
images/acousticguitar02.jpg,acoustic guitar,z,sounds/animalfarm_english.wav,,,,,,,,,0,1,1,1,0,59,59,97,727.858296254,9.30123496801e-06,728.662270825,0.803984193015,,,,,z,1,0.783786757151,2018_Nov_26_1232,59.9848973638,chinese_cond2,001,1048,
images/corn01.jpg,corn,z,sounds/animalfarm_english.wav,,,,,,,,,0,1,1,1,0,60,60,22,729.763085131,9.30123496801e-06,730.862898754,1.09982324473,,,,,z,1,1.0838815975,2018_Nov_26_1232,59.9848973638,chinese_cond2,001,1048,
images/lily.jpg,kiwi,x,sounds/animalfarm_english.wav,,,,,,,,,0,1,1,1,0,61,61,190,731.962228713,8.98051075637e-06,732.763425106,0.801206336007,,,,,x,1,0.78370336676,2018_Nov_26_1232,59.9848973638,chinese_cond2,001,1048,
images/pictureframe04.jpg,picture frame,z,sounds/animalfarm_english.wav,,,,,,,,,0,1,1,1,0,62,62,41,733.886603391,8.98051075637e-06,735.230816477,1.34422270837,,,,,z,1,1.3339451825,2018_Nov_26_1232,59.9848973638,chinese_cond2,001,1048,
images/radio03a.jpg,radio,z,sounds/animalfarm_english.wav,,,,,,,,,0,1,1,1,0,63,63,37,736.344774688,9.30123496801e-06,737.664827377,1.32006199111,,,,,z,1,1.3006083318,2018_Nov_26_1232,59.9848973638,chinese_cond2,001,1048,
images/candycane01a.jpg,lip,x,sounds/animalfarm_english.wav,,,,,,,,,0,1,1,1,0,64,64,200,738.759206523,9.30123496801e-06,739.632049883,0.872852982138,,,,,x,1,0.850472325576,2018_Nov_26_1232,59.9848973638,chinese_cond2,001,1048,
images/highlighter03b.jpg,coin,x,sounds/animalfarm_english.wav,,,,,,,,,0,1,1,1,0,65,65,156,740.734067574,9.62195917964e-06,741.765996412,1.03193878126,,,,,x,1,1.01720244356,2018_Nov_26_1232,59.9848973638,chinese_cond2,001,1048,
images/ladybug03.jpg,giraffe,x,sounds/animalfarm_english.wav,,,,,,,,,0,1,1,1,0,66,66,178,742.869826879,8.98051075637e-06,744.550133088,1.68031583086,,,,,x,1,1.66739162721,2018_Nov_26_1232,59.9848973638,chinese_cond2,001,1048,
images/clothespin02a.jpg,clothes pin,z,sounds/animalfarm_english.wav,,,,,,,,,0,1,1,1,0,67,67,79,745.654799381,8.98051075637e-06,747.851059906,2.1962698265,,,,,z,1,2.18420325918,2018_Nov_26_1232,59.9848973638,chinese_cond2,001,1048,
images/nailpolish02b.jpg,nail polish,z,sounds/animalfarm_english.wav,,,,,,,,,0,1,1,1,0,68,68,94,748.959979743,9.30123496801e-06,751.23535034,2.27538021945,,,,,z,1,2.25087375322,2018_Nov_26_1232,59.9848973638,chinese_cond2,001,1048,
images/sock03.jpg,sock,z,sounds/animalfarm_english.wav,,,,,,,,,0,1,1,1,0,69,69,90,752.342454194,9.62195917964e-06,753.435989494,1.09354524291,,,,,z,1,1.083889295,2018_Nov_26_1232,59.9848973638,chinese_cond2,001,1048,
images/plant01.jpg,plant,z,sounds/animalfarm_english.wav,,,,,,,,,0,1,1,1,0,70,70,47,754.549211305,8.65978654474e-06,756.736909256,2.18770757352,,,,,z,1,2.16750917525,2018_Nov_26_1232,59.9848973638,chinese_cond2,001,1048,
images/peach01.jpg,peach,z,sounds/animalfarm_english.wav,,,,,,,,,0,1,1,1,0,71,71,106,757.865462041,8.65978654474e-06,759.0542415,1.18878908071,,,,,z,1,1.16721859237,2018_Nov_26_1232,59.9848973638,chinese_cond2,001,1048,
images/ashtray02b.jpg,ashtray,z,sounds/animalfarm_english.wav,,,,,,,,,0,1,1,1,0,72,72,43,760.16907595,9.30123496801e-06,762.188471236,2.01940522878,,,,,z,1,2.00080984749,2018_Nov_26_1232,59.9848973638,chinese_cond2,001,1048,
images/beermug01b.jpg,beer mug,z,sounds/animalfarm_english.wav,,,,,,,,,0,1,1,1,0,73,73,111,763.303734503,9.30123496801e-06,765.322687821,2.01896326046,,,,,z,1,2.00080599869,2018_Nov_26_1232,59.9848973638,chinese_cond2,001,1048,
images/ant.jpg,ant,z,sounds/animalfarm_english.wav,,,,,,,,,0,1,1,1,0,74,74,98,766.415939274,3.36767407134e-05,768.156835225,1.74092417548,,,,,z,1,1.71737798001,2018_Nov_26_1232,59.9848973638,chinese_cond2,001,1048,
images/pineapple01a.jpg,pineapple,z,sounds/animalfarm_english.wav,,,,,,,,,0,1,1,1,0,75,75,51,769.268175624,9.94268339127e-06,770.257439772,0.989274091204,,,,,z,1,0.967201016261,2018_Nov_26_1232,59.9848973638,chinese_cond2,001,1048,
images/parkingmeter.jpg,ear,x,sounds/animalfarm_english.wav,,,,,,,,,0,1,1,1,0,76,76,171,771.359571964,8.98039434105e-06,772.591430178,1.23186815612,,,,,x,1,1.2172610733,2018_Nov_26_1232,59.9848973638,chinese_cond2,001,1048,
images/triangleruler02.jpg,bottle of red wine,x,sounds/animalfarm_english.wav,,,,,,,,,0,1,1,1,0,77,77,134,773.701731727,9.30123496801e-06,775.075461749,1.37373964477,,,,,x,1,1.35059917485,2018_Nov_26_1232,59.9848973638,chinese_cond2,001,1048,
images/rhinoceros01.jpg,envelope,x,sounds/animalfarm_english.wav,,,,,,,,,0,1,1,1,0,78,78,173,776.186216813,9.62195917964e-06,778.026289734,1.84008286416,,,,,x,1,1.81740970048,2018_Nov_26_1232,59.9848973638,chinese_cond2,001,1048,
images/pipe.jpg,icecube,x,sounds/animalfarm_english.wav,,,,,,,,,0,1,1,1,0,79,79,188,779.135074543,8.98051075637e-06,781.243898481,2.10883355979,,,,,x,1,2.08418565104,2018_Nov_26_1232,59.9848973638,chinese_cond2,001,1048,
images/honeycomb.jpg,honey comb,z,sounds/animalfarm_english.wav,,,,,,,,,0,1,1,1,0,80,80,59,782.354949579,9.30123496801e-06,783.077736058,0.722796421032,,,,,z,1,0.700446554692,2018_Nov_26_1232,59.9848973638,chinese_cond2,001,1048,
images/carrot02.jpg,corkscrew,x,sounds/animalfarm_english.wav,,,,,,,,,0,1,1,1,0,81,81,161,784.180388797,8.98051075637e-06,785.72851635,1.54813749518,,,,,x,1,1.53402947076,2018_Nov_26_1232,59.9848973638,chinese_cond2,001,1048,
images/diaper01a.jpg,camera,x,sounds/animalfarm_english.wav,,,,,,,,,0,1,1,1,0,82,82,143,786.84674382,9.30123496801e-06,787.629027949,0.782293751021,,,,,x,1,0.76713308529,2018_Nov_26_1232,59.9848973638,chinese_cond2,001,1048,
images/gorilla.jpg,gorilla,z,sounds/animalfarm_english.wav,,,,,,,,,0,1,1,1,0,83,83,80,788.73885289,9.62195917964e-06,789.579585878,0.840742929955,,,,,z,1,0.817139644409,2018_Nov_26_1232,59.9848973638,chinese_cond2,001,1048,
images/nametag01a.jpg,name tag,z,sounds/animalfarm_english.wav,,,,,,,,,0,1,1,1,0,84,84,108,790.700117163,9.30123496801e-06,792.113631064,1.41352320218,,,,,z,1,1.40061824245,2018_Nov_26_1232,59.9848973638,chinese_cond2,001,1048,
images/panda.jpg,panda,z,sounds/animalfarm_english.wav,,,,,,,,,0,1,1,1,0,85,85,83,793.221223072,8.98039434105e-06,793.814120276,0.592907147133,,,,,z,1,0.583739352878,2018_Nov_26_1232,59.9848973638,chinese_cond2,001,1048,
images/raisin.jpg,ruler,x,sounds/animalfarm_english.wav,,,,,,,,,0,1,1,1,0,86,86,218,794.918295208,8.98051075637e-06,797.698569633,2.78028404643,,,,,x,1,2.76768089505,2018_Nov_26_1232,59.9848973638,chinese_cond2,001,1048,
images/dolphin01.jpg,dolphin,z,sounds/animalfarm_english.wav,,,,,,,,,0,1,1,1,0,87,87,99,798.797366857,9.62195917964e-06,799.499054323,0.701697728946,,,,,z,1,0.68374413182,2018_Nov_26_1232,59.9848973638,chinese_cond2,001,1048,
images/button07.jpg,radish,x,sounds/animalfarm_english.wav,,,,,,,,,0,1,1,1,0,88,88,215,800.609757107,9.30123496801e-06,801.999821994,1.39007482992,,,,,x,1,1.36734329292,2018_Nov_26_1232,59.9848973638,chinese_cond2,001,1048,
images/graduationcap.jpg,graduation cap,z,sounds/animalfarm_english.wav,,,,,,,,,0,1,1,1,0,89,89,35,803.102902269,1.02634076029e-05,804.283765428,1.18087310216,,,,,z,1,1.1671871607,2018_Nov_26_1232,59.9848973638,chinese_cond2,001,1048,
images/bench02.jpg,electric toothbrush,x,sounds/animalfarm_english.wav,,,,,,,,,0,1,1,1,0,90,90,172,805.392661531,9.62195917964e-06,807.168006309,1.7753630603,,,,,x,1,1.75076133676,2018_Nov_26_1232,59.9848973638,chinese_cond2,001,1048,
images/highheelshoe02a.jpg,high heel shoe,z,sounds/animalfarm_english.wav,,,,,,,,,0,1,1,1,0,91,91,75,808.273212394,9.62195917964e-06,810.068735365,1.79553355474,,,,,z,1,1.78407381196,2018_Nov_26_1232,59.9848973638,chinese_cond2,001,1048,
images/masquerademask02b.jpg,mirror,x,sounds/animalfarm_english.wav,,,,,,,,,0,1,1,1,0,92,92,204,811.17330191,8.98051075637e-06,812.352722098,1.17943173402,,,,,x,1,1.16723334615,2018_Nov_26_1232,59.9848973638,chinese_cond2,001,1048,
images/stapler03a.jpg,candy cane,x,sounds/animalfarm_english.wav,,,,,,,,,0,1,1,1,0,93,93,145,813.463763575,9.30111855268e-06,814.403298597,0.939544965047,,,,,x,1,0.917159176897,2018_Nov_26_1232,59.9848973638,chinese_cond2,001,1048,
images/orange.jpg,bat,x,sounds/animalfarm_english.wav,,,,,,,,,0,1,1,1,0,94,94,128,815.527250165,9.30123496801e-06,817.304129324,1.77688878088,,,,,x,1,1.76741436706,2018_Nov_26_1232,59.9848973638,chinese_cond2,001,1048,
images/8ball.jpg,nail clipper,x,sounds/animalfarm_english.wav,,,,,,,,,0,1,1,1,0,95,95,206,818.421488253,9.30123496801e-06,820.488400899,2.06692290993,,,,,x,1,2.05084142357,2018_Nov_26_1232,59.9848973638,chinese_cond2,001,1048,
images/flamingo.jpg,flamingo,z,sounds/animalfarm_english.wav,,,,,,,,,0,1,1,1,0,96,96,52,821.585132932,8.98051075637e-06,822.488937483,0.903814173187,,,,,x,0,0.883826816455,2018_Nov_26_1232,59.9848973638,chinese_cond2,001,1048,
images/dice05a.jpg,band aid,x,sounds/animalfarm_english.wav,,,,,,,,,0,1,1,1,0,97,97,126,823.599917059,8.98039434105e-06,825.973249374,2.37334161671,,,,,x,1,2.35090354923,2018_Nov_26_1232,59.9848973638,chinese_cond2,001,1048,
images/tissuebox03.jpg,tissue box,z,sounds/animalfarm_english.wav,,,,,,,,,0,1,1,1,0,98,98,58,827.09738825,9.30123496801e-06,830.090946996,2.99356900912,,,,,None,0,,2018_Nov_26_1232,59.9848973638,chinese_cond2,001,1048,
images/ostrich.jpg,ostrich,z,sounds/animalfarm_english.wav,,,,,,,,,0,1,1,1,0,99,99,76,831.190071366,9.62195917964e-06,832.975246571,1.78518546792,,,,,z,1,1.76740410365,2018_Nov_26_1232,59.9848973638,chinese_cond2,001,1048,
images/handfan01b.jpg,handfan,z,sounds/animalfarm_english.wav,,,,,,,,,0,1,1,1,0,100,100,69,834.089286247,9.30123496801e-06,835.659358261,1.57008163584,,,,,z,1,1.55069693387,2018_Nov_26_1232,59.9848973638,chinese_cond2,001,1048,
images/aloe02.jpg,broad sword,x,sounds/animalfarm_english.wav,,,,,,,,,0,1,1,1,0,101,101,137,836.780088079,9.62195917964e-06,839.393745925,2.6136677881,,,,,x,1,2.60098830261,2018_Nov_26_1232,59.9848973638,chinese_cond2,001,1048,
images/dresser02.jpg,dresser,z,sounds/animalfarm_english.wav,,,,,,,,,0,1,1,1,0,102,102,87,840.514804814,3.65633750334e-05,841.827777673,1.31298857462,,,,,z,1,1.3006019172,2018_Nov_26_1232,59.9848973638,chinese_cond2,001,1048,
images/mushroom01.jpg,shower head,x,sounds/animalfarm_english.wav,,,,,,,,,0,1,1,1,0,103,103,222,842.942747471,9.30123496801e-06,845.328755744,2.38601821568,,,,,x,1,2.36757838924,2018_Nov_26_1232,59.9848973638,chinese_cond2,001,1048,
images/egg01b (1).jpg,egg,z,sounds/animalfarm_english.wav,,,,,,,,,0,1,1,1,0,104,104,19,846.440102878,8.98051075637e-06,847.312645071,0.872551494278,,,,,z,1,0.850473287748,2018_Nov_26_1232,59.9848973638,chinese_cond2,001,1048,
images/chessknight02b (1).jpg,cockroach,x,sounds/animalfarm_english.wav,,,,,,,,,0,1,1,1,0,105,105,155,848.421470933,9.30111855268e-06,851.413658872,2.99219820183,,,,,None,0,,2018_Nov_26_1232,59.9848973638,chinese_cond2,001,1048,
images/desktopcomputer.jpg,desktop computer,z,sounds/animalfarm_english.wav,,,,,,,,,0,1,1,1,0,106,106,16,852.550081129,9.30123496801e-06,853.281025738,0.730954231229,,,,,z,1,0.717117225169,2018_Nov_26_1232,59.9848973638,chinese_cond2,001,1048,
images/tulip02.jpg,sport shorts,x,sounds/animalfarm_english.wav,,,,,,,,,0,1,1,1,0,107,107,225,854.375665318,9.30123496801e-06,855.998292745,1.62263769098,,,,,x,1,1.600529977,2018_Nov_26_1232,59.9848973638,chinese_cond2,001,1048,
images/daisy.jpg,daisy,z,sounds/animalfarm_english.wav,,,,,,,,,0,1,1,1,0,108,108,6,857.100084962,9.30111855268e-06,857.965684276,0.865609898465,,,,,z,1,0.850483230315,2018_Nov_26_1232,59.9848973638,chinese_cond2,001,1048,
images/worldmap.jpg,scooter,x,sounds/animalfarm_english.wav,,,,,,,,,0,1,1,1,0,109,109,220,859.097719245,9.30123496801e-06,861.249945556,2.15223561216,,,,,x,1,2.1341649479,2018_Nov_26_1232,59.9848973638,chinese_cond2,001,1048,
images/globe.jpg,cloud,x,sounds/animalfarm_english.wav,,,,,,,,,0,1,1,1,0,110,110,154,862.378206475,8.98051075637e-06,863.433907625,1.05571173411,,,,,x,1,1.0338737556,2018_Nov_26_1232,59.9848973638,chinese_cond2,001,1048,
images/lighter02b.jpg,stapler,x,sounds/animalfarm_english.wav,,,,,,,,,0,1,1,1,0,111,111,227,864.536291271,9.30123496801e-06,865.584521618,1.0482406104,,,,,x,1,1.03386958607,2018_Nov_26_1232,59.9848973638,chinese_cond2,001,1048,
images/marker01a.jpg,marker,z,sounds/animalfarm_english.wav,,,,,,,,,0,1,1,1,0,112,112,95,866.684210155,8.98051075637e-06,867.801812519,1.11761262733,,,,,z,1,1.10055258858,2018_Nov_26_1232,59.9848973638,chinese_cond2,001,1048,
images/beachumbrella01.jpg,beach umbrella,z,sounds/animalfarm_english.wav,,,,,,,,,0,1,1,1,0,113,113,92,868.907215533,9.62195917964e-06,869.852397678,0.945192087791,,,,,z,1,0.933844600921,2018_Nov_26_1232,59.9848973638,chinese_cond2,001,1048,
images/icecube02 (2).jpg,aloe,x,sounds/animalfarm_english.wav,,,,,,,,,0,1,1,1,0,114,114,122,870.961428167,8.98051075637e-06,872.053026889,1.09160834434,,,,,x,1,1.0672186244,2018_Nov_26_1232,59.9848973638,chinese_cond2,001,1048,
images/microphone01.jpg,diaper,x,sounds/animalfarm_english.wav,,,,,,,,,0,1,1,1,0,115,115,164,873.152600284,9.30123496801e-06,874.770454583,1.61786456208,,,,,x,1,1.60069387092,2018_Nov_26_1232,59.9848973638,chinese_cond2,001,1048,
images/lollipop03b.jpg,lollipop,z,sounds/animalfarm_english.wav,,,,,,,,,0,1,1,1,0,116,116,42,875.863007482,8.65978654474e-06,877.387871083,1.52487290208,,,,,z,1,1.50066760299,2018_Nov_26_1232,59.9848973638,chinese_cond2,001,1048,
images/cauliflower01.jpg,glue stick,x,sounds/animalfarm_english.wav,,,,,,,,,0,1,1,1,0,117,117,181,878.504221951,9.62195917964e-06,879.771888574,1.26767688594,,,,,x,1,1.25060530077,2018_Nov_26_1232,59.9848973638,chinese_cond2,001,1048,
images/rubberglove02a.jpg,lady bug,x,sounds/animalfarm_english.wav,,,,,,,,,0,1,1,1,0,118,118,192,880.877698275,9.30123496801e-06,882.189237143,1.3115488101,,,,,x,1,1.30061667075,2018_Nov_26_1232,59.9848973638,chinese_cond2,001,1048,
images/elbow.jpg,elbow,z,sounds/animalfarm_english.wav,,,,,,,,,0,1,1,1,0,119,119,105,883.30116416,8.98051075637e-06,883.989753585,0.688599367975,,,,,z,1,0.667106817476,2018_Nov_26_1232,59.9848973638,chinese_cond2,001,1048,
images/bandaid01.jpg,door handle,x,sounds/animalfarm_english.wav,,,,,,,,,0,1,1,1,0,120,120,170,885.096203146,9.30123496801e-06,887.440720928,2.34452740347,,,,,x,1,2.33422902995,2018_Nov_26_1232,59.9848973638,chinese_cond2,001,1048,
images/nailclipper03a.jpg,aquarium,x,sounds/animalfarm_english.wav,,,,,,,,,0,1,1,1,0,121,121,123,888.53912718,9.30123496801e-06,889.608005591,1.06888803293,,,,,z,0,1.05054442596,2018_Nov_26_1232,59.9848973638,chinese_cond2,001,1048,
images/cake.jpg,cake,z,sounds/animalfarm_english.wav,,,,,,,,,0,1,1,1,0,122,122,23,890.721657182,9.30123496801e-06,891.491866084,0.770219165599,,,,,z,1,0.75044156739,2018_Nov_26_1232,59.9848973638,chinese_cond2,001,1048,
images/feather03b.jpg,feather,z,sounds/animalfarm_english.wav,,,,,,,,,0,1,1,1,0,123,123,114,892.591235173,9.62195917964e-06,893.359067133,0.767842223169,,,,,z,1,0.750453113695,2018_Nov_26_1232,59.9848973638,chinese_cond2,001,1048,
images/bicycle.jpg,hand bag,x,sounds/animalfarm_english.wav,,,,,,,,,0,1,1,1,0,124,124,186,894.469444374,9.30111855268e-06,895.159582933,0.690148822614,,,,,x,1,0.667093667551,2018_Nov_26_1232,59.9848973638,chinese_cond2,001,1048,
images/lipstick04.jpg,lipstick,z,sounds/animalfarm_english.wav,,,,,,,,,0,1,1,1,0,125,125,56,896.258625517,9.30123496801e-06,897.060121795,0.80150589929,,,,,z,1,0.783790926565,2018_Nov_26_1232,59.9848973638,chinese_cond2,001,1048,
images/cigar.jpg,crocodile,x,sounds/animalfarm_english.wav,,,,,,,,,0,1,1,1,0,126,126,162,898.158250614,9.30123496801e-06,899.377461415,1.21922074386,,,,,x,1,1.20059874188,2018_Nov_26_1232,59.9848973638,chinese_cond2,001,1048,
images/crocodile.jpg,triangle ruler,x,sounds/animalfarm_english.wav,,,,,,,,,0,1,1,1,0,127,127,235,900.473366922,9.30123496801e-06,901.594764184,1.12140720384,,,,,x,1,1.10057375685,2018_Nov_26_1232,59.9848973638,chinese_cond2,001,1048,
images/umbrella01.jpg,umbrella,z,sounds/animalfarm_english.wav,,,,,,,,,0,1,1,1,0,128,128,53,902.708253484,9.30123496801e-06,903.628659428,0.920415886445,,,,,z,1,0.900492034503,2018_Nov_26_1232,59.9848973638,chinese_cond2,001,1048,
images/eyedrops.jpg,bicycle,x,sounds/animalfarm_english.wav,,,,,,,,,0,1,1,1,0,129,129,131,904.730478265,9.30123496801e-06,905.645909019,0.915440055076,,,,,x,1,0.900465413812,2018_Nov_26_1232,59.9848973638,chinese_cond2,001,1048,
images/watermelon01.jpg,orange,x,sounds/animalfarm_english.wav,,,,,,,,,0,1,1,1,0,130,130,207,906.776560352,9.62195917964e-06,907.546453333,0.769902603352,,,,,x,1,0.750475885696,2018_Nov_26_1232,59.9848973638,chinese_cond2,001,1048,
images/bus.jpg,microphone,x,sounds/animalfarm_english.wav,,,,,,,,,0,1,1,1,0,131,131,203,908.663687497,9.30123496801e-06,909.797091349,1.13341411494,,,,,x,1,1.11722903233,2018_Nov_26_1232,59.9848973638,chinese_cond2,001,1048,
images/backpack01b.jpg,swallow,x,sounds/animalfarm_english.wav,,,,,,,,,0,1,1,1,0,132,132,228,910.927726965,8.98051075637e-06,912.197811584,1.27009456139,,,,,x,1,1.25064571307,2018_Nov_26_1232,59.9848973638,chinese_cond2,001,1048,
images/butterfly.jpg,butterfly,z,sounds/animalfarm_english.wav,,,,,,,,,0,1,1,1,0,133,133,91,913.305095368,9.62195917964e-06,915.281970293,1.97688486788,,,,,z,1,1.96747235523,2018_Nov_26_1232,59.9848973638,chinese_cond2,001,1048,
images/bowl02b (1).jpg,bowl,z,sounds/animalfarm_english.wav,,,,,,,,,0,1,1,1,0,134,134,24,916.399827639,9.30123496801e-06,917.132491049,0.73267335305,,,,,z,1,0.717061417759,2018_Nov_26_1232,59.9848973638,chinese_cond2,001,1048,
images/grasshopper.jpg,cauliflower,x,sounds/animalfarm_english.wav,,,,,,,,,0,1,1,1,0,135,135,148,918.224552267,8.98051075637e-06,920.233378802,2.00883647858,,,,,x,1,1.98414430872,2018_Nov_26_1232,59.9848973638,chinese_cond2,001,1048,
images/lychee02a.jpg,lychee,z,sounds/animalfarm_english.wav,,,,,,,,,0,1,1,1,0,136,136,62,921.356560935,9.30123496801e-06,923.350935943,1.99438527133,,,,,z,1,1.98413821473,2018_Nov_26_1232,59.9848973638,chinese_cond2,001,1048,
images/bowlingball.jpg,bowling ball,z,sounds/animalfarm_english.wav,,,,,,,,,0,1,1,1,0,137,137,20,924.483358035,9.30123496801e-06,926.751899293,2.26855152124,,,,,z,1,2.25088305457,2018_Nov_26_1232,59.9848973638,chinese_cond2,001,1048,
images/coin01b.jpg,arrow,x,sounds/animalfarm_english.wav,,,,,,,,,0,1,1,1,0,138,138,124,927.853675794,8.98051075637e-06,929.952812352,2.0991461802,,,,,x,1,2.08418051933,2018_Nov_26_1232,59.9848973638,chinese_cond2,001,1048,
images/antelope.jpg,antelope,z,sounds/animalfarm_english.wav,,,,,,,,,0,1,1,1,0,139,139,12,931.057139311,8.98051075637e-06,931.953390631,0.896260942216,,,,,z,1,0.883839966496,2018_Nov_26_1232,59.9848973638,chinese_cond2,001,1048,
images/belt02a.jpg,snowman,x,sounds/animalfarm_english.wav,,,,,,,,,0,1,1,1,0,140,140,224,933.056596954,9.30111855268e-06,933.920596779,0.86400976812,,,,,x,1,0.850486758398,2018_Nov_26_1232,59.9848973638,chinese_cond2,001,1048,
images/lock02a.jpg,lock,z,sounds/animalfarm_english.wav,,,,,,,,,0,1,1,1,0,141,141,65,935.031784189,8.65978654474e-06,936.187912521,1.15613827517,,,,,z,1,1.13385223446,2018_Nov_26_1232,59.9848973638,chinese_cond2,001,1048,
images/cookingpot.jpg,grasshopper,x,sounds/animalfarm_english.wav,,,,,,,,,0,1,1,1,0,142,142,183,937.303037874,9.62195917964e-06,938.838660098,1.53563280846,,,,,x,1,1.51734532951,2018_Nov_26_1232,59.9848973638,chinese_cond2,001,1048,
images/safe.jpg,safe,z,sounds/animalfarm_english.wav,,,,,,,,,0,1,1,1,0,143,143,78,939.94996233,9.30123496801e-06,941.172670069,1.22271736071,,,,,z,1,1.20058815775,2018_Nov_26_1232,59.9848973638,chinese_cond2,001,1048,
images/hairband.jpg,hairband,z,sounds/animalfarm_english.wav,,,,,,,,,0,1,1,1,0,144,144,66,942.283378305,9.30123496801e-06,944.056819541,1.77345085796,,,,,z,1,1.75074979046,2018_Nov_26_1232,59.9848973638,chinese_cond2,001,1048,
images/puma.jpg,puma,z,sounds/animalfarm_english.wav,,,,,,,,,0,1,1,1,0,145,145,4,945.155670328,9.30123496801e-06,946.324387378,1.16872699349,,,,,z,1,1.15082792065,2018_Nov_26_1232,59.9848973638,chinese_cond2,001,1048,
images/envelope02a.jpg,grand piano,x,sounds/animalfarm_english.wav,,,,,,,,,0,1,1,1,0,146,146,182,947.448224766,8.98051075637e-06,948.741478079,1.29326293489,,,,,x,1,1.28394535882,2018_Nov_26_1232,59.9848973638,chinese_cond2,001,1048,
images/parkbench03.jpg,park bench,z,sounds/animalfarm_english.wav,,,,,,,,,0,1,1,1,0,147,147,71,949.847545328,9.62195917964e-06,951.34221589,1.4946808255,,,,,z,1,1.48400783737,2018_Nov_26_1232,59.9848973638,chinese_cond2,001,1048,
images/ceilingfan02.jpg,paper clip,x,sounds/animalfarm_english.wav,,,,,,,,,0,1,1,1,0,148,148,208,952.442228367,9.62195917964e-06,953.72622376,1.28400565637,,,,,x,1,1.26726859447,2018_Nov_26_1232,59.9848973638,chinese_cond2,001,1048,
images/blueberry02.jpg,blueberry,z,sounds/animalfarm_english.wav,,,,,,,,,0,1,1,1,0,149,149,46,954.839100784,9.30123496801e-06,956.49369201,1.65460148931,,,,,z,1,1.63404739974,2018_Nov_26_1232,59.9848973638,chinese_cond2,001,1048,
images/birthdaycandle.jpg,birthday candle,z,sounds/animalfarm_english.wav,,,,,,,,,0,1,1,1,0,150,150,55,957.59010748,8.98051075637e-06,958.644309851,1.05421199265,,,,,z,1,1.03389492386,2018_Nov_26_1232,59.9848973638,chinese_cond2,001,1048,
images/treadmill.jpg,lily,x,sounds/animalfarm_english.wav,,,,,,,,,0,1,1,1,0,151,151,199,959.750370044,9.30123496801e-06,960.544875654,0.794515552465,,,,,x,1,0.783840960707,2018_Nov_26_1232,59.9848973638,chinese_cond2,001,1048,
images/radish01.jpg,raisin,x,sounds/animalfarm_english.wav,,,,,,,,,0,1,1,1,0,152,152,214,961.656387644,8.98051075637e-06,962.745525713,1.08914833225,,,,,x,1,1.06727411109,2018_Nov_26_1232,59.9848973638,chinese_cond2,001,1048,
images/teapot.jpg,light switch,x,sounds/animalfarm_english.wav,,,,,,,,,0,1,1,1,0,153,153,197,963.86232272,9.30123496801e-06,965.06278515,1.20047237363,,,,,x,1,1.18391909089,2018_Nov_26_1232,59.9848973638,chinese_cond2,001,1048,
images/corkscrew02a.jpg,masquerade mask,x,sounds/animalfarm_english.wav,,,,,,,,,0,1,1,1,0,154,154,201,966.167514307,9.30111855268e-06,967.996949521,1.82944515662,,,,,x,1,1.81743054802,2018_Nov_26_1232,59.9848973638,chinese_cond2,001,1048,
images/flower01.jpg,bus,x,sounds/animalfarm_english.wav,,,,,,,,,0,1,1,1,0,155,155,140,969.11312078,9.30111855268e-06,970.51433398,1.40122314228,,,,,x,1,1.38397323049,2018_Nov_26_1232,59.9848973638,chinese_cond2,001,1048,
images/chameleon.jpg,50 dollar bill,x,sounds/animalfarm_english.wav,,,,,,,,,0,1,1,1,0,156,156,120,971.628102317,8.98051075637e-06,974.29874007,2.67064737447,,,,,x,1,2.65099325788,2018_Nov_26_1232,59.9848973638,chinese_cond2,001,1048,
images/lemon02.jpg,lemon,z,sounds/animalfarm_english.wav,,,,,,,,,0,1,1,1,0,157,157,14,975.412054893,8.98039434105e-06,976.099247531,0.687202260713,,,,,x,0,0.667100723484,2018_Nov_26_1232,59.9848973638,chinese_cond2,001,1048,
images/puzzle.jpg,puzzle,z,sounds/animalfarm_english.wav,,,,,,,,,0,1,1,1,0,158,158,57,977.219262439,9.30111855268e-06,977.949793304,0.730541128782,,,,,z,1,0.717132299556,2018_Nov_26_1232,59.9848973638,chinese_cond2,001,1048,
images/squirrel.jpg,binder,x,sounds/animalfarm_english.wav,,,,,,,,,0,1,1,1,0,159,159,132,979.053184048,8.98051075637e-06,979.933674934,0.880500508239,,,,,x,1,0.867156466702,2018_Nov_26_1232,59.9848973638,chinese_cond2,001,1048,
images/skateboard.jpg,key,x,sounds/animalfarm_english.wav,,,,,,,,,0,1,1,1,0,160,160,189,981.024560991,9.30123496801e-06,981.784216217,0.759665489662,,,,,x,1,0.750464339275,2018_Nov_26_1232,59.9848973638,chinese_cond2,001,1048,
images/cocktailshrimp01.jpg,cocktail shrimp,z,sounds/animalfarm_english.wav,,,,,,,,,0,1,1,1,0,161,161,30,982.8994163,9.62195917964e-06,983.718074609,0.818668893073,,,,,z,1,0.800466087181,2018_Nov_26_1232,59.9848973638,chinese_cond2,001,1048,
images/comb02a.jpg,diploma,x,sounds/animalfarm_english.wav,,,,,,,,,0,1,1,1,0,162,162,166,984.823881424,9.30123496801e-06,986.218629315,1.39475847466,,,,,x,1,1.38379426219,2018_Nov_26_1232,59.9848973638,chinese_cond2,001,1048,
images/tank.jpg,wallet,x,sounds/animalfarm_english.wav,,,,,,,,,0,1,1,1,0,163,163,237,987.32370871,9.30123496801e-06,988.019327291,0.695628202753,,,,,x,1,0.683799297665,2018_Nov_26_1232,59.9848973638,chinese_cond2,001,1048,
images/computerkeyboard01a.jpg,computer keyboard,z,sounds/animalfarm_english.wav,,,,,,,,,0,1,1,1,0,164,164,61,989.136162465,8.98039434105e-06,990.25328758,1.11713505781,,,,,z,1,1.10053975938,2018_Nov_26_1232,59.9848973638,chinese_cond2,001,1048,
images/shotglass.jpg,shot glass,z,sounds/animalfarm_english.wav,,,,,,,,,0,1,1,1,0,165,165,86,991.362902442,8.98039434105e-06,992.737302473,1.37440965325,,,,,z,1,1.35061585298,2018_Nov_26_1232,59.9848973638,chinese_cond2,001,1048,
images/cupcake.jpg,scissors,x,sounds/animalfarm_english.wav,,,,,,,,,0,1,1,1,0,166,166,219,993.855643482,8.98039434105e-06,994.737880753,0.882247212925,,,,,x,1,0.867151976563,2018_Nov_26_1232,59.9848973638,chinese_cond2,001,1048,
images/printer03a.jpg,printer,z,sounds/animalfarm_english.wav,,,,,,,,,0,1,1,1,0,167,167,72,995.847071287,9.30123496801e-06,996.855153725,1.00809238106,,,,,z,1,0.98386398924,2018_Nov_26_1232,59.9848973638,chinese_cond2,001,1048,
images/glasses01b.jpg,calculator,x,sounds/animalfarm_english.wav,,,,,,,,,0,1,1,1,0,168,168,142,997.947482753,9.30123496801e-06,999.589253693,1.64178056119,,,,,x,1,1.61736422067,2018_Nov_26_1232,59.9848973638,chinese_cond2,001,1048,
images/atm.jpg,atm,z,sounds/animalfarm_english.wav,,,,,,,,,0,1,1,1,0,169,169,96,1000.72767924,9.30123496801e-06,1001.55648999,0.828820050694,,,,,z,1,0.817144134548,2018_Nov_26_1232,59.9848973638,chinese_cond2,001,1048,
images/hairpin.jpg,hair pin,z,sounds/animalfarm_english.wav,,,,,,,,,0,1,1,1,0,170,170,28,1002.64731062,9.62195917964e-06,1004.19056914,1.54326846742,,,,,z,1,1.53401952807,2018_Nov_26_1232,59.9848973638,chinese_cond2,001,1048,
images/remotecontrol01c.jpg,remote control,z,sounds/animalfarm_english.wav,,,,,,,,,0,1,1,1,0,171,171,85,1005.30006822,8.98039434105e-06,1006.34117383,1.0411152353,,,,,z,1,1.01719731186,2018_Nov_26_1232,59.9848973638,chinese_cond2,001,1048,
images/flipflop01b.jpg,flip flop,z,sounds/animalfarm_english.wav,,,,,,,,,0,1,1,1,0,172,172,27,1007.45821011,9.30123496801e-06,1008.45845963,1.00025947194,,,,,z,1,0.983861744055,2018_Nov_26_1232,59.9848973638,chinese_cond2,001,1048,
images/handbag02a.jpg,candle,x,sounds/animalfarm_english.wav,,,,,,,,,0,1,1,1,0,173,173,144,1009.5746264,9.30123496801e-06,1010.3589924,0.784376261872,,,,,x,1,0.767127312254,2018_Nov_26_1232,59.9848973638,chinese_cond2,001,1048,
images/toothbrush03a.jpg,parrot,x,sounds/animalfarm_english.wav,,,,,,,,,0,1,1,1,0,174,174,210,1011.45129353,9.30123496801e-06,1012.25952453,0.808241264545,,,,,x,1,0.783797982731,2018_Nov_26_1232,59.9848973638,chinese_cond2,001,1048,
images/djmixer01.jpg,light bulb,x,sounds/animalfarm_english.wav,,,,,,,,,0,1,1,1,0,175,175,196,1013.38045929,9.30123496801e-06,1015.37708199,1.99663263804,,,,,x,1,1.9841314794,2018_Nov_26_1232,59.9848973638,chinese_cond2,001,1048,
images/hand01a.jpg,cupcake,x,sounds/animalfarm_english.wav,,,,,,,,,0,1,1,1,0,176,176,163,1016.48729951,9.30123496801e-06,1017.57770767,1.09041810909,,,,,x,1,1.06721413427,2018_Nov_26_1232,59.9848973638,chinese_cond2,001,1048,
images/battery03b.jpg,battery,z,sounds/animalfarm_english.wav,,,,,,,,,0,1,1,1,0,177,177,34,1018.68794604,9.30123496801e-06,1019.82834441,1.14040831069,,,,,z,1,1.11722774932,2018_Nov_26_1232,59.9848973638,chinese_cond2,001,1048,
images/fork01.jpg,cooking pot,x,sounds/animalfarm_english.wav,,,,,,,,,0,1,1,1,0,178,178,160,1020.92406325,8.65967012942e-06,1021.9456456,1.02159197733,,,,,x,1,1.00053209392,2018_Nov_26_1232,59.9848973638,chinese_cond2,001,1048,
images/eraser.jpg,eraser,z,sounds/animalfarm_english.wav,,,,,,,,,0,1,1,1,0,179,179,110,1023.05268146,8.98039434105e-06,1023.82947242,0.776799938059,,,,,z,1,0.767082089093,2018_Nov_26_1232,59.9848973638,chinese_cond2,001,1048,
images/candy.jpg,candy,z,sounds/animalfarm_english.wav,,,,,,,,,0,1,1,1,0,180,180,31,1024.93205364,9.94268339127e-06,1025.84672329,0.914679279551,,,,,z,1,0.900500052725,2018_Nov_26_1232,59.9848973638,chinese_cond2,001,1048,
images/hairdryer03a.jpg,hairdryer,z,sounds/animalfarm_english.wav,,,,,,,,,0,1,1,1,0,181,181,119,1026.94589898,8.65978654474e-06,1028.29743501,1.35154597485,,,,,z,1,1.33397917997,2018_Nov_26_1232,59.9848973638,chinese_cond2,001,1048,
images/cherry01.jpg,highlighter,x,sounds/animalfarm_english.wav,,,,,,,,,0,1,1,1,0,182,182,187,1029.40756337,8.98051075637e-06,1030.16463157,0.75707814726,,,,,x,1,0.733797517605,2018_Nov_26_1232,59.9848973638,chinese_cond2,001,1048,
images/giraffe.jpg,lettuce,x,sounds/animalfarm_english.wav,,,,,,,,,0,1,1,1,0,183,183,195,1031.26657966,9.94268339127e-06,1032.1985281,0.931959660957,,,,,x,1,0.917149234214,2018_Nov_26_1232,59.9848973638,chinese_cond2,001,1048,
images/gps.jpg,gps,z,sounds/animalfarm_english.wav,,,,,,,,,0,1,1,1,0,184,184,21,1033.31712601,9.62195917964e-06,1034.0157104,0.698594650021,,,,,z,1,0.683767545153,2018_Nov_26_1232,59.9848973638,chinese_cond2,001,1048,
images/mattress.jpg,cat,x,sounds/animalfarm_english.wav,,,,,,,,,0,1,1,1,0,185,185,147,1035.11980611,9.94268339127e-06,1035.84957428,0.729778749635,,,,,x,1,0.717122356873,2018_Nov_26_1232,59.9848973638,chinese_cond2,001,1048,
images/notebook02b.jpg,notebook,z,sounds/animalfarm_english.wav,,,,,,,,,0,1,1,1,0,186,186,7,1036.95730741,9.30123496801e-06,1037.63341363,0.676116170245,,,,,z,1,0.667112269788,2018_Nov_26_1232,59.9848973638,chinese_cond2,001,1048,
images/croissant02b.jpg,croissant,z,sounds/animalfarm_english.wav,,,,,,,,,0,1,1,1,0,187,187,39,1038.74323986,9.62195917964e-06,1039.35055748,0.607327884994,,,,,z,1,0.583739673602,2018_Nov_26_1232,59.9848973638,chinese_cond2,001,1048,
images/calculator02b.jpg,dice,x,sounds/animalfarm_english.wav,,,,,,,,,0,1,1,1,0,188,188,165,1040.45213192,8.98051075637e-06,1041.43449392,0.982371945516,,,,,x,1,0.967195884674,2018_Nov_26_1232,59.9848973638,chinese_cond2,001,1048,
images/flashlight05.jpg,flash light,z,sounds/animalfarm_english.wav,,,,,,,,,0,1,1,1,0,189,189,8,1042.53689777,9.30123496801e-06,1043.20165587,0.664768362883,,,,,z,1,0.650386112742,2018_Nov_26_1232,59.9848973638,chinese_cond2,001,1048,
images/leek.jpg,donut,x,sounds/animalfarm_english.wav,,,,,,,,,0,1,1,1,0,190,190,169,1044.30412355,9.94268339127e-06,1045.21888494,0.914772933116,,,,,x,1,0.900496845483,2018_Nov_26_1232,59.9848973638,chinese_cond2,001,1048,
images/scooter.jpg,pen,x,sounds/animalfarm_english.wav,,,,,,,,,0,1,1,1,0,191,191,212,1046.31169282,9.30123496801e-06,1047.06943199,0.757749117911,,,,,x,1,0.733797517605,2018_Nov_26_1232,59.9848973638,chinese_cond2,001,1048,
images/snowman.jpg,globe,x,sounds/animalfarm_english.wav,,,,,,,,,0,1,1,1,0,192,192,180,1048.18117908,9.30123496801e-06,1049.15335529,0.972185828141,,,,,x,1,0.950524252024,2018_Nov_26_1232,59.9848973638,chinese_cond2,001,1048,
images/baseball01a.jpg,baseball,z,sounds/animalfarm_english.wav,,,,,,,,,0,1,1,1,0,193,193,74,1050.28639415,9.30123496801e-06,1051.07057829,0.784194727778,,,,,z,1,0.76714912185,2018_Nov_26_1232,59.9848973638,chinese_cond2,001,1048,
images/toucan.jpg,toucan,z,sounds/animalfarm_english.wav,,,,,,,,,0,1,1,1,0,194,194,81,1052.17098719,9.30123496801e-06,1053.2044921,1.0335145361,,,,,x,0,1.0171928216,2018_Nov_26_1232,59.9848973638,chinese_cond2,001,1048,
,,,sounds/animalfarm_english.wav,,,,,,,,,0,1,1,1,,,,,,,,,,,,,,,,2018_Nov_26_1232,59.9848973638,chinese_cond2,001,1048,
