images,name,corrAns,sounds,trials_3.thisRepN,trials_3.thisTrialN,trials_3.thisN,trials_3.thisIndex,trials_4.thisRepN,trials_4.thisTrialN,trials_4.thisN,trials_4.thisIndex,trials_2.thisRepN,trials_2.thisTrialN,trials_2.thisN,trials_2.thisIndex,trials.thisRepN,trials.thisTrialN,trials.thisN,trials.thisIndex,begin_global,begin_routine,end_global,end_routine,key_resp_2.keys,key_resp_2.corr,key_resp_2.rt,begin_book,key_resp_1.keys,key_resp_1.corr,key_resp_1.rt,date,frameRate,expName,session,participant,
images/volleyball.jpg,volley ball,z,,0,0,0,0,,,,,,,,,,,,,,,,,,,,,,,,2018_Nov_26_1232,59.9844554442,spanish_cond1,001,1049,
images/puma.jpg,puma,z,,,,,,0,0,0,0,,,,,,,,,48.1543146049,1.05837825686e-05,50.8822781376,2.72797507863,z,1,2.71762795502,,,,,2018_Nov_26_1232,59.9844554442,spanish_cond1,001,1049,
images/aquarium.jpg,computer mouse,x,sounds/animalfarm_spanish.wav,,,,,,,,,0,0,0,1,0,0,0,159,93.0952318946,9.30100213736e-06,94.8600684805,1.7648465283,,,,82.8789487256,x,1,1.75070398417,2018_Nov_26_1232,59.9844554442,spanish_cond1,001,1049,
images/basketball01.jpg,basket ball,z,sounds/animalfarm_spanish.wav,,,,,,,,,0,0,0,1,0,1,1,33,96.0064465062,8.98016151041e-06,97.2106275626,1.20419035736,,,,,z,1,1.18386526091,2018_Nov_26_1232,59.9844554442,spanish_cond1,001,1049,
images/glasses01b.jpg,calculator,x,sounds/animalfarm_spanish.wav,,,,,,,,,0,0,0,1,0,2,2,142,98.3050396926,8.98027792573e-06,99.6945937226,1.3895642932,,,,,x,1,1.36725008092,2018_Nov_26_1232,59.9844554442,spanish_cond1,001,1049,
images/graduationcap.jpg,graduation cap,z,sounds/animalfarm_spanish.wav,,,,,,,,,0,0,0,1,0,3,3,35,100.798622051,9.30088572204e-06,103.212170555,2.41355812503,,,,,z,1,2.40086909174,2018_Nov_26_1232,59.9844554442,spanish_cond1,001,1049,
images/binder03b.jpg,dj mixer,x,sounds/animalfarm_spanish.wav,,,,,,,,,0,0,0,1,0,4,4,167,104.326331123,9.621726349e-06,105.562746314,1.23642545403,,,,,x,1,1.21721294126,2018_Nov_26_1232,59.9844554442,spanish_cond1,001,1049,
images/mushroom01.jpg,shower head,x,sounds/animalfarm_spanish.wav,,,,,,,,,0,0,0,1,0,5,5,222,106.680728603,9.94233414531e-06,107.513251259,0.83253323962,,,,,x,1,0.817122561974,2018_Nov_26_1232,59.9844554442,spanish_cond1,001,1049,
images/cola.jpg,comb,x,sounds/animalfarm_spanish.wav,,,,,,,,,0,0,0,1,0,6,6,157,108.635287149,9.30088572204e-06,109.830502109,1.19522522355,,,,,x,1,1.18388097628,2018_Nov_26_1232,59.9844554442,spanish_cond1,001,1049,
images/cherry01.jpg,highlighter,x,sounds/animalfarm_spanish.wav,,,,,,,,,0,0,0,1,0,7,7,187,110.940996508,9.621726349e-06,111.7309796,0.789992713253,,,,,x,1,0.767109219916,2018_Nov_26_1232,59.9844554442,spanish_cond1,001,1049,
images/parkingmeter.jpg,ear,x,sounds/animalfarm_spanish.wav,,,,,,,,,0,0,0,1,0,8,8,171,112.834102852,9.94233414531e-06,114.081561453,1.24747046793,,,,,x,1,1.2338776408,2018_Nov_26_1232,59.9844554442,spanish_cond1,001,1049,
images/belt02a.jpg,snowman,x,sounds/animalfarm_spanish.wav,,,,,,,,,0,0,0,1,0,9,9,224,115.186316216,9.94233414531e-06,118.182462104,2.99615743326,,,,,None,0,,2018_Nov_26_1232,59.9844554442,spanish_cond1,001,1049,
images/lightbulb03b.jpg,treadmill,x,sounds/animalfarm_spanish.wav,,,,,,,,,0,0,0,1,0,10,10,234,119.285979523,9.30088572204e-06,120.249799549,0.963830289431,,,,,x,1,0.950483776629,2018_Nov_26_1232,59.9844554442,spanish_cond1,001,1049,
images/teapot.jpg,light switch,x,sounds/animalfarm_spanish.wav,,,,,,,,,0,0,0,1,0,11,11,197,121.368368437,9.621726349e-06,122.066939109,0.698580614058,,,,,x,1,0.683763592155,2018_Nov_26_1232,59.9844554442,spanish_cond1,001,1049,
images/bowlingball.jpg,bowling ball,z,sounds/animalfarm_spanish.wav,,,,,,,,,0,0,0,1,0,12,12,20,123.200291664,9.621726349e-06,124.334158337,1.13387693523,,,,,z,1,1.11716925888,2018_Nov_26_1232,59.9844554442,spanish_cond1,001,1049,
images/cigar.jpg,crocodile,x,sounds/animalfarm_spanish.wav,,,,,,,,,0,0,0,1,0,13,13,162,125.433800154,9.94245056063e-06,127.585074638,2.15128506778,,,,,x,1,2.13419412903,2018_Nov_26_1232,59.9844554442,spanish_cond1,001,1049,
images/printer03a.jpg,printer,z,sounds/animalfarm_spanish.wav,,,,,,,,,0,0,0,1,0,14,14,72,128.694999436,9.94233414531e-06,129.585491897,0.890503366361,,,,,z,1,0.86712948943,2018_Nov_26_1232,59.9844554442,spanish_cond1,001,1049,
images/birthdaycandle.jpg,birthday candle,z,sounds/animalfarm_spanish.wav,,,,,,,,,0,0,0,1,0,15,15,55,130.682916887,9.62160993367e-06,131.469299557,0.786392932758,,,,,z,1,0.76709959819,2018_Nov_26_1232,59.9844554442,spanish_cond1,001,1049,
images/ruler02b.jpg,watermelon,x,sounds/animalfarm_spanish.wav,,,,,,,,,0,0,0,1,0,16,16,238,132.572366362,9.30088572204e-06,134.403394454,1.83103771426,,,,,x,1,1.8173797807,2018_Nov_26_1232,59.9844554442,spanish_cond1,001,1049,
images/panda.jpg,panda,z,sounds/animalfarm_spanish.wav,,,,,,,,,0,0,0,1,0,17,17,83,135.513339457,8.98027792573e-06,136.587259715,1.07393020077,,,,,z,1,1.05050276336,2018_Nov_26_1232,59.9844554442,spanish_cond1,001,1049,
images/stapler03a.jpg,candy cane,x,sounds/animalfarm_spanish.wav,,,,,,,,,0,0,0,1,0,18,18,145,137.69929005,9.30088572204e-06,138.521091942,0.821811833768,,,,,x,1,0.800447599147,2018_Nov_26_1232,59.9844554442,spanish_cond1,001,1049,
images/cake.jpg,cake,z,sounds/animalfarm_spanish.wav,,,,,,,,,0,0,0,1,0,19,19,23,139.635654375,4.20146388933e-05,141.521857184,1.88623423979,,,,,x,0,1.86738638754,2018_Nov_26_1232,59.9844554442,spanish_cond1,001,1049,
images/flipflop01b.jpg,flip flop,z,sounds/animalfarm_spanish.wav,,,,,,,,,0,0,0,1,0,20,20,27,142.639613043,9.94233414531e-06,143.839093281,1.1994901807,,,,,z,1,1.18386526091,2018_Nov_26_1232,59.9844554442,spanish_cond1,001,1049,
images/blueberry02.jpg,blueberry,z,sounds/animalfarm_spanish.wav,,,,,,,,,0,0,0,1,0,21,21,46,144.952332096,9.30088572204e-06,146.656462799,1.70414032473,,,,,z,1,1.68398489023,2018_Nov_26_1232,59.9844554442,spanish_cond1,001,1049,
images/pipe.jpg,icecube,x,sounds/animalfarm_spanish.wav,,,,,,,,,0,0,0,1,0,22,22,188,147.766153469,9.30100213736e-06,149.473868237,1.70772438974,,,,,x,1,1.68400573707,2018_Nov_26_1232,59.9844554442,spanish_cond1,001,1049,
images/hand01a.jpg,cupcake,x,sounds/animalfarm_spanish.wav,,,,,,,,,0,0,0,1,0,23,23,163,150.586336358,9.30100213736e-06,152.307924905,1.72159816907,,,,,x,1,1.70067781315,2018_Nov_26_1232,59.9844554442,spanish_cond1,001,1049,
images/seagull.jpg,seagull,z,sounds/animalfarm_spanish.wav,,,,,,,,,0,0,0,1,0,24,24,50,153.416568098,9.62160993367e-06,154.791890744,1.37533226772,,,,,z,1,1.3672606647,2018_Nov_26_1232,59.9844554442,spanish_cond1,001,1049,
images/saltshaker03c.jpg,salt shaker,z,sounds/animalfarm_spanish.wav,,,,,,,,,0,0,0,1,0,25,25,63,155.904354374,8.98027792573e-06,157.125788655,1.221443902,,,,,z,1,1.20052579115,2018_Nov_26_1232,59.9844554442,spanish_cond1,001,1049,
images/tent.jpg,tent,z,sounds/animalfarm_spanish.wav,,,,,,,,,0,0,0,1,0,26,26,11,158.252841915,9.30100213736e-06,159.276335421,1.02350344846,,,,,z,1,1.00048268621,2018_Nov_26_1232,59.9844554442,spanish_cond1,001,1049,
images/ear.jpg,bullet,x,sounds/animalfarm_spanish.wav,,,,,,,,,0,0,0,1,0,27,27,139,160.380663945,9.30088572204e-06,161.360193883,0.979540521163,,,,,x,1,0.967141740955,2018_Nov_26_1232,59.9844554442,spanish_cond1,001,1049,
images/gamecontroller01.jpg,game controller,z,sounds/animalfarm_spanish.wav,,,,,,,,,0,0,0,1,0,28,28,112,162.480540211,9.94233414531e-06,163.560751425,1.08022115682,,,,,z,1,1.06716938724,2018_Nov_26_1232,59.9844554442,spanish_cond1,001,1049,
images/coffeepot03b.jpg,coffee pot,z,sounds/animalfarm_spanish.wav,,,,,,,,,0,0,0,1,0,29,29,107,164.683238571,9.94233414531e-06,167.128317866,2.44508923765,,,,,z,1,2.43417219166,2018_Nov_26_1232,59.9844554442,spanish_cond1,001,1049,
images/ashtray02b.jpg,ashtray,z,sounds/animalfarm_spanish.wav,,,,,,,,,0,0,0,1,0,30,30,43,168.242154506,9.62160993367e-06,169.478917359,1.23677247495,,,,,z,1,1.21721326187,2018_Nov_26_1232,59.9844554442,spanish_cond1,001,1049,
images/icecube02 (2).jpg,aloe,x,sounds/animalfarm_spanish.wav,,,,,,,,,0,0,0,1,0,31,31,122,170.590366546,9.94233414531e-06,171.996220936,1.40586465283,,,,,z,0,1.38390355511,2018_Nov_26_1232,59.9844554442,spanish_cond1,001,1049,
images/fork01.jpg,cooking pot,x,sounds/animalfarm_spanish.wav,,,,,,,,,0,0,0,1,0,32,32,160,173.090572129,9.30088572204e-06,174.413514186,1.32295232022,,,,,x,1,1.3005771708,2018_Nov_26_1232,59.9844554442,spanish_cond1,001,1049,
images/corn01.jpg,corn,z,sounds/animalfarm_spanish.wav,,,,,,,,,0,0,0,1,0,33,33,22,175.514428949,9.62160993367e-06,176.497359819,0.982940491987,,,,,z,1,0.96714815544,2018_Nov_26_1232,59.9844554442,spanish_cond1,001,1049,
images/treadmill.jpg,lily,x,sounds/animalfarm_spanish.wav,,,,,,,,,0,0,0,1,0,34,34,199,177.604635134,9.62160993367e-06,179.948228141,2.34360262833,,,,,x,1,2.33408745693,2018_Nov_26_1232,59.9844554442,spanish_cond1,001,1049,
images/knife04.jpg,tooth brush,x,sounds/animalfarm_spanish.wav,,,,,,,,,0,0,0,1,0,35,35,233,181.046935376,9.30100213736e-06,182.132115852,1.08519041887,,,,,x,1,1.06714116374,2018_Nov_26_1232,59.9844554442,spanish_cond1,001,1049,
images/hairpin.jpg,hair pin,z,sounds/animalfarm_spanish.wav,,,,,,,,,0,0,0,1,0,36,36,28,183.224054256,9.621726349e-06,184.115949875,0.891905561555,,,,,z,1,0.883788416046,2018_Nov_26_1232,59.9844554442,spanish_cond1,001,1049,
images/banana04a.jpg,banana,z,sounds/animalfarm_spanish.wav,,,,,,,,,0,0,0,1,0,37,37,118,185.222427555,1.18666794151e-05,186.883339726,1.66092211334,,,,,z,1,1.65059134667,2018_Nov_26_1232,59.9844554442,spanish_cond1,001,1049,
images/50dollarbill.jpg,cherry,x,sounds/animalfarm_spanish.wav,,,,,,,,,0,0,0,1,0,38,38,151,188.004228395,9.30088572204e-06,190.76763809,2.76341963746,,,,,x,1,2.75092688575,2018_Nov_26_1232,59.9844554442,spanish_cond1,001,1049,
images/crocodile.jpg,triangle ruler,x,sounds/animalfarm_spanish.wav,,,,,,,,,0,0,0,1,0,39,39,235,191.866413959,8.98016151041e-06,193.03487624,1.16847158142,,,,,x,1,1.1505220707,2018_Nov_26_1232,59.9844554442,spanish_cond1,001,1049,
images/pictureframe04.jpg,picture frame,z,sounds/animalfarm_spanish.wav,,,,,,,,,0,0,0,1,0,40,40,41,194.157442924,9.62160993367e-06,197.15245057,2.99501822982,,,,,None,0,,2018_Nov_26_1232,59.9844554442,spanish_cond1,001,1049,
images/lip.jpg,boxing glove,x,sounds/animalfarm_spanish.wav,,,,,,,,,0,0,0,1,0,41,41,136,198.257155943,9.621726349e-06,199.503214594,1.24606891419,,,,,x,1,1.23391901399,2018_Nov_26_1232,59.9844554442,spanish_cond1,001,1049,
images/gluestick.jpg,squirrel,x,sounds/animalfarm_spanish.wav,,,,,,,,,0,0,0,1,0,42,42,226,200.675335347,8.98027792573e-06,201.453677203,0.778351798421,,,,,x,1,0.767097994569,2018_Nov_26_1232,59.9844554442,spanish_cond1,001,1049,
images/bowl02b (1).jpg,bowl,z,sounds/animalfarm_spanish.wav,,,,,,,,,0,0,0,1,0,43,43,24,202.572598885,9.621726349e-06,203.38750109,0.814912147936,,,,,z,1,0.800442788401,2018_Nov_26_1232,59.9844554442,spanish_cond1,001,1049,
images/banjo.jpg,knife,x,sounds/animalfarm_spanish.wav,,,,,,,,,0,0,0,1,0,44,44,191,204.485492154,8.98016151041e-06,205.271321579,0.785838725744,,,,,x,1,0.767107937019,2018_Nov_26_1232,59.9844554442,spanish_cond1,001,1049,
images/scooter.jpg,pen,x,sounds/animalfarm_spanish.wav,,,,,,,,,0,0,0,1,0,45,45,212,206.365404648,9.94233414531e-06,207.771947627,1.40655260091,,,,,x,1,1.38392825075,2018_Nov_26_1232,59.9844554442,spanish_cond1,001,1049,
images/elbow.jpg,elbow,z,sounds/animalfarm_spanish.wav,,,,,,,,,0,0,0,1,0,46,46,105,208.884172961,9.62160993367e-06,209.905819431,1.02165609132,,,,,z,1,1.00048974203,2018_Nov_26_1232,59.9844554442,spanish_cond1,001,1049,
images/medal01.jpg,medal,z,sounds/animalfarm_spanish.wav,,,,,,,,,0,0,0,1,0,47,47,115,211.008618754,9.30088572204e-06,211.772974899,0.76436576643,,,,,z,1,0.750436823,2018_Nov_26_1232,59.9844554442,spanish_cond1,001,1049,
images/pingpongpaddle01c (1).jpg,ping pong paddle,z,sounds/animalfarm_spanish.wav,,,,,,,,,0,0,0,1,0,48,48,10,212.885440454,9.30100213736e-06,214.690381043,1.80495085265,,,,,z,1,1.78404492931,2018_Nov_26_1232,59.9844554442,spanish_cond1,001,1049,
images/ladybug03.jpg,giraffe,x,sounds/animalfarm_spanish.wav,,,,,,,,,0,0,0,1,0,49,49,178,215.794210845,9.621726349e-06,216.774218658,0.980017755181,,,,,x,1,0.967140778899,2018_Nov_26_1232,59.9844554442,spanish_cond1,001,1049,
images/lipstick04.jpg,lipstick,z,sounds/animalfarm_spanish.wav,,,,,,,,,0,0,0,1,0,50,50,56,217.87525337,9.621726349e-06,218.908091744,1.03284831659,,,,,z,1,1.01715027215,2018_Nov_26_1232,59.9844554442,spanish_cond1,001,1049,
images/sock03.jpg,sock,z,sounds/animalfarm_spanish.wav,,,,,,,,,0,0,0,1,0,51,51,90,220.01545173,9.94245056063e-06,221.275362351,1.25992056367,,,,,z,1,1.25055869715,2018_Nov_26_1232,59.9844554442,spanish_cond1,001,1049,
images/computerkeyboard01a.jpg,computer keyboard,z,sounds/animalfarm_spanish.wav,,,,,,,,,0,0,0,1,0,52,52,61,222.393387617,8.98016151041e-06,223.092500629,0.699122954393,,,,,z,1,0.683760705637,2018_Nov_26_1232,59.9844554442,spanish_cond1,001,1049,
images/blackolive.jpg,tank,x,sounds/animalfarm_spanish.wav,,,,,,,,,0,0,0,1,0,53,53,229,224.208351401,9.621726349e-06,225.226364094,1.01802263525,,,,,x,1,1.00049615651,2018_Nov_26_1232,59.9844554442,spanish_cond1,001,1049,
images/egg01b (1).jpg,egg,z,sounds/animalfarm_spanish.wav,,,,,,,,,0,0,0,1,0,54,54,19,226.340049032,9.62160993367e-06,227.310248854,0.970209764782,,,,,z,1,0.950510396506,2018_Nov_26_1232,59.9844554442,spanish_cond1,001,1049,
images/tie01.jpg,bench,x,sounds/animalfarm_spanish.wav,,,,,,,,,0,0,0,1,0,55,55,130,228.410300875,9.62160993367e-06,229.243877102,0.833586168941,,,,,x,1,0.816946485662,2018_Nov_26_1232,59.9844554442,spanish_cond1,001,1049,
images/tank.jpg,wallet,x,sounds/animalfarm_spanish.wav,,,,,,,,,0,0,0,1,0,56,56,237,230.349762409,9.62160993367e-06,231.411279718,1.06152725103,,,,,x,1,1.05051046063,2018_Nov_26_1232,59.9844554442,spanish_cond1,001,1049,
images/eyedrops.jpg,bicycle,x,sounds/animalfarm_spanish.wav,,,,,,,,,0,0,0,1,0,57,57,131,232.513179417,9.30100213736e-06,234.211974914,1.69880543998,,,,,x,1,1.6840047749,2018_Nov_26_1232,59.9844554442,spanish_cond1,001,1049,
images/licenseplate.jpg,license plate,z,sounds/animalfarm_spanish.wav,,,,,,,,,0,0,0,1,0,58,58,40,235.330503071,8.98016151041e-06,238.279871378,2.94937824889,,,,,z,1,2.93452402332,2018_Nov_26_1232,59.9844554442,spanish_cond1,001,1049,
images/mattress.jpg,cat,x,sounds/animalfarm_spanish.wav,,,,,,,,,0,0,0,1,0,59,59,147,239.385455207,9.94245056063e-06,240.16331149,0.777866867138,,,,,x,1,0.766939237248,2018_Nov_26_1232,59.9844554442,spanish_cond1,001,1049,
images/aloe02.jpg,broad sword,x,sounds/animalfarm_spanish.wav,,,,,,,,,0,0,0,1,0,60,60,137,241.285441031,8.98016151041e-06,242.147300421,0.86186965357,,,,,x,1,0.850448433077,2018_Nov_26_1232,59.9844554442,spanish_cond1,001,1049,
images/cookingpot.jpg,grasshopper,x,sounds/animalfarm_spanish.wav,,,,,,,,,0,0,0,1,0,61,61,183,243.262289414,9.62160993367e-06,244.031123155,0.768845607177,,,,,x,1,0.750422711251,2018_Nov_26_1232,59.9844554442,spanish_cond1,001,1049,
images/rhinoceros01.jpg,envelope,x,sounds/animalfarm_spanish.wav,,,,,,,,,0,0,0,1,0,62,62,173,245.14441136,9.62160993367e-06,245.88157704,0.737175301299,,,,,x,1,0.717069257866,2018_Nov_26_1232,59.9844554442,spanish_cond1,001,1049,
images/sunglasses03a.jpg,sun glasses,z,sounds/animalfarm_spanish.wav,,,,,,,,,0,0,0,1,0,63,63,17,246.990984192,9.62160993367e-06,248.232177174,1.2412029244,,,,,z,1,1.2172094133,2018_Nov_26_1232,59.9844554442,spanish_cond1,001,1049,
images/hat05.jpg,hat,z,sounds/animalfarm_spanish.wav,,,,,,,,,0,0,0,1,0,64,64,15,249.336886716,9.621726349e-06,250.082641323,0.745764228515,,,,,z,1,0.733684245613,2018_Nov_26_1232,59.9844554442,spanish_cond1,001,1049,
images/lion.jpg,lion,z,sounds/animalfarm_spanish.wav,,,,,,,,,0,0,0,1,0,65,65,44,251.19567712,9.30088572204e-06,251.833082315,0.637415137026,,,,,z,1,0.617049629684,2018_Nov_26_1232,59.9844554442,spanish_cond1,001,1049,
images/barrel01.jpg,barrel,z,sounds/animalfarm_spanish.wav,,,,,,,,,0,0,0,1,0,66,66,9,252.964570194,9.62160993367e-06,253.816937506,0.852377574076,,,,,z,1,0.833793675876,2018_Nov_26_1232,59.9844554442,spanish_cond1,001,1049,
images/envelope02a.jpg,grand piano,x,sounds/animalfarm_spanish.wav,,,,,,,,,0,0,0,1,0,67,67,182,254.94160171,9.62160993367e-06,256.100843242,1.15925147396,,,,,x,1,1.15053457895,2018_Nov_26_1232,59.9844554442,spanish_cond1,001,1049,
images/plate01b.jpg,plate,z,sounds/animalfarm_spanish.wav,,,,,,,,,0,0,0,1,0,68,68,3,257.201238114,9.94233414531e-06,258.184698496,0.983470965642,,,,,z,1,0.96714815544,2018_Nov_26_1232,59.9844554442,spanish_cond1,001,1049,
images/hanger02a.jpg,hanger,z,sounds/animalfarm_spanish.wav,,,,,,,,,0,0,0,1,0,69,69,88,259.279238915,9.621726349e-06,260.718701411,1.43947243853,,,,,z,1,1.41727945884,2018_Nov_26_1232,59.9844554442,spanish_cond1,001,1049,
images/screw03c.jpg,screw,z,sounds/animalfarm_spanish.wav,,,,,,,,,0,0,0,1,0,70,70,84,261.813771662,9.30088572204e-06,262.635816019,0.822053657961,,,,,z,1,0.800435732468,2018_Nov_26_1232,59.9844554442,spanish_cond1,001,1049,
images/apricot.jpg,apricot,z,sounds/animalfarm_spanish.wav,,,,,,,,,0,0,0,1,0,71,71,32,263.753689262,9.94245056063e-06,265.519889236,1.76620991621,,,,,x,0,1.75067319488,2018_Nov_26_1232,59.9844554442,spanish_cond1,001,1049,
images/swallow.jpg,mattress,x,sounds/animalfarm_spanish.wav,,,,,,,,,0,0,0,1,0,72,72,202,266.622677333,9.30088572204e-06,267.38702963,0.764362559188,,,,,z,0,0.750428163446,2018_Nov_26_1232,59.9844554442,spanish_cond1,001,1049,
images/mitten01.jpg,mitten,z,sounds/animalfarm_spanish.wav,,,,,,,,,0,0,0,1,0,73,73,102,268.509210165,9.62160993367e-06,269.404218388,0.895018165698,,,,,z,1,0.883808942279,2018_Nov_26_1232,59.9844554442,spanish_cond1,001,1049,
images/puma.jpg,puma,z,sounds/animalfarm_spanish.wav,,,,,,,,,0,0,0,1,0,74,74,4,270.502547172,9.94245056063e-06,271.404708451,0.902171863243,,,,,z,1,0.883792264736,2018_Nov_26_1232,59.9844554442,spanish_cond1,001,1049,
images/paperclip04.jpg,eye drops,x,sounds/animalfarm_spanish.wav,,,,,,,,,0,0,0,1,0,75,75,174,272.511272406,9.30100213736e-06,273.521920366,1.0106575822,,,,,x,1,1.00049776013,2018_Nov_26_1232,59.9844554442,spanish_cond1,001,1049,
images/beachumbrella01.jpg,beach umbrella,z,sounds/animalfarm_spanish.wav,,,,,,,,,0,0,0,1,0,76,76,92,274.628859565,9.30088572204e-06,275.889198991,1.26034968928,,,,,z,1,1.25055933872,2018_Nov_26_1232,59.9844554442,spanish_cond1,001,1049,
images/plant01.jpg,plant,z,sounds/animalfarm_spanish.wav,,,,,,,,,0,0,0,1,0,77,77,47,277.002305027,9.621726349e-06,277.82299658,0.820701495395,,,,,z,1,0.800436053309,2018_Nov_26_1232,59.9844554442,spanish_cond1,001,1049,
images/bowtie.jpg,bowtie,z,sounds/animalfarm_spanish.wav,,,,,,,,,0,0,0,1,0,78,78,89,278.934412092,9.62160993367e-06,279.72348722,0.789085070835,,,,,x,0,0.767105050501,2018_Nov_26_1232,59.9844554442,spanish_cond1,001,1049,
images/redfox.jpg,red fox,z,sounds/animalfarm_spanish.wav,,,,,,,,,0,0,0,1,0,79,79,1,280.837342461,9.62160993367e-06,282.007391032,1.1700588332,,,,,z,1,1.1505297682,2018_Nov_26_1232,59.9844554442,spanish_cond1,001,1049,
images/gorilla.jpg,gorilla,z,sounds/animalfarm_spanish.wav,,,,,,,,,0,0,0,1,0,80,80,80,283.119470116,8.98027792573e-06,283.791198627,0.671738452744,,,,,z,1,0.650420722668,2018_Nov_26_1232,59.9844554442,spanish_cond1,001,1049,
images/diploma01.jpg,glasses,x,sounds/animalfarm_spanish.wav,,,,,,,,,0,0,0,1,0,81,81,179,284.923540267,1.05838989839e-05,285.975071264,1.05154222238,,,,,x,1,1.03383357369,2018_Nov_26_1232,59.9844554442,spanish_cond1,001,1049,
images/radio03a.jpg,radio,z,sounds/animalfarm_spanish.wav,,,,,,,,,0,0,0,1,0,82,82,37,287.090341851,9.30100213736e-06,288.425682688,1.33535013837,,,,,z,1,1.31723417295,2018_Nov_26_1232,59.9844554442,spanish_cond1,001,1049,
images/notebook02b.jpg,notebook,z,sounds/animalfarm_spanish.wav,,,,,,,,,0,0,0,1,0,83,83,7,289.533624142,8.98027792573e-06,291.776637862,2.24302366155,,,,,z,1,2.23424358421,2018_Nov_26_1232,59.9844554442,spanish_cond1,001,1049,
images/bus.jpg,microphone,x,sounds/animalfarm_spanish.wav,,,,,,,,,0,0,0,1,0,84,84,203,292.89576224,8.98027792573e-06,294.110457195,1.21470425616,,,,,x,1,1.20054182725,2018_Nov_26_1232,59.9844554442,spanish_cond1,001,1049,
images/masquerademask02b.jpg,mirror,x,sounds/animalfarm_spanish.wav,,,,,,,,,0,0,0,1,0,85,85,204,295.217221921,9.30088572204e-06,296.761139948,1.54392764776,,,,,x,1,1.53396635246,2018_Nov_26_1232,59.9844554442,spanish_cond1,001,1049,
images/lighter02b.jpg,stapler,x,sounds/animalfarm_spanish.wav,,,,,,,,,0,0,0,1,0,86,86,227,297.863839526,8.98016151041e-06,299.445136063,1.58130615833,,,,,x,1,1.56729639298,2018_Nov_26_1232,59.9844554442,spanish_cond1,001,1049,
images/giraffe.jpg,lettuce,x,sounds/animalfarm_spanish.wav,,,,,,,,,0,0,0,1,0,87,87,195,300.547733652,9.30100213736e-06,301.195582508,0.647898567375,,,,,x,1,0.633731648326,2018_Nov_26_1232,59.9844554442,spanish_cond1,001,1049,
images/cactus.jpg,cactus,z,sounds/animalfarm_spanish.wav,,,,,,,,,0,0,0,1,0,88,88,70,302.309216131,9.94245056063e-06,303.729542125,1.42033625755,,,,,z,1,1.40057915926,2018_Nov_26_1232,59.9844554442,spanish_cond1,001,1049,
images/cheetah.jpg,cheetah,z,sounds/animalfarm_spanish.wav,,,,,,,,,0,0,0,1,0,89,89,82,304.833343703,9.62160993367e-06,305.496685021,0.663352221716,,,,,z,1,0.650415911921,2018_Nov_26_1232,59.9844554442,spanish_cond1,001,1049,
images/apple06.jpg,apple,z,sounds/animalfarm_spanish.wav,,,,,,,,,0,0,0,1,0,90,90,13,306.625401864,9.621726349e-06,307.263783977,0.638392376131,,,,,z,1,0.617057647789,2018_Nov_26_1232,59.9844554442,spanish_cond1,001,1049,
images/shotglass.jpg,shot glass,z,sounds/animalfarm_spanish.wav,,,,,,,,,0,0,0,1,0,91,91,86,308.373642385,9.30088572204e-06,309.247615113,0.873982349993,,,,,z,1,0.850444905111,2018_Nov_26_1232,59.9844554442,spanish_cond1,001,1049,
images/paintbrush03a.jpg,paint brush,z,sounds/animalfarm_spanish.wav,,,,,,,,,0,0,0,1,0,92,92,0,310.349071896,9.62160993367e-06,310.948046612,0.598984980024,,,,,z,1,0.583703232347,2018_Nov_26_1232,59.9844554442,spanish_cond1,001,1049,
images/8ball.jpg,nail clipper,x,sounds/animalfarm_spanish.wav,,,,,,,,,0,0,0,1,0,93,93,206,312.065555195,9.62160993367e-06,314.732325027,2.66677977447,,,,,x,1,2.65089218365,2018_Nov_26_1232,59.9844554442,spanish_cond1,001,1049,
images/cockroach02.jpg,belt,x,sounds/animalfarm_spanish.wav,,,,,,,,,0,0,0,1,0,94,94,129,315.832244911,9.62160993367e-06,317.216318128,1.38408315927,,,,,x,1,1.36726419255,2018_Nov_26_1232,59.9844554442,spanish_cond1,001,1049,
images/camera01a.jpg,bull,x,sounds/animalfarm_spanish.wav,,,,,,,,,0,0,0,1,0,95,95,138,318.328339803,9.621726349e-06,319.566904792,1.23857525166,,,,,x,1,1.2172228836,2018_Nov_26_1232,59.9844554442,spanish_cond1,001,1049,
images/orange.jpg,bat,x,sounds/animalfarm_spanish.wav,,,,,,,,,0,0,0,1,0,96,96,128,320.692593381,9.62160993367e-06,321.484039285,0.791456166306,,,,,x,1,0.767060470185,2018_Nov_26_1232,59.9844554442,spanish_cond1,001,1049,
images/ostrich.jpg,ostrich,z,sounds/animalfarm_spanish.wav,,,,,,,,,0,0,0,1,0,97,97,76,322.586263874,9.621726349e-06,324.551486417,1.96523280547,,,,,z,1,1.95071565837,2018_Nov_26_1232,59.9844554442,spanish_cond1,001,1049,
images/baseball01a.jpg,baseball,z,sounds/animalfarm_spanish.wav,,,,,,,,,0,0,0,1,0,98,98,74,325.684847311,9.94233414531e-06,326.418661449,0.73382472177,,,,,z,1,0.717113838298,2018_Nov_26_1232,59.9844554442,spanish_cond1,001,1049,
images/pineapple01a.jpg,pineapple,z,sounds/animalfarm_spanish.wav,,,,,,,,,0,0,0,1,0,99,99,51,327.533119647,8.98027792573e-06,330.536192161,3.00308277702,,,,,None,0,,2018_Nov_26_1232,59.9844554442,spanish_cond1,001,1049,
images/radish01.jpg,raisin,x,sounds/animalfarm_spanish.wav,,,,,,,,,0,0,0,1,0,100,100,214,331.648500562,9.30088572204e-06,332.603550133,0.955059833825,,,,,x,1,0.933829340152,2018_Nov_26_1232,59.9844554442,spanish_cond1,001,1049,
images/remotecontrol01c.jpg,remote control,z,sounds/animalfarm_spanish.wav,,,,,,,,,0,0,0,1,0,101,101,85,333.715363018,9.94233414531e-06,334.537354777,0.822002984001,,,,,z,1,0.800445995643,2018_Nov_26_1232,59.9844554442,spanish_cond1,001,1049,
images/worldmap.jpg,scooter,x,sounds/animalfarm_spanish.wav,,,,,,,,,0,0,0,1,0,102,102,220,335.669365754,9.30088572204e-06,336.537854782,0.868499291828,,,,,x,1,0.850445546559,2018_Nov_26_1232,59.9844554442,spanish_cond1,001,1049,
images/mirror02.jpg,8 ball,x,sounds/animalfarm_spanish.wav,,,,,,,,,0,0,0,1,0,103,103,121,337.641873169,9.30088572204e-06,339.35526439,1.71340180526,,,,,x,1,1.70066466369,2018_Nov_26_1232,59.9844554442,spanish_cond1,001,1049,
images/bench02.jpg,electric toothbrush,x,sounds/animalfarm_spanish.wav,,,,,,,,,0,0,0,1,0,104,104,172,340.465540698,8.98016151041e-06,342.456029055,1.99049861962,,,,,x,1,1.96740152559,2018_Nov_26_1232,59.9844554442,spanish_cond1,001,1049,
images/dice05a.jpg,band aid,x,sounds/animalfarm_spanish.wav,,,,,,,,,0,0,0,1,0,105,105,126,343.56980123,1.02631747723e-05,345.106699299,1.53690801188,,,,,x,1,1.51729171048,2018_Nov_26_1232,59.9844554442,spanish_cond1,001,1049,
images/triangleruler02.jpg,bottle of red wine,x,sounds/animalfarm_spanish.wav,,,,,,,,,0,0,0,1,0,106,106,134,346.219239261,9.62160993367e-06,347.440609718,1.22138039907,,,,,x,1,1.20053669566,2018_Nov_26_1232,59.9844554442,spanish_cond1,001,1049,
images/broadsword.jpg,teapot,x,sounds/animalfarm_spanish.wav,,,,,,,,,0,0,0,1,0,107,107,231,348.534981437,8.98016151041e-06,349.374449642,0.839478468057,,,,,x,1,0.817120958352,2018_Nov_26_1232,59.9844554442,spanish_cond1,001,1049,
images/antelope.jpg,antelope,z,sounds/animalfarm_spanish.wav,,,,,,,,,0,0,0,1,0,108,108,12,350.478947186,9.621726349e-06,351.541655014,1.06271777011,,,,,x,0,1.05049570755,2018_Nov_26_1232,59.9844554442,spanish_cond1,001,1049,
images/parkbench03.jpg,park bench,z,sounds/animalfarm_spanish.wav,,,,,,,,,0,0,0,1,0,109,109,71,352.6488463,9.30088572204e-06,353.608860001,0.960023002117,,,,,z,1,0.950495964033,2018_Nov_26_1232,59.9844554442,spanish_cond1,001,1049,
images/djmixer01.jpg,light bulb,x,sounds/animalfarm_spanish.wav,,,,,,,,,0,0,0,1,0,110,110,196,354.730989863,1.02630583569e-05,355.592679591,0.861700312467,,,,,x,1,0.850448753801,2018_Nov_26_1232,59.9844554442,spanish_cond1,001,1049,
images/ladder.jpg,ladder,z,sounds/animalfarm_spanish.wav,,,,,,,,,0,0,0,1,0,111,111,113,356.686710704,1.02630583569e-05,357.459820306,0.773120506667,,,,,z,1,0.750422390527,2018_Nov_26_1232,59.9844554442,spanish_cond1,001,1049,
images/fryingpan01.jpg,frying pan,z,sounds/animalfarm_spanish.wav,,,,,,,,,0,0,0,1,0,112,112,45,358.561510894,9.62160993367e-06,360.393915524,1.83241393114,,,,,z,1,1.81738876097,2018_Nov_26_1232,59.9844554442,spanish_cond1,001,1049,
images/lock02a.jpg,lock,z,sounds/animalfarm_spanish.wav,,,,,,,,,0,0,0,1,0,113,113,65,361.506703725,9.30088572204e-06,362.311063808,0.804370025522,,,,,z,1,0.783785144682,2018_Nov_26_1232,59.9844554442,spanish_cond1,001,1049,
images/daisy.jpg,daisy,z,sounds/animalfarm_spanish.wav,,,,,,,,,0,0,0,1,0,114,114,6,363.414999448,8.98016151041e-06,364.01148312,0.596492972341,,,,,z,1,0.583725362085,2018_Nov_26_1232,59.9844554442,spanish_cond1,001,1049,
images/drink.jpg,drink,z,sounds/animalfarm_spanish.wav,,,,,,,,,0,0,0,1,0,115,115,117,365.11297454,9.62160993367e-06,366.178770597,1.0658069615,,,,,z,1,1.05058230239,2018_Nov_26_1232,59.9844554442,spanish_cond1,001,1049,
images/honeycomb.jpg,honey comb,z,sounds/animalfarm_spanish.wav,,,,,,,,,0,0,0,1,0,116,116,59,367.29196002,9.30088572204e-06,367.945803806,0.653854048462,,,,,z,1,0.633672956261,2018_Nov_26_1232,59.9844554442,spanish_cond1,001,1049,
images/eraser.jpg,eraser,z,sounds/animalfarm_spanish.wav,,,,,,,,,0,0,0,1,0,117,117,110,369.054140068,9.30088572204e-06,369.662909305,0.608779179165,,,,,z,1,0.600377232884,2018_Nov_26_1232,59.9844554442,spanish_cond1,001,1049,
images/screwdriver02b.jpg,cola,x,sounds/animalfarm_spanish.wav,,,,,,,,,0,0,0,1,0,118,118,158,370.757969614,9.94233414531e-06,372.663661718,1.905704292,,,,,x,1,1.88404242764,2018_Nov_26_1232,59.9844554442,spanish_cond1,001,1049,
images/lily.jpg,kiwi,x,sounds/animalfarm_spanish.wav,,,,,,,,,0,0,0,1,0,119,119,190,373.764502073,9.94245056063e-06,375.164304124,1.39981263445,,,,,x,1,1.38392664702,2018_Nov_26_1232,59.9844554442,spanish_cond1,001,1049,
images/mailbox01.jpg,mail box,z,sounds/animalfarm_spanish.wav,,,,,,,,,0,0,0,1,0,120,120,73,376.285472782,9.30088572204e-06,378.115039988,1.82957714773,,,,,z,1,1.81735925446,2018_Nov_26_1232,59.9844554442,spanish_cond1,001,1049,
images/croissant02b.jpg,croissant,z,sounds/animalfarm_spanish.wav,,,,,,,,,0,0,0,1,0,121,121,39,379.227503618,9.30100213736e-06,379.982194814,0.754700817983,,,,,z,1,0.733764426084,2018_Nov_26_1232,59.9844554442,spanish_cond1,001,1049,
images/bracelet02a.jpg,chess knight,x,sounds/animalfarm_spanish.wav,,,,,,,,,0,0,0,1,0,122,122,152,381.09218119,9.30100213736e-06,381.949345535,0.857173967175,,,,,x,1,0.833776677609,2018_Nov_26_1232,59.9844554442,spanish_cond1,001,1049,
images/tulip02.jpg,sport shorts,x,sounds/animalfarm_spanish.wav,,,,,,,,,0,0,0,1,0,123,123,225,383.045389177,9.30088572204e-06,384.066555526,1.02117629175,,,,,x,1,1.0004907042,2018_Nov_26_1232,59.9844554442,spanish_cond1,001,1049,
images/tape01a.jpg,tie,x,sounds/animalfarm_spanish.wav,,,,,,,,,0,0,0,1,0,124,124,232,385.193254709,9.30100213736e-06,386.583863272,1.39061882615,,,,,x,1,1.36725521239,2018_Nov_26_1232,59.9844554442,spanish_cond1,001,1049,
images/grandpiano.jpg,tulip,x,sounds/animalfarm_spanish.wav,,,,,,,,,0,0,0,1,0,125,125,236,387.759574505,9.62160993367e-06,389.217853743,1.45828885993,,,,,x,1,1.43391304847,2018_Nov_26_1232,59.9844554442,spanish_cond1,001,1049,
images/umbrella01.jpg,umbrella,z,sounds/animalfarm_spanish.wav,,,,,,,,,0,0,0,1,0,126,126,53,390.332387953,9.30088572204e-06,392.085277655,1.75289932417,,,,,z,1,1.73403671873,2018_Nov_26_1232,59.9844554442,spanish_cond1,001,1049,
images/handfan01b.jpg,handfan,z,sounds/animalfarm_spanish.wav,,,,,,,,,0,0,0,1,0,127,127,69,393.201435358,9.621726349e-06,395.71953208,2.51810698514,,,,,z,1,2.50089545501,2018_Nov_26_1232,59.9844554442,spanish_cond1,001,1049,
images/clothespin02a.jpg,clothes pin,z,sounds/animalfarm_spanish.wav,,,,,,,,,0,0,0,1,0,128,128,79,396.825508151,9.62160993367e-06,397.82023677,0.994738881127,,,,,z,1,0.984023248428,2018_Nov_26_1232,59.9844554442,spanish_cond1,001,1049,
images/ceilingfan02.jpg,paper clip,x,sounds/animalfarm_spanish.wav,,,,,,,,,0,0,0,1,0,129,129,208,398.92021727,9.62160993367e-06,400.304002799,1.38379515114,,,,,x,1,1.36725681601,2018_Nov_26_1232,59.9844554442,spanish_cond1,001,1049,
images/spoon02b.jpg,spoon,z,sounds/animalfarm_spanish.wav,,,,,,,,,0,0,0,1,0,130,130,38,401.396772834,9.621726349e-06,402.187810779,0.791047887644,,,,,z,1,0.767100881087,2018_Nov_26_1232,59.9844554442,spanish_cond1,001,1049,
images/pen03c.jpg,pepper,x,sounds/animalfarm_spanish.wav,,,,,,,,,0,0,0,1,0,131,131,211,403.283321702,9.62160993367e-06,404.455038666,1.1717272274,,,,,x,1,1.15052431577,2018_Nov_26_1232,59.9844554442,spanish_cond1,001,1049,
images/lollipop03b.jpg,lollipop,z,sounds/animalfarm_spanish.wav,,,,,,,,,0,0,0,1,0,132,132,42,405.550183004,9.62160993367e-06,406.28884453,0.738671468105,,,,,z,1,0.717085935408,2018_Nov_26_1232,59.9844554442,spanish_cond1,001,1049,
images/lemon02.jpg,lemon,z,sounds/animalfarm_spanish.wav,,,,,,,,,0,0,0,1,0,133,133,14,407.401786035,9.30100213736e-06,408.472730958,1.07095518627,,,,,z,1,1.05050500832,2018_Nov_26_1232,59.9844554442,spanish_cond1,001,1049,
images/corkscrew02a.jpg,masquerade mask,x,sounds/animalfarm_spanish.wav,,,,,,,,,0,0,0,1,0,134,134,201,409.577931525,8.98016151041e-06,411.273455661,1.6955337578,,,,,x,1,1.68399900186,2018_Nov_26_1232,59.9844554442,spanish_cond1,001,1049,
images/tissuebox03.jpg,tissue box,z,sounds/animalfarm_spanish.wav,,,,,,,,,0,0,0,1,0,135,135,58,412.400445739,8.98027792573e-06,413.190586946,0.790150829009,,,,,z,1,0.767088693683,2018_Nov_26_1232,59.9844554442,spanish_cond1,001,1049,
images/raisin.jpg,ruler,x,sounds/animalfarm_spanish.wav,,,,,,,,,0,0,0,1,0,136,136,218,414.297235571,8.65943729877e-06,415.407812396,1.11058612529,,,,,x,1,1.10050744587,2018_Nov_26_1232,59.9844554442,spanish_cond1,001,1049,
images/donut.jpg,rhinoceros,x,sounds/animalfarm_spanish.wav,,,,,,,,,0,0,0,1,0,137,137,216,416.533077953,9.30088572204e-06,417.624881333,1.09181364276,,,,,x,1,1.08368078189,2018_Nov_26_1232,59.9844554442,spanish_cond1,001,1049,
images/cupcake.jpg,scissors,x,sounds/animalfarm_spanish.wav,,,,,,,,,0,0,0,1,0,138,138,219,418.74531586,9.94245056063e-06,421.742592932,2.99728765665,,,,,None,0,,2018_Nov_26_1232,59.9844554442,spanish_cond1,001,1049,
images/watermelon01.jpg,orange,x,sounds/animalfarm_spanish.wav,,,,,,,,,0,0,0,1,0,139,139,207,422.871888037,9.94233414531e-06,424.260069058,1.38819128356,,,,,x,1,1.36721993308,2018_Nov_26_1232,59.9844554442,spanish_cond1,001,1049,
images/computermouse02a.jpg,world map,x,sounds/animalfarm_spanish.wav,,,,,,,,,0,0,0,1,0,140,140,239,425.364234976,9.621726349e-06,426.2272201,0.862994745374,,,,,x,1,0.850449715974,2018_Nov_26_1232,59.9844554442,spanish_cond1,001,1049,
images/bed.jpg,bed,z,sounds/animalfarm_spanish.wav,,,,,,,,,0,0,0,1,0,141,141,103,427.347959953,9.30088572204e-06,428.227725236,0.879774904693,,,,,z,1,0.867119226372,2018_Nov_26_1232,59.9844554442,spanish_cond1,001,1049,
images/gps.jpg,gps,z,sounds/animalfarm_spanish.wav,,,,,,,,,0,0,0,1,0,142,142,21,429.34738073,9.30088572204e-06,432.345279041,2.99790825299,,,,,None,0,,2018_Nov_26_1232,59.9844554442,spanish_cond1,001,1049,
images/grasshopper.jpg,cauliflower,x,sounds/animalfarm_spanish.wav,,,,,,,,,0,0,0,1,0,143,143,148,433.43968187,9.62160993367e-06,434.295944666,0.85627305985,,,,,x,1,0.833798166015,2018_Nov_26_1232,59.9844554442,spanish_cond1,001,1049,
images/bicycle.jpg,hand bag,x,sounds/animalfarm_spanish.wav,,,,,,,,,0,0,0,1,0,144,144,186,435.407025665,9.94233414531e-06,436.296429918,0.889414516045,,,,,x,1,0.867116660578,2018_Nov_26_1232,59.9844554442,spanish_cond1,001,1049,
images/candy.jpg,candy,z,sounds/animalfarm_spanish.wav,,,,,,,,,0,0,0,1,0,145,145,31,437.399845669,9.30088572204e-06,438.463667042,1.06383131573,,,,,z,1,1.05050853628,2018_Nov_26_1232,59.9844554442,spanish_cond1,001,1049,
images/arrow02.jpg,hammer,x,sounds/animalfarm_spanish.wav,,,,,,,,,0,0,0,1,0,146,146,184,439.561403132,9.621726349e-06,440.247277073,0.685884524835,,,,,x,1,0.666908063227,2018_Nov_26_1232,59.9844554442,spanish_cond1,001,1049,
images/carrot02.jpg,corkscrew,x,sounds/animalfarm_spanish.wav,,,,,,,,,0,0,0,1,0,147,147,161,441.351007451,9.62160993367e-06,442.04814161,0.697144422214,,,,,x,1,0.68399290822,2018_Nov_26_1232,59.9844554442,spanish_cond1,001,1049,
images/nailclipper03a.jpg,aquarium,x,sounds/animalfarm_spanish.wav,,,,,,,,,0,0,0,1,0,148,148,123,443.149093576,9.30100213736e-06,443.831700325,0.682616691454,,,,,x,1,0.667100496241,2018_Nov_26_1232,59.9844554442,spanish_cond1,001,1049,
images/flashlight05.jpg,flash light,z,sounds/animalfarm_spanish.wav,,,,,,,,,0,0,0,1,0,149,149,8,444.935572463,9.62160993367e-06,446.032258509,1.09669598914,,,,,z,1,1.08385653736,2018_Nov_26_1232,59.9844554442,spanish_cond1,001,1049,
images/cat.jpg,black olive,x,sounds/animalfarm_spanish.wav,,,,,,,,,0,0,0,1,0,150,150,133,447.163961272,9.30100213736e-06,447.916041473,0.752089822665,,,,,x,1,0.733748069266,2018_Nov_26_1232,59.9844554442,spanish_cond1,001,1049,
images/button07.jpg,radish,x,sounds/animalfarm_spanish.wav,,,,,,,,,0,0,0,1,0,151,151,215,449.029540072,9.94233414531e-06,450.083300406,1.05377123819,,,,,x,1,1.033868853,2018_Nov_26_1232,59.9844554442,spanish_cond1,001,1049,
images/leaf01a.jpg,leaf,z,sounds/animalfarm_spanish.wav,,,,,,,,,0,0,0,1,0,152,152,68,451.188200456,9.30100213736e-06,451.933735369,0.745544854901,,,,,z,1,0.733760256669,2018_Nov_26_1232,59.9844554442,spanish_cond1,001,1049,
images/hammer02a.jpg,flower,x,sounds/animalfarm_spanish.wav,,,,,,,,,0,0,0,1,0,153,153,176,453.030304031,9.30088572204e-06,453.800880253,0.770585843013,,,,,x,1,0.750439709402,2018_Nov_26_1232,59.9844554442,spanish_cond1,001,1049,
images/pepper05a.jpg,lighter,x,sounds/animalfarm_spanish.wav,,,,,,,,,0,0,0,1,0,154,154,198,454.923335647,8.98016151041e-06,455.818045278,0.894719573786,,,,,x,1,0.883785208804,2018_Nov_26_1232,59.9844554442,spanish_cond1,001,1049,
images/electricguitar02.jpg,electric guitar,z,sounds/animalfarm_spanish.wav,,,,,,,,,0,0,0,1,0,155,155,100,456.921514268,8.98027792573e-06,457.835232754,0.913728428306,,,,,z,1,0.900471717468,2018_Nov_26_1232,59.9844554442,spanish_cond1,001,1049,
images/calculator02b.jpg,dice,x,sounds/animalfarm_spanish.wav,,,,,,,,,0,0,0,1,0,156,156,165,458.938164535,9.94233414531e-06,459.602332994,0.664179362939,,,,,x,1,0.650405328139,2018_Nov_26_1232,59.9844554442,spanish_cond1,001,1049,
images/swan.jpg,swan,z,sounds/animalfarm_spanish.wav,,,,,,,,,0,0,0,1,0,157,157,54,460.695727795,8.98027792573e-06,462.319716238,1.62399838609,,,,,z,1,1.60066876898,2018_Nov_26_1232,59.9844554442,spanish_cond1,001,1049,
images/straw.jpg,straw,z,sounds/animalfarm_spanish.wav,,,,,,,,,0,0,0,1,0,158,158,109,463.411773309,9.30088572204e-06,464.203518125,0.791755399667,,,,,z,1,0.783783541061,2018_Nov_26_1232,59.9844554442,spanish_cond1,001,1049,
images/nametag01a.jpg,name tag,z,sounds/animalfarm_spanish.wav,,,,,,,,,0,0,0,1,0,159,159,108,465.324706989,9.30088572204e-06,466.537438806,1.21274175995,,,,,z,1,1.20053733711,2018_Nov_26_1232,59.9844554442,spanish_cond1,001,1049,
images/pouch01b.jpg,pouch,z,sounds/animalfarm_spanish.wav,,,,,,,,,0,0,0,1,0,160,160,25,467.650902126,9.62160993367e-06,468.78800488,1.13711333787,,,,,z,1,1.11719587888,2018_Nov_26_1232,59.9844554442,spanish_cond1,001,1049,
images/butterfly.jpg,butterfly,z,sounds/animalfarm_spanish.wav,,,,,,,,,0,0,0,1,0,161,161,91,469.897156417,9.621726349e-06,470.688480446,0.791333971429,,,,,z,1,0.767100560362,2018_Nov_26_1232,59.9844554442,spanish_cond1,001,1049,
images/dreamcatcher.jpg,dream catcher,z,sounds/animalfarm_spanish.wav,,,,,,,,,0,0,0,1,0,162,162,48,471.788347411,9.62160993367e-06,472.588961465,0.800624316791,,,,,z,1,0.783778088749,2018_Nov_26_1232,59.9844554442,spanish_cond1,001,1049,
images/cauliflower01.jpg,glue stick,x,sounds/animalfarm_spanish.wav,,,,,,,,,0,0,0,1,0,163,163,181,473.705642585,9.621726349e-06,475.022922301,1.31728997862,,,,,x,1,1.30057813285,2018_Nov_26_1232,59.9844554442,spanish_cond1,001,1049,
images/flamingo.jpg,flamingo,z,sounds/animalfarm_spanish.wav,,,,,,,,,0,0,0,1,0,164,164,52,476.122856296,9.30088572204e-06,476.756689934,0.633843580144,,,,,x,0,0.617070476641,2018_Nov_26_1232,59.9844554442,spanish_cond1,001,1049,
images/thumbtack02a.jpg,thumb tack,z,sounds/animalfarm_spanish.wav,,,,,,,,,0,0,0,1,0,165,165,60,477.868729891,9.30088572204e-06,478.590475592,0.721755001927,,,,,x,0,0.700415142113,2018_Nov_26_1232,59.9844554442,spanish_cond1,001,1049,
images/chameleon.jpg,50 dollar bill,x,sounds/animalfarm_spanish.wav,,,,,,,,,0,0,0,1,0,166,166,120,479.703657639,9.30088572204e-06,480.657654601,0.954006263055,,,,,x,1,0.933795664343,2018_Nov_26_1232,59.9844554442,spanish_cond1,001,1049,
images/globe.jpg,cloud,x,sounds/animalfarm_spanish.wav,,,,,,,,,0,0,0,1,0,167,167,154,481.787050092,9.30088572204e-06,483.224999423,1.43795895274,,,,,x,1,1.41727689316,2018_Nov_26_1232,59.9844554442,spanish_cond1,001,1049,
images/highheelshoe02a.jpg,high heel shoe,z,sounds/animalfarm_spanish.wav,,,,,,,,,0,0,0,1,0,168,168,75,484.332705146,9.62160993367e-06,485.458871291,1.12617576576,,,,,z,1,1.11717920122,2018_Nov_26_1232,59.9844554442,spanish_cond1,001,1049,
images/toucan.jpg,toucan,z,sounds/animalfarm_spanish.wav,,,,,,,,,0,0,0,1,0,169,169,81,486.561316216,9.30088572204e-06,487.626090454,1.06478385918,,,,,z,1,1.05048929295,2018_Nov_26_1232,59.9844554442,spanish_cond1,001,1049,
images/peach01.jpg,peach,z,sounds/animalfarm_spanish.wav,,,,,,,,,0,0,0,1,0,170,170,106,488.756204041,9.94245056063e-06,489.726620992,0.970426893444,,,,,z,1,0.950474475743,2018_Nov_26_1232,59.9844554442,spanish_cond1,001,1049,
images/boxingglove02a.jpg,bracelet,x,sounds/animalfarm_spanish.wav,,,,,,,,,0,0,0,1,0,171,171,135,490.839093281,8.98016151041e-06,492.460490614,1.62140727555,,,,,x,1,1.60048242961,2018_Nov_26_1232,59.9844554442,spanish_cond1,001,1049,
images/headphones02b.jpg,headphones,z,sounds/animalfarm_spanish.wav,,,,,,,,,0,0,0,1,0,172,172,101,493.570044016,9.30088572204e-06,494.311137574,0.741103179986,,,,,z,1,0.717108065262,2018_Nov_26_1232,59.9844554442,spanish_cond1,001,1049,
images/hairband.jpg,hairband,z,sounds/animalfarm_spanish.wav,,,,,,,,,0,0,0,1,0,173,173,66,495.421731718,9.62160993367e-06,496.178262574,0.756541119074,,,,,z,1,0.733759294497,2018_Nov_26_1232,59.9844554442,spanish_cond1,001,1049,
images/lantern03.jpg,lantern,z,sounds/animalfarm_spanish.wav,,,,,,,,,0,0,0,1,0,174,174,5,497.285223261,9.62160993367e-06,498.17876771,0.893555033254,,,,,z,1,0.883772059227,2018_Nov_26_1232,59.9844554442,spanish_cond1,001,1049,
images/bandaid01.jpg,door handle,x,sounds/animalfarm_spanish.wav,,,,,,,,,0,0,0,1,0,175,175,170,499.287717834,9.62160993367e-06,500.395998612,1.10829039942,,,,,x,1,1.08384916082,2018_Nov_26_1232,59.9844554442,spanish_cond1,001,1049,
images/desktopcomputer.jpg,desktop computer,z,sounds/animalfarm_spanish.wav,,,,,,,,,0,0,0,1,0,176,176,16,501.532820735,1.05838989839e-05,502.796606315,1.26379776828,,,,,z,1,1.25056318729,2018_Nov_26_1232,59.9844554442,spanish_cond1,001,1049,
images/bullet (2).jpg,rubber glove,x,sounds/animalfarm_spanish.wav,,,,,,,,,0,0,0,1,0,177,177,217,503.903454429,9.30088572204e-06,505.747344104,1.84389961662,,,,,x,1,1.83402523689,2018_Nov_26_1232,59.9844554442,spanish_cond1,001,1049,
images/weight01.jpg,weight,z,sounds/animalfarm_spanish.wav,,,,,,,,,0,0,0,1,0,178,178,67,506.853980221,9.62160993367e-06,507.681179217,0.827209259383,,,,,z,1,0.817102677189,2018_Nov_26_1232,59.9844554442,spanish_cond1,001,1049,
images/dolphin01.jpg,dolphin,z,sounds/animalfarm_spanish.wav,,,,,,,,,0,0,0,1,0,179,179,99,508.782785134,9.62160993367e-06,509.498292157,0.715516964905,,,,,z,1,0.700410651974,2018_Nov_26_1232,59.9844554442,spanish_cond1,001,1049,
images/hairdryer03a.jpg,hairdryer,z,sounds/animalfarm_spanish.wav,,,,,,,,,0,0,0,1,0,180,180,119,510.598614867,1.02630583569e-05,511.548810956,0.950206352281,,,,,z,1,0.933805285953,2018_Nov_26_1232,59.9844554442,spanish_cond1,001,1049,
images/fireextinguisher02.jpg,fire extinguisher,z,sounds/animalfarm_spanish.wav,,,,,,,,,0,0,0,1,0,181,181,175,512.660317232,9.94245056063e-06,514.366190096,1.70588312647,,,,,z,1,1.68399675691,2018_Nov_26_1232,59.9844554442,spanish_cond1,001,1049,
images/leek.jpg,donut,x,sounds/animalfarm_spanish.wav,,,,,,,,,0,0,0,1,0,182,182,169,515.469088522,9.94245056063e-06,517.533662308,2.06458404963,,,,,z,0,2.05075837858,2018_Nov_26_1232,59.9844554442,spanish_cond1,001,1049,
images/dryingmachine01.jpg,drying machine,z,sounds/animalfarm_spanish.wav,,,,,,,,,0,0,0,1,0,183,183,18,518.656385826,8.98016151041e-06,519.250762356,0.594386151526,,,,,z,1,0.583721834235,2018_Nov_26_1232,59.9844554442,spanish_cond1,001,1049,
images/dragonfly02.jpg,dragon fly,z,sounds/animalfarm_spanish.wav,,,,,,,,,0,0,0,1,0,184,184,29,520.349973765,9.94245056063e-06,521.551360694,1.20139783353,,,,,z,1,1.18387071323,2018_Nov_26_1232,59.9844554442,spanish_cond1,001,1049,
images/rubberglove02a.jpg,lady bug,x,sounds/animalfarm_spanish.wav,,,,,,,,,0,0,0,1,0,185,185,192,522.657227079,9.621726349e-06,523.685214858,1.02799804229,,,,,x,1,1.01715604519,2018_Nov_26_1232,59.9844554442,spanish_cond1,001,1049,
images/lightswitch02a.jpg,fork,x,sounds/animalfarm_spanish.wav,,,,,,,,,0,0,0,1,0,186,186,177,524.798562076,9.30088572204e-06,526.819344843,2.0207927085,,,,,x,1,2.00074311218,2018_Nov_26_1232,59.9844554442,spanish_cond1,001,1049,
images/showerhead01.jpg,skateboard,x,sounds/animalfarm_spanish.wav,,,,,,,,,0,0,0,1,0,187,187,223,527.928855909,9.30088572204e-06,529.169939204,1.2410925962,,,,,x,1,1.21719979169,2018_Nov_26_1232,59.9844554442,spanish_cond1,001,1049,
images/ant.jpg,ant,z,sounds/animalfarm_spanish.wav,,,,,,,,,0,0,0,1,0,188,188,98,530.266186504,9.30088572204e-06,531.053762899,0.78758665896,,,,,z,1,0.767111144145,2018_Nov_26_1232,59.9844554442,spanish_cond1,001,1049,
images/safe.jpg,safe,z,sounds/animalfarm_spanish.wav,,,,,,,,,0,0,0,1,0,189,189,78,532.166239358,9.621726349e-06,533.27097552,1.10474610387,,,,,z,1,1.08383665257,2018_Nov_26_1232,59.9844554442,spanish_cond1,001,1049,
images/beermug01b.jpg,beer mug,z,sounds/animalfarm_spanish.wav,,,,,,,,,0,0,0,1,0,190,190,111,534.389501432,9.94245056063e-06,535.70493796,1.31544647028,,,,,z,1,1.30057845369,2018_Nov_26_1232,59.9844554442,spanish_cond1,001,1049,
images/coin01b.jpg,arrow,x,sounds/animalfarm_spanish.wav,,,,,,,,,0,0,0,1,0,191,191,124,536.809195604,9.62160993367e-06,537.838795972,1.02961031022,,,,,x,1,1.01706335659,2018_Nov_26_1232,59.9844554442,spanish_cond1,001,1049,
images/broom02.jpg,broom,z,sounds/animalfarm_spanish.wav,,,,,,,,,0,0,0,1,0,192,192,116,538.934329345,1.02630583569e-05,540.039367627,1.10504822363,,,,,z,1,1.08385557518,2018_Nov_26_1232,59.9844554442,spanish_cond1,001,1049,
images/chessknight02b (1).jpg,cockroach,x,sounds/animalfarm_spanish.wav,,,,,,,,,0,0,0,1,0,193,193,155,541.149869402,9.30088572204e-06,542.173233337,1.02337419754,,,,,x,1,1.00049006275,2018_Nov_26_1232,59.9844554442,spanish_cond1,001,1049,
images/lychee02a.jpg,lychee,z,sounds/animalfarm_spanish.wav,,,,,,,,,0,0,0,1,0,194,194,62,543.298469388,9.62160993367e-06,544.740536144,1.44207669864,,,,,z,1,1.41724706604,2018_Nov_26_1232,59.9844554442,spanish_cond1,001,1049,
images/doll.jpg,carrot,x,sounds/animalfarm_spanish.wav,,,,,,,,,0,0,0,1,0,195,195,146,545.853146344,9.62160993367e-06,547.091133713,1.23799699033,,,,,x,1,1.21720139531,2018_Nov_26_1232,59.9844554442,spanish_cond1,001,1049,
images/candle08a.jpg,screw driver,x,sounds/animalfarm_spanish.wav,,,,,,,,,0,0,0,1,0,196,196,221,548.206749396,1.02630583569e-05,550.058571159,1.85183234722,,,,,x,1,1.8340345379,2018_Nov_26_1232,59.9844554442,spanish_cond1,001,1049,
images/razor04a.jpg,razor,z,sounds/animalfarm_spanish.wav,,,,,,,,,0,0,0,1,0,197,197,36,551.159689901,9.62160993367e-06,552.359140953,1.19946067431,,,,,z,1,1.1838610915,2018_Nov_26_1232,59.9844554442,spanish_cond1,001,1049,
images/lettuce.jpg,mushroom,x,sounds/animalfarm_spanish.wav,,,,,,,,,0,0,0,1,0,198,198,205,553.484225303,9.621726349e-06,554.309640445,0.825425405288,,,,,x,1,0.817104280693,2018_Nov_26_1232,59.9844554442,spanish_cond1,001,1049,
images/toothbrush03a.jpg,parrot,x,sounds/animalfarm_spanish.wav,,,,,,,,,0,0,0,1,0,199,199,210,555.403997732,9.30100213736e-06,557.14369583,1.73970836145,,,,,x,1,1.71734507848,2018_Nov_26_1232,59.9844554442,spanish_cond1,001,1049,
images/diaper01a.jpg,camera,x,sounds/animalfarm_spanish.wav,,,,,,,,,0,0,0,1,0,200,200,143,558.264813815,9.621726349e-06,559.244211935,0.979407742503,,,,,x,1,0.967136609484,2018_Nov_26_1232,59.9844554442,spanish_cond1,001,1049,
images/table02.jpg,table,z,sounds/animalfarm_spanish.wav,,,,,,,,,0,0,0,1,0,201,201,49,560.36169486,9.621726349e-06,561.278086241,0.916401322931,,,,,z,1,0.900477811228,2018_Nov_26_1232,59.9844554442,spanish_cond1,001,1049,
images/microphone01.jpg,diaper,x,sounds/animalfarm_spanish.wav,,,,,,,,,0,0,0,1,0,202,202,164,562.378295095,9.30088572204e-06,563.145200336,0.766915183165,,,,,x,1,0.750409240834,2018_Nov_26_1232,59.9844554442,spanish_cond1,001,1049,
,,,sounds/animalfarm_spanish.wav,,,,,,,,,0,0,0,1,,,,,,,,,,,,,,,,2018_Nov_26_1232,59.9844554442,spanish_cond1,001,1049,
images/lamp04b.jpg,parking meter,x,sounds/greatgatsby_english.wav,,,,,,,,,0,1,1,0,0,0,0,209,584.29304855,1.02630583569e-05,586.251065758,1.95802875457,,,,574.148147447,x,1,1.93407276785,2018_Nov_26_1232,59.9844554442,spanish_cond1,001,1049,
images/bracelet02a.jpg,chess knight,x,sounds/greatgatsby_english.wav,,,,,,,,,0,1,1,0,0,1,1,152,587.35915282,8.6595537141e-06,589.935319413,2.57617653545,,,,,z,0,2.5675532911,2018_Nov_26_1232,59.9844554442,spanish_cond1,001,1049,
images/stapler03a.jpg,candy cane,x,sounds/greatgatsby_english.wav,,,,,,,,,0,1,1,0,0,2,2,145,591.045291998,9.30088572204e-06,592.68602917,1.64074711478,,,,,x,1,1.61732352618,2018_Nov_26_1232,59.9844554442,spanish_cond1,001,1049,
images/bandaid01.jpg,door handle,x,sounds/greatgatsby_english.wav,,,,,,,,,0,1,1,0,0,3,3,170,593.792440141,9.621726349e-06,596.653709403,2.86127952568,,,,,x,1,2.8509798689,2018_Nov_26_1232,59.9844554442,spanish_cond1,001,1049,
images/charcoalbarbecue.jpg,charcoal barbecue,z,sounds/greatgatsby_english.wav,,,,,,,,,0,1,1,0,0,4,4,77,597.771071416,8.98027792573e-06,599.98811662,2.21705514623,,,,,z,1,2.20104792609,2018_Nov_26_1232,59.9844554442,spanish_cond1,001,1049,
images/backpack01b.jpg,swallow,x,sounds/greatgatsby_english.wav,,,,,,,,,0,1,1,0,0,5,5,228,601.119062158,9.62160993367e-06,602.15507247,1.03602057486,,,,,x,1,1.01715668663,2018_Nov_26_1232,59.9844554442,spanish_cond1,001,1049,
images/broom02.jpg,broom,z,sounds/greatgatsby_english.wav,,,,,,,,,0,1,1,0,0,6,6,116,603.247782209,9.94233414531e-06,604.072233904,0.824461957207,,,,,z,1,0.80044856132,2018_Nov_26_1232,59.9844554442,spanish_cond1,001,1049,
images/plate01b.jpg,plate,z,sounds/greatgatsby_english.wav,,,,,,,,,0,1,1,0,0,7,7,3,605.170627473,9.30088572204e-06,606.18942433,1.01880679978,,,,,z,1,1.00048428972,2018_Nov_26_1232,59.9844554442,spanish_cond1,001,1049,
images/tank.jpg,wallet,x,sounds/greatgatsby_english.wav,,,,,,,,,0,1,1,0,0,8,8,237,607.293313466,9.62160993367e-06,608.089916253,0.796613050508,,,,,x,1,0.783769429312,2018_Nov_26_1232,59.9844554442,spanish_cond1,001,1049,
images/lipstick04.jpg,lipstick,z,sounds/greatgatsby_english.wav,,,,,,,,,0,1,1,0,0,9,9,56,609.189206239,9.94233414531e-06,610.023732444,0.83453646733,,,,,z,1,0.817111978075,2018_Nov_26_1232,59.9844554442,spanish_cond1,001,1049,
images/electrictoothbrush01a.jpg,banjo,x,sounds/greatgatsby_english.wav,,,,,,,,,0,1,1,0,0,10,10,127,611.119531054,8.98027792573e-06,612.190960908,1.07144011743,,,,,x,1,1.05051463004,2018_Nov_26_1232,59.9844554442,spanish_cond1,001,1049,
images/ashtray02b.jpg,ashtray,z,sounds/greatgatsby_english.wav,,,,,,,,,0,1,1,0,0,11,11,43,613.303488041,9.621726349e-06,614.008071603,0.704593504546,,,,,z,1,0.683739538072,2018_Nov_26_1232,59.9844554442,spanish_cond1,001,1049,
images/parkingmeter.jpg,ear,x,sounds/greatgatsby_english.wav,,,,,,,,,0,1,1,0,0,12,12,171,615.109121389,9.30100213736e-06,616.108613045,0.999501919257,,,,,x,1,0.983819269459,2018_Nov_26_1232,59.9844554442,spanish_cond1,001,1049,
images/cherry01.jpg,highlighter,x,sounds/greatgatsby_english.wav,,,,,,,,,0,1,1,0,0,13,13,187,617.216843791,9.94233414531e-06,618.175806487,0.958972959314,,,,,x,1,0.950486342423,2018_Nov_26_1232,59.9844554442,spanish_cond1,001,1049,
images/candy.jpg,candy,z,sounds/greatgatsby_english.wav,,,,,,,,,0,1,1,0,0,14,14,31,619.277397651,9.30088572204e-06,620.24300506,0.96561670932,,,,,z,1,0.950492436066,2018_Nov_26_1232,59.9844554442,spanish_cond1,001,1049,
images/lettuce.jpg,mushroom,x,sounds/greatgatsby_english.wav,,,,,,,,,0,1,1,0,0,15,15,205,621.36602332,8.98016151041e-06,622.093479151,0.72746609326,,,,,x,1,0.71709170856,2018_Nov_26_1232,59.9844554442,spanish_cond1,001,1049,
images/seagull.jpg,seagull,z,sounds/greatgatsby_english.wav,,,,,,,,,0,1,1,0,0,16,16,50,623.200562674,9.30088572204e-06,624.344038168,1.14348607813,,,,,z,1,1.13387084159,2018_Nov_26_1232,59.9844554442,spanish_cond1,001,1049,
images/hammer02a.jpg,flower,x,sounds/greatgatsby_english.wav,,,,,,,,,0,1,1,0,0,17,17,176,625.438667748,9.62160993367e-06,626.761319872,1.32266174641,,,,,x,1,1.30058294383,2018_Nov_26_1232,59.9844554442,spanish_cond1,001,1049,
images/cigar.jpg,crocodile,x,sounds/greatgatsby_english.wav,,,,,,,,,0,1,1,0,0,18,18,162,627.859427037,9.62160993367e-06,628.811836106,0.95241965272,,,,,x,1,0.933806889574,2018_Nov_26_1232,59.9844554442,spanish_cond1,001,1049,
images/chessknight02b (1).jpg,cockroach,x,sounds/greatgatsby_english.wav,,,,,,,,,0,1,1,0,0,19,19,155,629.920378913,9.30088572204e-06,630.828996641,0.908627349534,,,,,x,1,0.900457926444,2018_Nov_26_1232,59.9844554442,spanish_cond1,001,1049,
images/lollipop03b.jpg,lollipop,z,sounds/greatgatsby_english.wav,,,,,,,,,0,1,1,0,0,20,20,42,631.921691948,9.30100213736e-06,632.646396628,0.72471526335,,,,,z,1,0.700671078055,2018_Nov_26_1232,59.9844554442,spanish_cond1,001,1049,
images/butterfly.jpg,butterfly,z,sounds/greatgatsby_english.wav,,,,,,,,,0,1,1,0,0,21,21,91,633.753352504,9.94233414531e-06,634.446588291,0.693246050039,,,,,z,1,0.683749480406,2018_Nov_26_1232,59.9844554442,spanish_cond1,001,1049,
images/cloud.jpg,ceiling fan,x,sounds/greatgatsby_english.wav,,,,,,,,,0,1,1,0,0,22,22,149,635.55270548,9.94233414531e-06,636.580487035,1.02779213898,,,,,x,1,1.01719036244,2018_Nov_26_1232,59.9844554442,spanish_cond1,001,1049,
images/coin01b.jpg,arrow,x,sounds/greatgatsby_english.wav,,,,,,,,,0,1,1,0,0,23,23,124,637.682640746,9.621726349e-06,638.731010068,1.04837958573,,,,,x,1,1.03382555558,2018_Nov_26_1232,59.9844554442,spanish_cond1,001,1049,
images/clothespin02a.jpg,clothes pin,z,sounds/greatgatsby_english.wav,,,,,,,,,0,1,1,0,0,24,24,79,639.835119219,9.94245056063e-06,640.781529509,0.946420874097,,,,,z,1,0.933814266114,2018_Nov_26_1232,59.9844554442,spanish_cond1,001,1049,
images/skateboard.jpg,key,x,sounds/greatgatsby_english.wav,,,,,,,,,0,1,1,0,0,25,25,189,641.87306669,9.94245056063e-06,642.565351537,0.692294468754,,,,,x,1,0.683798230137,2018_Nov_26_1232,59.9844554442,spanish_cond1,001,1049,
images/mattress.jpg,cat,x,sounds/greatgatsby_english.wav,,,,,,,,,0,1,1,0,0,26,26,147,643.6689687,9.94233414531e-06,644.8159128,1.14695404179,,,,,x,1,1.13389874424,2018_Nov_26_1232,59.9844554442,spanish_cond1,001,1049,
images/50dollarbill.jpg,cherry,x,sounds/greatgatsby_english.wav,,,,,,,,,0,1,1,0,0,27,27,151,645.935885808,9.30088572204e-06,647.082940556,1.14706469083,,,,,x,1,1.13368129497,2018_Nov_26_1232,59.9844554442,spanish_cond1,001,1049,
images/printer03a.jpg,printer,z,sounds/greatgatsby_english.wav,,,,,,,,,0,1,1,0,0,28,28,72,648.191925959,9.30088572204e-06,649.083637164,0.89172114653,,,,,z,1,0.883808300714,2018_Nov_26_1232,59.9844554442,spanish_cond1,001,1049,
images/mirror02.jpg,8 ball,x,sounds/greatgatsby_english.wav,,,,,,,,,0,1,1,0,0,29,29,121,650.185662906,9.30088572204e-06,651.050782433,0.865129148238,,,,,z,0,0.85044715018,2018_Nov_26_1232,59.9844554442,spanish_cond1,001,1049,
images/weight01.jpg,weight,z,sounds/greatgatsby_english.wav,,,,,,,,,0,1,1,0,0,30,30,67,652.154889017,9.94245056063e-06,652.984740382,0.829861627892,,,,,z,1,0.817242191057,2018_Nov_26_1232,59.9844554442,spanish_cond1,001,1049,
images/floorlamp.jpg,floor lamp,z,sounds/greatgatsby_english.wav,,,,,,,,,0,1,1,0,0,31,31,26,654.078502409,8.98027792573e-06,656.535529229,2.45703740383,,,,,z,1,2.43420811242,2018_Nov_26_1232,59.9844554442,spanish_cond1,001,1049,
images/bed.jpg,bed,z,sounds/greatgatsby_english.wav,,,,,,,,,0,1,1,0,0,32,32,103,657.654433272,9.30088572204e-06,658.352628699,0.698205369641,,,,,z,1,0.683663206291,2018_Nov_26_1232,59.9844554442,spanish_cond1,001,1049,
images/bus.jpg,microphone,x,sounds/greatgatsby_english.wav,,,,,,,,,0,1,1,0,0,33,33,203,659.470252742,9.62160993367e-06,660.236438283,0.766196125187,,,,,x,1,0.750426239218,2018_Nov_26_1232,59.9844554442,spanish_cond1,001,1049,
images/flamingo.jpg,flamingo,z,sounds/greatgatsby_english.wav,,,,,,,,,0,1,1,0,0,34,34,52,661.334448269,3.14307399094e-05,662.587049322,1.25262254139,,,,,z,1,1.23389271472,2018_Nov_26_1232,59.9844554442,spanish_cond1,001,1049,
images/mailbox01.jpg,mail box,z,sounds/greatgatsby_english.wav,,,,,,,,,0,1,1,0,0,35,35,73,663.705799097,9.30088572204e-06,664.470858906,0.765070071211,,,,,z,1,0.75044035085,2018_Nov_26_1232,59.9844554442,spanish_cond1,001,1049,
images/gps.jpg,gps,z,sounds/greatgatsby_english.wav,,,,,,,,,0,1,1,0,0,36,36,21,665.588931317,8.98016151041e-06,667.004819164,1.41589746915,,,,,z,1,1.40059359162,2018_Nov_26_1232,59.9844554442,spanish_cond1,001,1049,
images/boxingglove02a.jpg,bracelet,x,sounds/greatgatsby_english.wav,,,,,,,,,0,1,1,0,0,37,37,135,668.115757121,9.62160993367e-06,669.088718358,0.972971499432,,,,,x,1,0.950517773163,2018_Nov_26_1232,59.9844554442,spanish_cond1,001,1049,
images/corn01.jpg,corn,z,sounds/greatgatsby_english.wav,,,,,,,,,0,1,1,0,0,38,38,22,670.189738958,9.30088572204e-06,670.939143699,0.74941436213,,,,,x,0,0.733754483634,2018_Nov_26_1232,59.9844554442,spanish_cond1,001,1049,
images/dragonfly02.jpg,dragon fly,z,sounds/greatgatsby_english.wav,,,,,,,,,0,1,1,0,0,39,39,29,672.036175163,9.62160993367e-06,672.822958093,0.786793193431,,,,,z,1,0.767089655739,2018_Nov_26_1232,59.9844554442,spanish_cond1,001,1049,
images/hairband.jpg,hairband,z,sounds/greatgatsby_english.wav,,,,,,,,,0,1,1,0,0,40,40,66,673.932011169,8.98016151041e-06,674.540057499,0.608055951772,,,,,z,1,0.583714778302,2018_Nov_26_1232,59.9844554442,spanish_cond1,001,1049,
images/bottleofredwine02.jpg,pipe,x,sounds/greatgatsby_english.wav,,,,,,,,,0,1,1,0,0,41,41,213,675.63899405,1.12253474072e-05,676.473890046,0.834907542448,,,,,x,1,0.817119354615,2018_Nov_26_1232,59.9844554442,spanish_cond1,001,1049,
images/leaf01a.jpg,leaf,z,sounds/greatgatsby_english.wav,,,,,,,,,0,1,1,0,0,42,42,68,677.576943381,8.98027792573e-06,678.257505529,0.68057176983,,,,,z,1,0.666914477595,2018_Nov_26_1232,59.9844554442,spanish_cond1,001,1049,
images/tape01a.jpg,tie,x,sounds/greatgatsby_english.wav,,,,,,,,,0,1,1,0,0,43,43,232,679.381402567,8.98016151041e-06,680.22484259,0.843449644162,,,,,x,1,0.833790468634,2018_Nov_26_1232,59.9844554442,spanish_cond1,001,1049,
images/treadmill.jpg,lily,x,sounds/greatgatsby_english.wav,,,,,,,,,0,1,1,0,0,44,44,199,681.329968749,9.94233414531e-06,682.30868726,0.978728774586,,,,,x,1,0.967137571657,2018_Nov_26_1232,59.9844554442,spanish_cond1,001,1049,
images/daisy.jpg,daisy,z,sounds/greatgatsby_english.wav,,,,,,,,,0,1,1,0,0,45,45,6,683.410586959,9.30100213736e-06,684.159157182,0.748580165091,,,,,z,1,0.733751276508,2018_Nov_26_1232,59.9844554442,spanish_cond1,001,1049,
images/pineapple01a.jpg,pineapple,z,sounds/greatgatsby_english.wav,,,,,,,,,0,1,1,0,0,46,46,51,685.272840837,9.30100213736e-06,685.892938606,0.620109314797,,,,,z,1,0.600382685079,2018_Nov_26_1232,59.9844554442,spanish_cond1,001,1049,
images/grandpiano.jpg,tulip,x,sounds/greatgatsby_english.wav,,,,,,,,,0,1,1,0,0,47,47,236,687.007711112,8.98016151041e-06,687.976809576,0.969108727179,,,,,x,1,0.950498850551,2018_Nov_26_1232,59.9844554442,spanish_cond1,001,1049,
images/pingpongpaddle01c (1).jpg,ping pong paddle,z,sounds/greatgatsby_english.wav,,,,,,,,,0,1,1,0,0,48,48,10,689.088885454,9.30088572204e-06,690.143998591,1.05512275943,,,,,z,1,1.03382555558,2018_Nov_26_1232,59.9844554442,spanish_cond1,001,1049,
images/radio03a.jpg,radio,z,sounds/greatgatsby_english.wav,,,,,,,,,0,1,1,0,0,49,49,37,691.258036644,8.65943729877e-06,691.961129813,0.703102469328,,,,,z,1,0.683733765152,2018_Nov_26_1232,59.9844554442,spanish_cond1,001,1049,
images/ant.jpg,ant,z,sounds/greatgatsby_english.wav,,,,,,,,,0,1,1,0,0,50,50,98,693.055523341,9.62160993367e-06,693.678244613,0.62273185607,,,,,z,1,0.600395834772,2018_Nov_26_1232,59.9844554442,spanish_cond1,001,1049,
images/pepper05a.jpg,lighter,x,sounds/greatgatsby_english.wav,,,,,,,,,0,1,1,0,0,51,51,198,694.798784016,9.30088572204e-06,695.512062022,0.713287949096,,,,,x,1,0.700401671813,2018_Nov_26_1232,59.9844554442,spanish_cond1,001,1049,
images/drink.jpg,drink,z,sounds/greatgatsby_english.wav,,,,,,,,,0,1,1,0,0,52,52,117,696.612284026,9.30088572204e-06,697.179121146,0.566847061855,,,,,z,1,0.550380889094,2018_Nov_26_1232,59.9844554442,spanish_cond1,001,1049,
images/toucan.jpg,toucan,z,sounds/greatgatsby_english.wav,,,,,,,,,0,1,1,0,0,53,53,81,698.279601009,9.62160993367e-06,698.946240628,0.666649561492,,,,,z,1,0.650400838,2018_Nov_26_1232,59.9844554442,spanish_cond1,001,1049,
images/barrel01.jpg,barrel,z,sounds/greatgatsby_english.wav,,,,,,,,,0,1,1,0,0,54,54,9,700.076209891,9.30100213736e-06,700.963422973,0.887223024853,,,,,z,1,0.867126923637,2018_Nov_26_1232,59.9844554442,spanish_cond1,001,1049,
images/safe.jpg,safe,z,sounds/greatgatsby_english.wav,,,,,,,,,0,1,1,0,0,55,55,78,702.07388113,9.62160993367e-06,702.680512757,0.606641248451,,,,,z,1,0.583712853957,2018_Nov_26_1232,59.9844554442,spanish_cond1,001,1049,
images/lock02a.jpg,lock,z,sounds/greatgatsby_english.wav,,,,,,,,,0,1,1,0,0,56,56,65,703.790851927,8.98027792573e-06,704.514307395,0.723465410876,,,,,z,1,0.700410972815,2018_Nov_26_1232,59.9844554442,spanish_cond1,001,1049,
images/diaper01a.jpg,camera,x,sounds/greatgatsby_english.wav,,,,,,,,,0,1,1,0,0,57,57,143,705.634447499,9.30088572204e-06,706.381451958,0.747013760265,,,,,x,1,0.733755766647,2018_Nov_26_1232,59.9844554442,spanish_cond1,001,1049,
images/ear.jpg,bullet,x,sounds/greatgatsby_english.wav,,,,,,,,,0,1,1,0,0,58,58,139,707.48521954,9.30100213736e-06,708.331938942,0.846729344339,,,,,x,1,0.833774753264,2018_Nov_26_1232,59.9844554442,spanish_cond1,001,1049,
images/banjo.jpg,knife,x,sounds/greatgatsby_english.wav,,,,,,,,,0,1,1,0,0,59,59,191,709.428479381,8.98016151041e-06,710.399185624,0.970716825803,,,,,x,1,0.950528036221,2018_Nov_26_1232,59.9844554442,spanish_cond1,001,1049,
images/tent.jpg,tent,z,sounds/greatgatsby_english.wav,,,,,,,,,0,1,1,0,0,60,60,11,711.525673131,9.30088572204e-06,712.449671068,0.924007879454,,,,,z,1,0.900481659803,2018_Nov_26_1232,59.9844554442,spanish_cond1,001,1049,
images/feather03b.jpg,feather,z,sounds/greatgatsby_english.wav,,,,,,,,,0,1,1,0,0,61,61,114,713.55099892,9.30088572204e-06,714.35012707,0.799138092436,,,,,z,1,0.783757562633,2018_Nov_26_1232,59.9844554442,spanish_cond1,001,1049,
images/lychee02a.jpg,lychee,z,sounds/greatgatsby_english.wav,,,,,,,,,0,1,1,0,0,62,62,62,715.47397183,8.98016151041e-06,716.36731647,0.89335426141,,,,,z,1,0.883799320552,2018_Nov_26_1232,59.9844554442,spanish_cond1,001,1049,
images/toothbrush03a.jpg,parrot,x,sounds/greatgatsby_english.wav,,,,,,,,,0,1,1,0,0,63,63,210,717.459661549,9.62160993367e-06,718.284510617,0.824859652203,,,,,x,1,0.800478388439,2018_Nov_26_1232,59.9844554442,spanish_cond1,001,1049,
images/lantern03.jpg,lantern,z,sounds/greatgatsby_english.wav,,,,,,,,,0,1,1,0,0,64,64,5,719.390898495,9.30100213736e-06,720.334978743,0.944089868804,,,,,z,1,0.933791815653,2018_Nov_26_1232,59.9844554442,spanish_cond1,001,1049,
images/umbrella01.jpg,umbrella,z,sounds/greatgatsby_english.wav,,,,,,,,,0,1,1,0,0,65,65,53,721.447554625,8.98027792573e-06,722.63558125,1.18803656742,,,,,z,1,1.16721467313,2018_Nov_26_1232,59.9844554442,spanish_cond1,001,1049,
images/knife04.jpg,tooth brush,x,sounds/greatgatsby_english.wav,,,,,,,,,0,1,1,0,0,66,66,233,723.732589622,8.98027792573e-06,725.486291713,1.75371139159,,,,,x,1,1.73401009897,2018_Nov_26_1232,59.9844554442,spanish_cond1,001,1049,
images/cupcake.jpg,scissors,x,sounds/greatgatsby_english.wav,,,,,,,,,0,1,1,0,0,67,67,219,726.605171702,8.98016151041e-06,727.670190008,1.06502824917,,,,,x,1,1.05051912018,2018_Nov_26_1232,59.9844554442,spanish_cond1,001,1049,
images/battery03b.jpg,battery,z,sounds/greatgatsby_english.wav,,,,,,,,,0,1,1,0,0,68,68,34,728.780505765,9.62160993367e-06,729.687353751,0.906858569477,,,,,z,1,0.88380092429,2018_Nov_26_1232,59.9844554442,spanish_cond1,001,1049,
images/teapot.jpg,light switch,x,sounds/greatgatsby_english.wav,,,,,,,,,0,1,1,0,0,69,69,197,730.804070151,9.30100213736e-06,731.671182321,0.86712211289,,,,,x,1,0.85044939525,2018_Nov_26_1232,59.9844554442,spanish_cond1,001,1049,
images/raisin.jpg,ruler,x,sounds/greatgatsby_english.wav,,,,,,,,,0,1,1,0,0,70,70,218,732.776149082,9.30088572204e-06,733.638181662,0.862042843248,,,,,x,1,0.850283261389,2018_Nov_26_1232,59.9844554442,spanish_cond1,001,1049,
images/globe.jpg,cloud,x,sounds/greatgatsby_english.wav,,,,,,,,,0,1,1,0,0,71,71,154,734.765827616,8.98016151041e-06,735.438798602,0.672980607837,,,,,x,1,0.650399875827,2018_Nov_26_1232,59.9844554442,spanish_cond1,001,1049,
images/cocktailshrimp01.jpg,cocktail shrimp,z,sounds/greatgatsby_english.wav,,,,,,,,,0,1,1,0,0,72,72,30,736.554692992,9.621726349e-06,737.339276093,0.784593042685,,,,,x,0,0.767085165717,2018_Nov_26_1232,59.9844554442,spanish_cond1,001,1049,
images/cockroach02.jpg,belt,x,sounds/greatgatsby_english.wav,,,,,,,,,0,1,1,0,0,73,73,129,738.437521488,9.30088572204e-06,739.573181316,1.13567009021,,,,,x,1,1.11718529498,2018_Nov_26_1232,59.9844554442,spanish_cond1,001,1049,
images/basketball01.jpg,basket ball,z,sounds/greatgatsby_english.wav,,,,,,,,,0,1,1,0,0,74,74,33,740.712319049,9.621726349e-06,741.390310613,0.678001826862,,,,,z,1,0.667071952019,2018_Nov_26_1232,59.9844554442,spanish_cond1,001,1049,
images/dreamcatcher.jpg,dream catcher,z,sounds/greatgatsby_english.wav,,,,,,,,,0,1,1,0,0,75,75,48,742.488721821,8.98016151041e-06,744.574453939,2.08574141876,,,,,z,1,2.06743269984,2018_Nov_26_1232,59.9844554442,spanish_cond1,001,1049,
images/handbag02a.jpg,candle,x,sounds/greatgatsby_english.wav,,,,,,,,,0,1,1,0,0,76,76,144,745.691819801,9.62160993367e-06,746.341400874,0.649591336376,,,,,x,1,0.633570325212,2018_Nov_26_1232,59.9844554442,spanish_cond1,001,1049,
images/candle08a.jpg,screw driver,x,sounds/greatgatsby_english.wav,,,,,,,,,0,1,1,0,0,77,77,221,747.454640971,1.02630583569e-05,748.225386213,0.770755825564,,,,,x,1,0.75043906807,2018_Nov_26_1232,59.9844554442,spanish_cond1,001,1049,
images/marker01a.jpg,marker,z,sounds/greatgatsby_english.wav,,,,,,,,,0,1,1,0,0,78,78,95,749.32433431,9.30088572204e-06,750.642649636,1.31832526822,,,,,z,1,1.30056273832,2018_Nov_26_1232,59.9844554442,spanish_cond1,001,1049,
images/honeycomb.jpg,honey comb,z,sounds/greatgatsby_english.wav,,,,,,,,,0,1,1,0,0,79,79,59,751.755765614,9.62160993367e-06,752.443094349,0.687338677002,,,,,z,1,0.667061047396,2018_Nov_26_1232,59.9844554442,spanish_cond1,001,1049,
images/headphones02b.jpg,headphones,z,sounds/greatgatsby_english.wav,,,,,,,,,0,1,1,0,0,80,80,101,753.550815467,8.98027792573e-06,754.693678704,1.14287317893,,,,,z,1,1.13384839101,2018_Nov_26_1232,59.9844554442,spanish_cond1,001,1049,
images/screwdriver02b.jpg,cola,x,sounds/greatgatsby_english.wav,,,,,,,,,0,1,1,0,0,81,81,158,755.786977929,9.30088572204e-06,756.410772016,0.623803708004,,,,,x,1,0.600384930149,2018_Nov_26_1232,59.9844554442,spanish_cond1,001,1049,
images/crocodile.jpg,triangle ruler,x,sounds/greatgatsby_english.wav,,,,,,,,,0,1,1,0,0,82,82,235,757.507788085,9.62160993367e-06,758.461301078,0.953522935393,,,,,x,1,0.933816190576,2018_Nov_26_1232,59.9844554442,spanish_cond1,001,1049,
images/hairpin.jpg,hair pin,z,sounds/greatgatsby_english.wav,,,,,,,,,0,1,1,0,0,83,83,28,759.55215448,9.30100213736e-06,760.061707817,0.509562958963,,,,,x,0,0.500372357899,2018_Nov_26_1232,59.9844554442,spanish_cond1,001,1049,
images/rubberglove02a.jpg,lady bug,x,sounds/greatgatsby_english.wav,,,,,,,,,0,1,1,0,0,84,84,192,761.166099845,9.30088572204e-06,762.012200254,0.846110351267,,,,,x,1,0.833770263125,2018_Nov_26_1232,59.9844554442,spanish_cond1,001,1049,
images/gamecontroller01.jpg,game controller,z,sounds/greatgatsby_english.wav,,,,,,,,,0,1,1,0,0,85,85,112,763.132034389,9.621726349e-06,763.829331154,0.697306707501,,,,,x,0,0.683749159682,2018_Nov_26_1232,59.9844554442,spanish_cond1,001,1049,
images/antelope.jpg,antelope,z,sounds/greatgatsby_english.wav,,,,,,,,,0,1,1,0,0,86,86,12,764.93274498,9.30100213736e-06,765.763170757,0.83043571969,,,,,z,1,0.81713699433,2018_Nov_26_1232,59.9844554442,spanish_cond1,001,1049,
images/showerhead01.jpg,skateboard,x,sounds/greatgatsby_english.wav,,,,,,,,,0,1,1,0,0,87,87,223,766.870521442,1.05837825686e-05,767.780176384,0.909666167106,,,,,x,1,0.900311035919,2018_Nov_26_1232,59.9844554442,spanish_cond1,001,1049,
images/screw03c.jpg,screw,z,sounds/greatgatsby_english.wav,,,,,,,,,0,1,1,0,0,88,88,84,768.874635339,9.94233414531e-06,770.080936687,1.20631161064,,,,,z,1,1.18390535121,2018_Nov_26_1232,59.9844554442,spanish_cond1,001,1049,
images/desktopcomputer.jpg,desktop computer,z,sounds/greatgatsby_english.wav,,,,,,,,,0,1,1,0,0,89,89,16,771.216378744,9.621726349e-06,771.831351701,0.614982578438,,,,,z,1,0.600393910427,2018_Nov_26_1232,59.9844554442,spanish_cond1,001,1049,
images/carrot02.jpg,corkscrew,x,sounds/greatgatsby_english.wav,,,,,,,,,0,1,1,0,0,90,90,161,772.933315223,9.30088572204e-06,773.948574841,1.01526988088,,,,,x,1,1.00051058899,2018_Nov_26_1232,59.9844554442,spanish_cond1,001,1049,
images/arrow02.jpg,hammer,x,sounds/greatgatsby_english.wav,,,,,,,,,0,1,1,0,0,91,91,184,775.044986671,9.94245056063e-06,776.749290884,1.70431447658,,,,,x,1,1.68402177317,2018_Nov_26_1232,59.9844554442,spanish_cond1,001,1049,
images/leek.jpg,donut,x,sounds/greatgatsby_english.wav,,,,,,,,,0,1,1,0,0,92,92,169,777.850448433,9.30088572204e-06,778.599719753,0.749281583354,,,,,x,1,0.733744541416,2018_Nov_26_1232,59.9844554442,spanish_cond1,001,1049,
images/lighter02b.jpg,stapler,x,sounds/greatgatsby_english.wav,,,,,,,,,0,1,1,0,0,93,93,227,779.701439207,9.94233414531e-06,780.450206673,0.748777729576,,,,,x,1,0.733757049427,2018_Nov_26_1232,59.9844554442,spanish_cond1,001,1049,
images/bicycle.jpg,hand bag,x,sounds/greatgatsby_english.wav,,,,,,,,,0,1,1,0,0,94,94,186,781.560495169,9.621726349e-06,782.33400439,0.773518843111,,,,,x,1,0.750428805011,2018_Nov_26_1232,59.9844554442,spanish_cond1,001,1049,
images/flipflop01b.jpg,flip flop,z,sounds/greatgatsby_english.wav,,,,,,,,,0,1,1,0,0,95,95,27,783.451156972,9.94233414531e-06,784.284499713,0.833352683578,,,,,z,1,0.817106846604,2018_Nov_26_1232,59.9844554442,spanish_cond1,001,1049,
images/table02.jpg,table,z,sounds/greatgatsby_english.wav,,,,,,,,,0,1,1,0,0,96,96,49,785.398740141,9.30088572204e-06,786.151637541,0.752907342161,,,,,z,1,0.733753521461,2018_Nov_26_1232,59.9844554442,spanish_cond1,001,1049,
images/lip.jpg,boxing glove,x,sounds/greatgatsby_english.wav,,,,,,,,,0,1,1,0,0,97,97,136,787.253967969,9.30088572204e-06,788.018793329,0.764835623675,,,,,x,1,0.750441954471,2018_Nov_26_1232,59.9844554442,spanish_cond1,001,1049,
images/licenseplate.jpg,license plate,z,sounds/greatgatsby_english.wav,,,,,,,,,0,1,1,0,0,98,98,40,789.137268888,9.30100213736e-06,790.26936678,1.13210783433,,,,,z,1,1.11720999051,2018_Nov_26_1232,59.9844554442,spanish_cond1,001,1049,
images/cookingpot.jpg,grasshopper,x,sounds/greatgatsby_english.wav,,,,,,,,,0,1,1,0,0,99,99,183,791.38281246,1.02630583569e-05,792.036456756,0.653654880356,,,,,x,1,0.633733572671,2018_Nov_26_1232,59.9844554442,spanish_cond1,001,1049,
images/paintbrush03a.jpg,paint brush,z,sounds/greatgatsby_english.wav,,,,,,,,,0,1,1,0,0,100,100,0,793.137008783,8.98016151041e-06,794.153650711,1.01665219141,,,,,z,1,1.00048557261,2018_Nov_26_1232,59.9844554442,spanish_cond1,001,1049,
images/banana04a.jpg,banana,z,sounds/greatgatsby_english.wav,,,,,,,,,0,1,1,0,0,101,101,118,795.259471874,9.621726349e-06,795.870790848,0.611329558305,,,,,z,1,0.600412512315,2018_Nov_26_1232,59.9844554442,spanish_cond1,001,1049,
images/doorhandle.jpg,doll,x,sounds/greatgatsby_english.wav,,,,,,,,,0,1,1,0,0,102,102,168,796.974902565,9.94245056063e-06,797.787922775,0.813030153047,,,,,x,1,0.800425790134,2018_Nov_26_1232,59.9844554442,spanish_cond1,001,1049,
images/magnifyingglass01b.jpg,magnifying glass,z,sounds/greatgatsby_english.wav,,,,,,,,,0,1,1,0,0,103,103,64,798.895990273,9.30088572204e-06,799.871798235,0.975817904458,,,,,z,1,0.967170606018,2018_Nov_26_1232,59.9844554442,spanish_cond1,001,1049,
images/ruler02b.jpg,watermelon,x,sounds/greatgatsby_english.wav,,,,,,,,,0,1,1,0,0,104,104,238,800.973907365,8.98016151041e-06,802.139033819,1.16513607581,,,,,x,1,1.15054099332,2018_Nov_26_1232,59.9844554442,spanish_cond1,001,1049,
images/birthdaycandle.jpg,birthday candle,z,sounds/greatgatsby_english.wav,,,,,,,,,0,1,1,0,0,105,105,55,803.235156358,8.98016151041e-06,804.072841671,0.837695255294,,,,,z,1,0.817093055462,2018_Nov_26_1232,59.9844554442,spanish_cond1,001,1049,
images/highheelshoe02a.jpg,high heel shoe,z,sounds/greatgatsby_english.wav,,,,,,,,,0,1,1,0,0,106,106,75,805.179243661,9.94233414531e-06,805.989990276,0.810757518979,,,,,z,1,0.800434770412,2018_Nov_26_1232,59.9844554442,spanish_cond1,001,1049,
images/worldmap.jpg,scooter,x,sounds/greatgatsby_english.wav,,,,,,,,,0,1,1,0,0,107,107,220,807.120862369,9.30088572204e-06,807.8237878,0.70293505257,,,,,x,1,0.683743066038,2018_Nov_26_1232,59.9844554442,spanish_cond1,001,1049,
images/spoon02b.jpg,spoon,z,sounds/greatgatsby_english.wav,,,,,,,,,0,1,1,0,0,108,108,38,808.914890403,9.30088572204e-06,809.590900227,0.676019766717,,,,,z,1,0.667067141156,2018_Nov_26_1232,59.9844554442,spanish_cond1,001,1049,
images/squirrel.jpg,binder,x,sounds/greatgatsby_english.wav,,,,,,,,,0,1,1,0,0,109,109,132,810.695324968,8.6595537141e-06,811.441207543,0.745892196428,,,,,x,1,0.733590274234,2018_Nov_26_1232,59.9844554442,spanish_cond1,001,1049,
images/radish01.jpg,raisin,x,sounds/greatgatsby_english.wav,,,,,,,,,0,1,1,0,0,110,110,214,812.552108617,8.98027792573e-06,813.258501049,0.706402374897,,,,,z,0,0.683743707486,2018_Nov_26_1232,59.9844554442,spanish_cond1,001,1049,
images/swan.jpg,swan,z,sounds/greatgatsby_english.wav,,,,,,,,,0,1,1,0,0,111,111,54,814.350312126,1.02630583569e-05,815.092287349,0.741985164699,,,,,z,1,0.733737806091,2018_Nov_26_1232,59.9844554442,spanish_cond1,001,1049,
images/hanger02a.jpg,hanger,z,sounds/greatgatsby_english.wav,,,,,,,,,0,1,1,0,0,112,112,88,816.186000947,9.30100213736e-06,816.792719489,0.606728484738,,,,,z,1,0.583715099026,2018_Nov_26_1232,59.9844554442,spanish_cond1,001,1049,
images/plant01.jpg,plant,z,sounds/greatgatsby_english.wav,,,,,,,,,0,1,1,0,0,113,113,47,817.905037832,9.30100213736e-06,818.659866939,0.754838407622,,,,,z,1,0.733758653048,2018_Nov_26_1232,59.9844554442,spanish_cond1,001,1049,
images/computerkeyboard01a.jpg,computer keyboard,z,sounds/greatgatsby_english.wav,,,,,,,,,0,1,1,0,0,114,114,61,819.777168656,9.30100213736e-06,820.360303569,0.583145176643,,,,,z,1,0.567059058929,2018_Nov_26_1232,59.9844554442,spanish_cond1,001,1049,
images/volleyball.jpg,volley ball,z,sounds/greatgatsby_english.wav,,,,,,,,,0,1,1,0,0,115,115,2,821.492939633,9.94245056063e-06,822.510837828,1.01790877909,,,,,z,1,1.00048910058,2018_Nov_26_1232,59.9844554442,spanish_cond1,001,1049,
images/donut.jpg,rhinoceros,x,sounds/greatgatsby_english.wav,,,,,,,,,0,1,1,0,0,116,116,216,823.636462594,9.30088572204e-06,824.544971597,0.90852536005,,,,,x,1,0.884037616896,2018_Nov_26_1232,59.9844554442,spanish_cond1,001,1049,
images/sunglasses03a.jpg,sun glasses,z,sounds/greatgatsby_english.wav,,,,,,,,,0,1,1,0,0,117,117,17,825.652964687,8.98016151041e-06,826.528525309,0.875570563949,,,,,z,1,0.867121150601,2018_Nov_26_1232,59.9844554442,spanish_cond1,001,1049,
images/scissors04a.jpg,leek,x,sounds/greatgatsby_english.wav,,,,,,,,,0,1,1,0,0,118,118,194,827.623749185,9.62160993367e-06,829.045843318,1.42210471688,,,,,x,1,1.40059936477,2018_Nov_26_1232,59.9844554442,spanish_cond1,001,1049,
images/graduationcap.jpg,graduation cap,z,sounds/greatgatsby_english.wav,,,,,,,,,0,1,1,0,0,119,119,35,830.148518843,9.30088572204e-06,831.796536398,1.64802781807,,,,,x,0,1.6339882256,2018_Nov_26_1232,59.9844554442,spanish_cond1,001,1049,
images/giraffe.jpg,lettuce,x,sounds/greatgatsby_english.wav,,,,,,,,,0,1,1,0,0,120,120,195,832.897294969,9.94245056063e-06,833.680201336,0.782917592558,,,,,x,1,0.76696425362,2018_Nov_26_1232,59.9844554442,spanish_cond1,001,1049,
images/blackolive.jpg,tank,x,sounds/greatgatsby_english.wav,,,,,,,,,0,1,1,0,0,121,121,229,834.795332409,9.62160993367e-06,835.647483553,0.852161086979,,,,,x,1,0.833765773103,2018_Nov_26_1232,59.9844554442,spanish_cond1,001,1049,
images/corkscrew02a.jpg,masquerade mask,x,sounds/greatgatsby_english.wav,,,,,,,,,0,1,1,0,0,122,122,201,836.751424004,9.30088572204e-06,837.531305966,0.779892224586,,,,,x,1,0.766994080739,2018_Nov_26_1232,59.9844554442,spanish_cond1,001,1049,
images/baseball01a.jpg,baseball,z,sounds/greatgatsby_english.wav,,,,,,,,,0,1,1,0,0,123,123,74,838.664472182,8.98016151041e-06,839.365115036,0.700652476284,,,,,z,1,0.683747235336,2018_Nov_26_1232,59.9844554442,spanish_cond1,001,1049,
images/dryingmachine01.jpg,drying machine,z,sounds/greatgatsby_english.wav,,,,,,,,,0,1,1,0,0,124,124,18,840.486013968,9.62160993367e-06,841.115582007,0.629577981541,,,,,z,1,0.617094851565,2018_Nov_26_1232,59.9844554442,spanish_cond1,001,1049,
images/orange.jpg,bat,x,sounds/greatgatsby_english.wav,,,,,,,,,0,1,1,0,0,125,125,128,842.240420043,9.62160993367e-06,843.19940551,0.958995409776,,,,,x,1,0.950476399972,2018_Nov_26_1232,59.9844554442,spanish_cond1,001,1049,
images/thumbtack02a.jpg,thumb tack,z,sounds/greatgatsby_english.wav,,,,,,,,,0,1,1,0,0,126,126,60,844.309201377,9.30100213736e-06,845.299932841,0.990741405985,,,,,z,1,0.967143344693,2018_Nov_26_1232,59.9844554442,spanish_cond1,001,1049,
images/glasses01b.jpg,calculator,x,sounds/greatgatsby_english.wav,,,,,,,,,0,1,1,0,0,127,127,142,846.392513971,9.30088572204e-06,847.283784824,0.891281116405,,,,,x,1,0.867124357959,2018_Nov_26_1232,59.9844554442,spanish_cond1,001,1049,
images/handfan01b.jpg,handfan,z,sounds/greatgatsby_english.wav,,,,,,,,,0,1,1,0,0,128,128,69,848.398302035,9.30100213736e-06,849.350969606,0.952677192399,,,,,z,1,0.933794702287,2018_Nov_26_1232,59.9844554442,spanish_cond1,001,1049,
images/djmixer01.jpg,light bulb,x,sounds/greatgatsby_english.wav,,,,,,,,,0,1,1,0,0,129,129,196,850.472463156,9.621726349e-06,851.73489946,1.26244592632,,,,,x,1,1.2505041745,2018_Nov_26_1232,59.9844554442,spanish_cond1,001,1049,
images/tissuebox03.jpg,tissue box,z,sounds/greatgatsby_english.wav,,,,,,,,,0,1,1,0,0,130,130,58,852.860469703,8.65943729877e-06,853.818762412,0.95830265095,,,,,z,1,0.933807531139,2018_Nov_26_1232,59.9844554442,spanish_cond1,001,1049,
images/eraser.jpg,eraser,z,sounds/greatgatsby_english.wav,,,,,,,,,0,1,1,0,0,131,131,110,854.925481596,9.62160993367e-06,855.952630688,1.02715903427,,,,,z,1,1.01715732808,2018_Nov_26_1232,59.9844554442,spanish_cond1,001,1049,
images/nailclipper03a.jpg,aquarium,x,sounds/greatgatsby_english.wav,,,,,,,,,0,1,1,0,0,132,132,123,857.051930296,8.98027792573e-06,858.18653559,1.13461523666,,,,,x,1,1.11718850222,2018_Nov_26_1232,59.9844554442,spanish_cond1,001,1049,
images/lightswitch02a.jpg,fork,x,sounds/greatgatsby_english.wav,,,,,,,,,0,1,1,0,0,133,133,177,859.298128781,9.62160993367e-06,860.320426637,1.02230811864,,,,,x,1,1.00050802319,2018_Nov_26_1232,59.9844554442,spanish_cond1,001,1049,
images/tulip02.jpg,sport shorts,x,sounds/greatgatsby_english.wav,,,,,,,,,0,1,1,0,0,134,134,225,861.414397133,9.30088572204e-06,862.654344111,1.23995724134,,,,,x,1,1.21722737374,2018_Nov_26_1232,59.9844554442,spanish_cond1,001,1049,
images/hand01a.jpg,cupcake,x,sounds/greatgatsby_english.wav,,,,,,,,,0,1,1,0,0,135,135,163,863.765545702,9.62160993367e-06,864.454781447,0.689246008988,,,,,x,1,0.667066820432,2018_Nov_26_1232,59.9844554442,spanish_cond1,001,1049,
images/cake.jpg,cake,z,sounds/greatgatsby_english.wav,,,,,,,,,0,1,1,0,0,136,136,23,865.568621294,1.05837825686e-05,866.038531826,0.469920794596,,,,,x,0,0.450367354555,2018_Nov_26_1232,59.9844554442,spanish_cond1,001,1049,
images/computermouse02a.jpg,world map,x,sounds/greatgatsby_english.wav,,,,,,,,,0,1,1,0,0,137,137,239,867.139946914,8.98027792573e-06,867.772289837,0.632352865767,,,,,x,1,0.617060213583,2018_Nov_26_1232,59.9844554442,spanish_cond1,001,1049,
images/ceilingfan02.jpg,paper clip,x,sounds/greatgatsby_english.wav,,,,,,,,,0,1,1,0,0,138,138,208,868.870257809,9.30100213736e-06,869.589419135,0.719171588658,,,,,x,1,0.70041642501,2018_Nov_26_1232,59.9844554442,spanish_cond1,001,1049,
images/fryingpan01.jpg,frying pan,z,sounds/greatgatsby_english.wav,,,,,,,,,0,1,1,0,0,139,139,45,870.689738317,9.62160993367e-06,871.856658888,1.16693019297,,,,,z,1,1.15052976809,2018_Nov_26_1232,59.9844554442,spanish_cond1,001,1049,
images/camera01a.jpg,bull,x,sounds/greatgatsby_english.wav,,,,,,,,,0,1,1,0,0,140,140,138,872.967308516,9.62160993367e-06,873.923843028,0.95654381311,,,,,x,1,0.933799513034,2018_Nov_26_1232,59.9844554442,spanish_cond1,001,1049,
images/razor04a.jpg,razor,z,sounds/greatgatsby_english.wav,,,,,,,,,0,1,1,0,0,141,141,36,875.023156748,9.621726349e-06,876.041045643,1.01789851603,,,,,z,1,1.00047947885,2018_Nov_26_1232,59.9844554442,spanish_cond1,001,1049,
images/bull.jpg,button,x,sounds/greatgatsby_english.wav,,,,,,,,,0,1,1,0,0,142,142,141,877.148133656,9.62160993367e-06,877.958200982,0.810077589005,,,,,x,1,0.800440543331,2018_Nov_26_1232,59.9844554442,spanish_cond1,001,1049,
images/rhinoceros01.jpg,envelope,x,sounds/greatgatsby_english.wav,,,,,,,,,0,1,1,0,0,143,143,173,879.070358323,9.30088572204e-06,879.992124999,0.921776618576,,,,,x,1,0.90052559867,2018_Nov_26_1232,59.9844554442,spanish_cond1,001,1049,
images/flashlight05.jpg,flash light,z,sounds/greatgatsby_english.wav,,,,,,,,,0,1,1,0,0,144,144,8,881.094507384,9.30088572204e-06,881.875860496,0.781362733687,,,,,z,1,0.767102163984,2018_Nov_26_1232,59.9844554442,spanish_cond1,001,1049,
images/belt02a.jpg,snowman,x,sounds/greatgatsby_english.wav,,,,,,,,,0,1,1,0,0,145,145,224,882.979139619,9.621726349e-06,884.092937131,1.1138084163,,,,,x,1,1.10036408331,2018_Nov_26_1232,59.9844554442,spanish_cond1,001,1049,
images/tie01.jpg,bench,x,sounds/greatgatsby_english.wav,,,,,,,,,0,1,1,0,0,146,146,130,885.191725508,8.98027792573e-06,886.476870192,1.28515494708,,,,,x,1,1.26706175297,2018_Nov_26_1232,59.9844554442,spanish_cond1,001,1049,
images/icecube02 (2).jpg,aloe,x,sounds/greatgatsby_english.wav,,,,,,,,,0,1,1,0,0,147,147,122,887.587340858,9.30088572204e-06,888.777626005,1.19029508962,,,,,x,1,1.16722044616,2018_Nov_26_1232,59.9844554442,spanish_cond1,001,1049,
images/beermug01b.jpg,beer mug,z,sounds/greatgatsby_english.wav,,,,,,,,,0,1,1,0,0,148,148,111,889.895005658,9.30088572204e-06,890.744761652,0.849765616586,,,,,z,1,0.83377090469,2018_Nov_26_1232,59.9844554442,spanish_cond1,001,1049,
images/triangleruler02.jpg,bottle of red wine,x,sounds/greatgatsby_english.wav,,,,,,,,,0,1,1,0,0,149,149,134,891.855955866,9.30088572204e-06,892.962004742,1.1060584971,,,,,x,1,1.08385333011,2018_Nov_26_1232,59.9844554442,spanish_cond1,001,1049,
images/apple06.jpg,apple,z,sounds/greatgatsby_english.wav,,,,,,,,,0,1,1,0,0,150,150,13,894.089095847,9.30088572204e-06,894.979172974,0.890086748754,,,,,z,1,0.867106718244,2018_Nov_26_1232,59.9844554442,spanish_cond1,001,1049,
images/puzzle.jpg,puzzle,z,sounds/greatgatsby_english.wav,,,,,,,,,0,1,1,0,0,151,151,57,896.100960626,9.30088572204e-06,896.996347942,0.895396617241,,,,,z,1,0.883789057494,2018_Nov_26_1232,59.9844554442,spanish_cond1,001,1049,
images/elbow.jpg,elbow,z,sounds/greatgatsby_english.wav,,,,,,,,,0,1,1,0,0,152,152,105,898.108052103,8.98027792573e-06,898.913501037,0.805458555114,,,,,z,1,0.783766863635,2018_Nov_26_1232,59.9844554442,spanish_cond1,001,1049,
images/gorilla.jpg,gorilla,z,sounds/greatgatsby_english.wav,,,,,,,,,0,1,1,0,0,153,153,80,900.024384471,8.98016151041e-06,900.613941837,0.589567307848,,,,,z,1,0.567058738205,2018_Nov_26_1232,59.9844554442,spanish_cond1,001,1049,
images/aquarium.jpg,computer mouse,x,sounds/greatgatsby_english.wav,,,,,,,,,0,1,1,0,0,154,154,159,901.748930714,9.621726349e-06,902.731138036,0.982217585319,,,,,x,1,0.967142703128,2018_Nov_26_1232,59.9844554442,spanish_cond1,001,1049,
images/peach01.jpg,peach,z,sounds/greatgatsby_english.wav,,,,,,,,,0,1,1,0,0,155,155,106,903.859732364,9.30100213736e-06,904.8483538,0.988631377928,,,,,z,1,0.96714238252,2018_Nov_26_1232,59.9844554442,spanish_cond1,001,1049,
images/apricot.jpg,apricot,z,sounds/greatgatsby_english.wav,,,,,,,,,0,1,1,0,0,156,156,32,905.965222863,9.621726349e-06,906.848848994,0.883636393934,,,,,z,1,0.86712948943,2018_Nov_26_1232,59.9844554442,spanish_cond1,001,1049,
images/blueberry02.jpg,blueberry,z,sounds/greatgatsby_english.wav,,,,,,,,,0,1,1,0,0,157,157,46,907.962130785,9.62160993367e-06,908.632626121,0.670505277812,,,,,z,1,0.650399875827,2018_Nov_26_1232,59.9844554442,spanish_cond1,001,1049,
images/highlighter03b.jpg,coin,x,sounds/greatgatsby_english.wav,,,,,,,,,0,1,1,0,0,158,158,156,909.73699698,9.62160993367e-06,910.483093476,0.746107400744,,,,,x,1,0.733752559405,2018_Nov_26_1232,59.9844554442,spanish_cond1,001,1049,
images/parkbench03.jpg,park bench,z,sounds/greatgatsby_english.wav,,,,,,,,,0,1,1,0,0,159,159,71,911.588543885,9.62160993367e-06,913.700588332,2.11205438932,,,,,z,1,2.10076338169,2018_Nov_26_1232,59.9844554442,spanish_cond1,001,1049,
images/binder03b.jpg,dj mixer,x,sounds/greatgatsby_english.wav,,,,,,,,,0,1,1,0,0,160,160,167,914.81365556,8.98016151041e-06,915.667755089,0.85410915059,,,,,x,1,0.833795279381,2018_Nov_26_1232,59.9844554442,spanish_cond1,001,1049,
images/comb02a.jpg,diploma,x,sounds/greatgatsby_english.wav,,,,,,,,,0,1,1,0,0,161,161,166,916.773163163,9.30088572204e-06,918.085048339,1.31189479807,,,,,x,1,1.30058775458,2018_Nov_26_1232,59.9844554442,spanish_cond1,001,1049,
images/ladder.jpg,ladder,z,sounds/greatgatsby_english.wav,,,,,,,,,0,1,1,0,0,162,162,113,919.177377702,9.30100213736e-06,920.035522815,0.858154734131,,,,,z,1,0.83378662006,2018_Nov_26_1232,59.9844554442,spanish_cond1,001,1049,
images/pen03c.jpg,pepper,x,sounds/greatgatsby_english.wav,,,,,,,,,0,1,1,0,0,163,163,211,921.129922116,9.30100213736e-06,922.252745698,1.12283320422,,,,,x,1,1.10051835037,2018_Nov_26_1232,59.9844554442,spanish_cond1,001,1049,
images/diploma01.jpg,glasses,x,sounds/greatgatsby_english.wav,,,,,,,,,0,1,1,0,0,164,164,179,923.384139927,9.62160993367e-06,924.469987184,1.08585752,,,,,x,1,1.06718606479,2018_Nov_26_1232,59.9844554442,spanish_cond1,001,1049,
images/nailpolish02b.jpg,nail polish,z,sounds/greatgatsby_english.wav,,,,,,,,,0,1,1,0,0,165,165,94,925.579492798,8.98016151041e-06,926.537154968,0.957672112039,,,,,z,1,0.933801437379,2018_Nov_26_1232,59.9844554442,spanish_cond1,001,1049,
images/aloe02.jpg,broad sword,x,sounds/greatgatsby_english.wav,,,,,,,,,0,1,1,0,0,166,166,137,927.657785455,9.30088572204e-06,928.320950375,0.66317582468,,,,,x,1,0.650403724401,2018_Nov_26_1232,59.9844554442,spanish_cond1,001,1049,
images/microphone01.jpg,diaper,x,sounds/greatgatsby_english.wav,,,,,,,,,0,1,1,0,0,167,167,164,929.420346521,8.98016151041e-06,930.13806075,0.717723850859,,,,,x,1,0.700389163685,2018_Nov_26_1232,59.9844554442,spanish_cond1,001,1049,
images/eyedrops.jpg,bicycle,x,sounds/greatgatsby_english.wav,,,,,,,,,0,1,1,0,0,168,168,131,931.238618228,9.30088572204e-06,931.905190817,0.666581889265,,,,,x,1,0.650399234379,2018_Nov_26_1232,59.9844554442,spanish_cond1,001,1049,
images/hairdryer03a.jpg,hairdryer,z,sounds/greatgatsby_english.wav,,,,,,,,,0,1,1,0,0,169,169,119,933.004514158,9.30088572204e-06,933.755658814,0.751154277357,,,,,z,1,0.733757370152,2018_Nov_26_1232,59.9844554442,spanish_cond1,001,1049,
images/bowtie.jpg,bowtie,z,sounds/greatgatsby_english.wav,,,,,,,,,0,1,1,0,0,170,170,89,934.866087785,8.98016151041e-06,936.639716636,1.77363815147,,,,,z,1,1.75067062909,2018_Nov_26_1232,59.9844554442,spanish_cond1,001,1049,
images/mitten01.jpg,mitten,z,sounds/greatgatsby_english.wav,,,,,,,,,0,1,1,0,0,171,171,102,937.760125505,9.30088572204e-06,938.973666183,1.21355062013,,,,,z,1,1.20056299493,2018_Nov_26_1232,59.9844554442,spanish_cond1,001,1049,
images/candycane01a.jpg,lip,x,sounds/greatgatsby_english.wav,,,,,,,,,0,1,1,0,0,172,172,200,940.069143429,9.30088572204e-06,941.107510725,1.03837916232,,,,,x,1,1.01715989388,2018_Nov_26_1232,59.9844554442,spanish_cond1,001,1049,
images/remotecontrol01c.jpg,remote control,z,sounds/greatgatsby_english.wav,,,,,,,,,0,1,1,0,0,173,173,85,942.217459576,9.62160993367e-06,943.224725847,1.00727717532,,,,,z,1,0.983822155977,2018_Nov_26_1232,59.9844554442,spanish_cond1,001,1049,
images/fireextinguisher02.jpg,fire extinguisher,z,sounds/greatgatsby_english.wav,,,,,,,,,0,1,1,0,0,174,174,175,944.335732759,9.62160993367e-06,945.041855786,0.706132968655,,,,,z,1,0.683752366924,2018_Nov_26_1232,59.9844554442,spanish_cond1,001,1049,
images/lion.jpg,lion,z,sounds/greatgatsby_english.wav,,,,,,,,,0,1,1,0,0,175,175,44,946.154535582,9.30100213736e-06,946.792284591,0.637758950703,,,,,z,1,0.617060855031,2018_Nov_26_1232,59.9844554442,spanish_cond1,001,1049,
images/egg01b (1).jpg,egg,z,sounds/greatgatsby_english.wav,,,,,,,,,0,1,1,0,0,176,176,19,947.905088186,9.62160993367e-06,948.426036765,0.520959483925,,,,,z,1,0.500365622691,2018_Nov_26_1232,59.9844554442,spanish_cond1,001,1049,
images/key03b.jpg,cigar,x,sounds/greatgatsby_english.wav,,,,,,,,,0,1,1,0,0,177,177,153,949.528685349,1.02631747723e-05,950.376559028,0.847884904593,,,,,x,1,0.833810674143,2018_Nov_26_1232,59.9844554442,spanish_cond1,001,1049,
images/masquerademask02b.jpg,mirror,x,sounds/greatgatsby_english.wav,,,,,,,,,0,1,1,0,0,178,178,204,951.481356768,8.98027792573e-06,952.177010155,0.695663650171,,,,,z,0,0.683769685915,2018_Nov_26_1232,59.9844554442,spanish_cond1,001,1049,
images/coffeepot03b.jpg,coffee pot,z,sounds/greatgatsby_english.wav,,,,,,,,,0,1,1,0,0,179,179,107,953.298277596,9.62160993367e-06,954.160817558,0.862549904268,,,,,z,1,0.850453564664,2018_Nov_26_1232,59.9844554442,spanish_cond1,001,1049,
images/saltshaker03c.jpg,salt shaker,z,sounds/greatgatsby_english.wav,,,,,,,,,0,1,1,0,0,180,180,63,955.272593882,9.30088572204e-06,955.977950383,0.705365802394,,,,,z,1,0.683746914612,2018_Nov_26_1232,59.9844554442,spanish_cond1,001,1049,
images/dice05a.jpg,band aid,x,sounds/greatgatsby_english.wav,,,,,,,,,0,1,1,0,0,181,181,126,957.090362377,9.62160993367e-06,957.811743738,0.721391303581,,,,,x,1,0.700418028748,2018_Nov_26_1232,59.9844554442,spanish_cond1,001,1049,
images/hat05.jpg,hat,z,sounds/greatgatsby_english.wav,,,,,,,,,0,1,1,0,0,182,182,15,958.915467702,9.94233414531e-06,959.845619968,0.930162849603,,,,,z,1,0.917159829754,2018_Nov_26_1232,59.9844554442,spanish_cond1,001,1049,
images/acousticguitar02.jpg,acoustic guitar,z,sounds/greatgatsby_english.wav,,,,,,,,,0,1,1,0,0,183,183,97,960.959956613,9.30100213736e-06,961.862779862,0.902833512169,,,,,z,1,0.883803810691,2018_Nov_26_1232,59.9844554442,spanish_cond1,001,1049,
images/fork01.jpg,cooking pot,x,sounds/greatgatsby_english.wav,,,,,,,,,0,1,1,0,0,184,184,160,962.956857158,9.30088572204e-06,963.829939242,0.87309234729,,,,,x,1,0.850456130458,2018_Nov_26_1232,59.9844554442,spanish_cond1,001,1049,
images/cat.jpg,black olive,x,sounds/greatgatsby_english.wav,,,,,,,,,0,1,1,0,0,185,185,133,964.961493511,9.30088572204e-06,966.030527254,1.06904432632,,,,,x,1,1.0505396463,2018_Nov_26_1232,59.9844554442,spanish_cond1,001,1049,
images/cheetah.jpg,cheetah,z,sounds/greatgatsby_english.wav,,,,,,,,,0,1,1,0,0,186,186,82,967.134464497,9.62160993367e-06,967.930980369,0.796526134945,,,,,z,1,0.783717151615,2018_Nov_26_1232,59.9844554442,spanish_cond1,001,1049,
images/watermelon01.jpg,orange,x,sounds/greatgatsby_english.wav,,,,,,,,,0,1,1,0,0,187,187,207,969.06010902,1.02631747723e-05,969.731430855,0.671332098427,,,,,x,1,0.650404045125,2018_Nov_26_1232,59.9844554442,spanish_cond1,001,1049,
images/axe01.jpg,axe,z,sounds/greatgatsby_english.wav,,,,,,,,,0,1,1,0,0,188,188,104,970.835120502,9.621726349e-06,971.948679717,1.11356979934,,,,,z,1,1.10053246212,2018_Nov_26_1232,59.9844554442,spanish_cond1,001,1049,
images/ladybug03.jpg,giraffe,x,sounds/greatgatsby_english.wav,,,,,,,,,0,1,1,0,0,189,189,178,973.051848512,9.30088572204e-06,973.732442411,0.680603841902,,,,,x,1,0.667075800593,2018_Nov_26_1232,59.9844554442,spanish_cond1,001,1049,
images/ostrich.jpg,ostrich,z,sounds/greatgatsby_english.wav,,,,,,,,,0,1,1,0,0,190,190,76,974.832630418,9.30088572204e-06,975.999703012,1.1670825358,,,,,x,0,1.15054484201,2018_Nov_26_1232,59.9844554442,spanish_cond1,001,1049,
images/croissant02b.jpg,croissant,z,sounds/greatgatsby_english.wav,,,,,,,,,0,1,1,0,0,191,191,39,977.110879265,9.30088572204e-06,977.866819672,0.755950670457,,,,,z,1,0.733757049544,2018_Nov_26_1232,59.9844554442,spanish_cond1,001,1049,
images/panda.jpg,panda,z,sounds/greatgatsby_english.wav,,,,,,,,,0,1,1,0,0,192,192,83,978.976754733,9.94233414531e-06,979.683956346,0.707212197129,,,,,z,1,0.683758460684,2018_Nov_26_1232,59.9844554442,spanish_cond1,001,1049,
images/snowman.jpg,globe,x,sounds/greatgatsby_english.wav,,,,,,,,,0,1,1,0,0,193,193,180,980.796503043,9.94245056063e-06,981.601096932,0.804604793899,,,,,x,1,0.783772957278,2018_Nov_26_1232,59.9844554442,spanish_cond1,001,1049,
images/lightbulb03b.jpg,treadmill,x,sounds/greatgatsby_english.wav,,,,,,,,,0,1,1,0,0,194,194,234,982.703835318,9.30088572204e-06,985.11866286,2.41483812535,,,,,x,1,2.40085337637,2018_Nov_26_1232,59.9844554442,spanish_cond1,001,1049,
images/mushroom01.jpg,shower head,x,sounds/greatgatsby_english.wav,,,,,,,,,0,1,1,0,0,195,195,222,986.235572976,8.65943729877e-06,987.085825127,0.850262093707,,,,,x,1,0.833792713704,2018_Nov_26_1232,59.9844554442,spanish_cond1,001,1049,
images/flower01.jpg,bus,x,sounds/greatgatsby_english.wav,,,,,,,,,0,1,1,0,0,196,196,140,988.201386608,9.62160993367e-06,988.819593081,0.618216094561,,,,,x,1,0.600391344633,2018_Nov_26_1232,59.9844554442,spanish_cond1,001,1049,
images/dolphin01.jpg,dolphin,z,sounds/greatgatsby_english.wav,,,,,,,,,0,1,1,0,0,197,197,99,989.919818933,9.30100213736e-06,990.686723533,0.766914541833,,,,,z,1,0.750409240951,2018_Nov_26_1232,59.9844554442,spanish_cond1,001,1049,
images/wallet01.jpg,lamp,x,sounds/greatgatsby_english.wav,,,,,,,,,0,1,1,0,0,198,198,193,991.792827893,9.94245056063e-06,992.537193775,0.74437614507,,,,,x,1,0.733751597116,2018_Nov_26_1232,59.9844554442,spanish_cond1,001,1049,
images/grasshopper.jpg,cauliflower,x,sounds/greatgatsby_english.wav,,,,,,,,,0,1,1,0,0,199,199,148,993.630432063,9.62160993367e-06,994.537694101,0.907271979726,,,,,x,1,0.883782001678,2018_Nov_26_1232,59.9844554442,spanish_cond1,001,1049,
images/broadsword.jpg,teapot,x,sounds/greatgatsby_english.wav,,,,,,,,,0,1,1,0,0,200,200,231,995.630650154,8.98027792573e-06,996.388181341,0.757541129366,,,,,x,1,0.733767953934,2018_Nov_26_1232,59.9844554442,spanish_cond1,001,1049,
images/parkfountain.jpg,park fountain,z,sounds/greatgatsby_english.wav,,,,,,,,,0,1,1,0,0,201,201,93,997.510053342,9.94245056063e-06,998.655415643,1.14537192171,,,,,z,1,1.13386025769,2018_Nov_26_1232,59.9844554442,spanish_cond1,001,1049,
images/gluestick.jpg,squirrel,x,sounds/greatgatsby_english.wav,,,,,,,,,0,1,1,0,0,202,202,226,999.762976079,9.62160993367e-06,1001.27276771,1.50980189664,,,,,x,1,1.5006385569,2018_Nov_26_1232,59.9844554442,spanish_cond1,001,1049,
images/swallow.jpg,mattress,x,sounds/greatgatsby_english.wav,,,,,,,,,0,1,1,0,0,203,203,202,1002.37445638,9.30088572204e-06,1003.22326207,0.848842258798,,,,,x,1,0.833804901107,2018_Nov_26_1232,59.9844554442,spanish_cond1,001,1049,
images/parrot01.jpg,chameleon,x,sounds/greatgatsby_english.wav,,,,,,,,,0,1,1,0,0,204,204,150,1004.33805927,9.62160993367e-06,1005.10705402,0.769005326554,,,,,x,1,0.750429767184,2018_Nov_26_1232,59.9844554442,spanish_cond1,001,1049,
images/pouch01b.jpg,pouch,z,sounds/greatgatsby_english.wav,,,,,,,,,0,1,1,0,0,205,205,25,1006.21911546,9.621726349e-06,1007.02445022,0.805344698951,,,,,x,0,0.784019913059,2018_Nov_26_1232,59.9844554442,spanish_cond1,001,1049,
images/redfox.jpg,red fox,z,sounds/greatgatsby_english.wav,,,,,,,,,0,1,1,0,0,206,206,1,1008.13710564,9.621726349e-06,1008.80797911,0.670883408748,,,,,z,1,0.650396027137,2018_Nov_26_1232,59.9844554442,spanish_cond1,001,1049,
images/cactus.jpg,cactus,z,sounds/greatgatsby_english.wav,,,,,,,,,0,1,1,0,0,207,207,70,1009.9199979,9.30100213736e-06,1011.17527601,1.2552883802,,,,,z,1,1.23391003371,2018_Nov_26_1232,59.9844554442,spanish_cond1,001,1049,
images/sportshorts02.jpg,tape,x,sounds/greatgatsby_english.wav,,,,,,,,,0,1,1,0,0,208,208,230,1012.28535636,9.94233414531e-06,1013.27580591,0.990459812223,,,,,x,1,0.967172209523,2018_Nov_26_1232,59.9844554442,spanish_cond1,001,1049,
images/notebook02b.jpg,notebook,z,sounds/greatgatsby_english.wav,,,,,,,,,0,1,1,0,0,209,209,7,1014.38253953,8.98027792573e-06,1015.2929751,0.910445521004,,,,,z,1,0.900479735574,2018_Nov_26_1232,59.9844554442,spanish_cond1,001,1049,
images/electricguitar02.jpg,electric guitar,z,sounds/greatgatsby_english.wav,,,,,,,,,0,1,1,0,0,210,210,100,1016.39502458,8.98016151041e-06,1017.09326844,0.698254440096,,,,,z,1,0.683599382755,2018_Nov_26_1232,59.9844554442,spanish_cond1,001,1049,
images/envelope02a.jpg,grand piano,x,sounds/greatgatsby_english.wav,,,,,,,,,0,1,1,0,0,211,211,182,1018.21680242,8.98016151041e-06,1018.9772185,0.760426021065,,,,,x,1,0.750424314872,2018_Nov_26_1232,59.9844554442,spanish_cond1,001,1049,
images/8ball.jpg,nail clipper,x,sounds/greatgatsby_english.wav,,,,,,,,,0,1,1,0,0,212,212,206,1020.09322354,9.94245056063e-06,1021.07776154,0.984548269887,,,,,x,1,0.967159701395,2018_Nov_26_1232,59.9844554442,spanish_cond1,001,1049,
images/nametag01a.jpg,name tag,z,sounds/greatgatsby_english.wav,,,,,,,,,0,1,1,0,0,213,213,108,1022.19781954,9.621726349e-06,1023.27833865,1.08052937046,,,,,z,1,1.06720466667,2018_Nov_26_1232,59.9844554442,spanish_cond1,001,1049,
images/kiwi03.jpg,backpack,x,sounds/greatgatsby_english.wav,,,,,,,,,0,1,1,0,0,214,214,125,1024.40800034,9.94245056063e-06,1025.27881524,0.870824844926,,,,,x,1,0.850450998871,2018_Nov_26_1232,59.9844554442,spanish_cond1,001,1049,
images/puma.jpg,puma,z,sounds/greatgatsby_english.wav,,,,,,,,,0,1,1,0,0,215,215,4,1026.3776296,8.98016151041e-06,1027.49604294,1.11842328077,,,,,z,1,1.10052123689,2018_Nov_26_1232,59.9844554442,spanish_cond1,001,1049,
images/bullet (2).jpg,rubber glove,x,sounds/greatgatsby_english.wav,,,,,,,,,0,1,1,0,0,216,216,217,1028.60099911,9.30100213736e-06,1029.57991679,0.9789276222,,,,,x,1,0.967152645462,2018_Nov_26_1232,59.9844554442,spanish_cond1,001,1049,
images/bowl02b (1).jpg,bowl,z,sounds/greatgatsby_english.wav,,,,,,,,,0,1,1,0,0,217,217,24,1030.69815181,9.621726349e-06,1031.54708964,0.848948417697,,,,,z,1,0.833787582116,2018_Nov_26_1232,59.9844554442,spanish_cond1,001,1049,
images/pictureframe04.jpg,picture frame,z,sounds/greatgatsby_english.wav,,,,,,,,,0,1,1,0,0,218,218,41,1032.66925575,1.05838989839e-05,1035.5479418,2.87869792129,,,,,z,1,2.86748452834,2018_Nov_26_1232,59.9844554442,spanish_cond1,001,1049,
images/paperclip04.jpg,eye drops,x,sounds/greatgatsby_english.wav,,,,,,,,,0,1,1,0,0,219,219,174,1036.65341466,1.02630583569e-05,1037.31521844,0.661814681836,,,,,x,1,0.650413666852,2018_Nov_26_1232,59.9844554442,spanish_cond1,001,1049,
images/shotglass.jpg,shot glass,z,sounds/greatgatsby_english.wav,,,,,,,,,0,1,1,0,0,220,220,86,1038.42404637,9.30100213736e-06,1039.315755,0.891718260129,,,,,z,1,0.867165410309,2018_Nov_26_1232,59.9844554442,spanish_cond1,001,1049,
images/bat.jpg,hand,x,sounds/greatgatsby_english.wav,,,,,,,,,0,1,1,0,0,221,221,185,1040.41678459,9.94233414531e-06,1041.8663681,1.44959377381,,,,,x,1,1.43390567193,2018_Nov_26_1232,59.9844554442,spanish_cond1,001,1049,
images/calculator02b.jpg,dice,x,sounds/greatgatsby_english.wav,,,,,,,,,0,1,1,0,0,222,222,165,1042.96828511,9.621726349e-06,1044.15028794,1.18201309314,,,,,x,1,1.16722686053,2018_Nov_26_1232,59.9844554442,spanish_cond1,001,1049,
images/doll.jpg,carrot,x,sounds/greatgatsby_english.wav,,,,,,,,,0,1,1,0,0,223,223,146,1045.26197254,9.94245056063e-06,1045.96740698,0.705445020692,,,,,x,1,0.68375589489,2018_Nov_26_1232,59.9844554442,spanish_cond1,001,1049,
images/atm.jpg,atm,z,sounds/greatgatsby_english.wav,,,,,,,,,0,1,1,0,0,224,224,96,1047.10569448,9.30088572204e-06,1048.50137237,1.39568815322,,,,,z,1,1.38392119482,2018_Nov_26_1232,59.9844554442,spanish_cond1,001,1049,
images/bowlingball.jpg,bowling ball,z,sounds/greatgatsby_english.wav,,,,,,,,,0,1,1,0,0,225,225,20,1049.63363158,1.09045067802e-05,1050.40185339,0.768233028706,,,,,z,1,0.750431370689,2018_Nov_26_1232,59.9844554442,spanish_cond1,001,1049,
images/bench02.jpg,electric toothbrush,x,sounds/greatgatsby_english.wav,,,,,,,,,0,1,1,0,0,226,226,172,1051.51166689,9.62160993367e-06,1052.7357792,1.22412289027,,,,,x,1,1.20054920379,2018_Nov_26_1232,59.9844554442,spanish_cond1,001,1049,
images/cola.jpg,comb,x,sounds/greatgatsby_english.wav,,,,,,,,,0,1,1,0,0,227,227,157,1053.85677884,9.30088572204e-06,1054.73628915,0.879520572373,,,,,x,1,0.867140073329,2018_Nov_26_1232,59.9844554442,spanish_cond1,001,1049,
,,,sounds/greatgatsby_english.wav,,,,,,,,,0,1,1,0,,,,,,,,,,,,,,,,2018_Nov_26_1232,59.9844554442,spanish_cond1,001,1049,
