images,name,corrAns,sounds,trials_3.thisRepN,trials_3.thisTrialN,trials_3.thisN,trials_3.thisIndex,trials_4.thisRepN,trials_4.thisTrialN,trials_4.thisN,trials_4.thisIndex,trials_2.thisRepN,trials_2.thisTrialN,trials_2.thisN,trials_2.thisIndex,trials.thisRepN,trials.thisTrialN,trials.thisN,trials.thisIndex,begin_global,begin_routine,end_global,end_routine,key_resp_2.keys,key_resp_2.corr,begin_book,key_resp_1.keys,key_resp_1.corr,key_resp_1.rt,date,frameRate,expName,session,participant,
images/volleyball.jpg,volley ball,z,,0,0,0,0,,,,,,,,,,,,,,,,,,,,,,,2018_Nov_26_1232,59.9852439087,spanish_cond2,001,1050,
images/puma.jpg,puma,z,,,,,,0,0,0,0,,,,,,,,,48.171096769,1.12253474072e-05,51.0092827048,2.83819748182,None,0,,,,,2018_Nov_26_1232,59.9852439087,spanish_cond2,001,1050,
images/hairpin.jpg,hair pin,z,sounds/greatgatsby_spanish.wav,,,,,,,,,0,0,0,0,0,0,0,28,93.179663298,1.05838989839e-05,95.6375973437,2.45794623322,,,83.0060924665,z,1,2.43406386697,2018_Nov_26_1232,59.9852439087,spanish_cond2,001,1050,
images/hanger02a.jpg,hanger,z,sounds/greatgatsby_spanish.wav,,,,,,,,,0,0,0,0,0,1,1,88,96.7394925319,9.94233414531e-06,97.9716740075,1.23219205951,,,,z,1,1.21721715142,2018_Nov_26_1232,59.9852439087,spanish_cond2,001,1050,
images/nametag01a.jpg,name tag,z,sounds/greatgatsby_spanish.wav,,,,,,,,,0,0,0,0,0,2,2,108,99.0927260196,9.94245056063e-06,100.072216063,0.979500626912,,,,z,1,0.967156614875,2018_Nov_26_1232,59.9852439087,spanish_cond2,001,1050,
images/doorhandle.jpg,doll,x,sounds/greatgatsby_spanish.wav,,,,,,,,,0,0,0,0,0,3,3,168,101.176621875,9.621726349e-06,102.006050452,0.829439160181,,,,x,1,0.817116315942,2018_Nov_26_1232,59.9852439087,spanish_cond2,001,1050,
images/wallet01.jpg,lamp,x,sounds/greatgatsby_spanish.wav,,,,,,,,,0,0,0,0,0,4,4,193,103.113119875,9.621726349e-06,103.923212022,0.810102731106,,,,x,1,0.800442534499,2018_Nov_26_1232,59.9852439087,spanish_cond2,001,1050,
images/ladybug03.jpg,giraffe,x,sounds/greatgatsby_spanish.wav,,,,,,,,,0,0,0,0,0,5,5,178,105.028500145,9.94233414531e-06,105.857056674,0.828567112447,,,,x,1,0.81712497538,2018_Nov_26_1232,59.9852439087,spanish_cond2,001,1050,
images/bowtie.jpg,bowtie,z,sounds/greatgatsby_spanish.wav,,,,,,,,,0,0,0,0,0,6,6,89,106.969468712,9.621726349e-06,107.890989237,0.921530788415,,,,z,1,0.900553216226,2018_Nov_26_1232,59.9852439087,spanish_cond2,001,1050,
images/candle08a.jpg,screw driver,x,sounds/greatgatsby_spanish.wav,,,,,,,,,0,0,0,0,0,7,7,221,109.004510016,9.621726349e-06,110.158171606,1.1536718529,,,,x,1,1.13387614745,2018_Nov_26_1232,59.9852439087,spanish_cond2,001,1050,
images/saltshaker03c.jpg,salt shaker,z,sounds/greatgatsby_spanish.wav,,,,,,,,,0,0,0,0,0,8,8,63,111.303055631,9.621726349e-06,112.008656652,0.705610964098,,,,z,1,0.683763910201,2018_Nov_26_1232,59.9852439087,spanish_cond2,001,1050,
images/mailbox01.jpg,mail box,z,sounds/greatgatsby_spanish.wav,,,,,,,,,0,0,0,0,0,9,9,73,113.130056329,9.621726349e-06,113.959151352,0.829105928307,,,,z,1,0.817121768254,2018_Nov_26_1232,59.9852439087,spanish_cond2,001,1050,
images/gluestick.jpg,squirrel,x,sounds/greatgatsby_spanish.wav,,,,,,,,,0,0,0,0,0,10,10,226,115.068333382,9.94245056063e-06,115.726271982,0.657949183951,,,,x,1,0.633739358746,2018_Nov_26_1232,59.9852439087,spanish_cond2,001,1050,
images/gamecontroller01.jpg,game controller,z,sounds/greatgatsby_spanish.wav,,,,,,,,,0,0,0,0,0,11,11,112,116.848264356,9.94233414531e-06,117.560088699,0.711835248047,,,,z,1,0.700429673539,2018_Nov_26_1232,59.9852439087,spanish_cond2,001,1050,
images/parrot01.jpg,chameleon,x,sounds/greatgatsby_spanish.wav,,,,,,,,,0,0,0,0,0,12,12,150,118.674519051,1.09046231955e-05,119.827336175,1.15282834962,,,,x,1,1.13387358165,2018_Nov_26_1232,59.9852439087,spanish_cond2,001,1050,
images/tape01a.jpg,tie,x,sounds/greatgatsby_spanish.wav,,,,,,,,,0,0,0,0,0,13,13,232,120.954451147,9.94245056063e-06,122.011236233,1.05679566925,,,,x,1,1.03384276002,2018_Nov_26_1232,59.9852439087,spanish_cond2,001,1050,
images/straw.jpg,straw,z,sounds/greatgatsby_spanish.wav,,,,,,,,,0,0,0,0,0,14,14,109,123.103808946,9.94245056063e-06,124.21180494,1.10800625675,,,,z,1,1.08385640685,2018_Nov_26_1232,59.9852439087,spanish_cond2,001,1050,
images/envelope02a.jpg,grand piano,x,sounds/greatgatsby_spanish.wav,,,,,,,,,0,0,0,0,0,15,15,182,125.336152387,4.5221997425e-05,126.412387117,1.07625910488,,,,x,1,1.06719962391,2018_Nov_26_1232,59.9852439087,spanish_cond2,001,1050,
images/radio03a.jpg,radio,z,sounds/greatgatsby_spanish.wav,,,,,,,,,0,0,0,0,0,16,16,37,127.527910174,9.621726349e-06,128.512935587,0.985035675694,,,,z,1,0.967173933983,2018_Nov_26_1232,59.9852439087,spanish_cond2,001,1050,
images/squirrel.jpg,binder,x,sounds/greatgatsby_spanish.wav,,,,,,,,,0,0,0,0,0,17,17,132,129.617721137,9.30100213736e-06,130.796852354,1.17914148059,,,,x,1,1.16722050298,2018_Nov_26_1232,59.9852439087,spanish_cond2,001,1050,
images/birthdaycandle.jpg,birthday candle,z,sounds/greatgatsby_spanish.wav,,,,,,,,,0,0,0,0,0,18,18,55,131.894353949,9.94245056063e-06,132.747204011,0.852860646555,,,,z,1,0.833638715674,2018_Nov_26_1232,59.9852439087,spanish_cond2,001,1050,
images/mattress.jpg,cat,x,sounds/greatgatsby_spanish.wav,,,,,,,,,0,0,0,0,0,19,19,147,133.853244873,9.621726349e-06,135.047944979,1.19471068971,,,,x,1,1.18387760664,2018_Nov_26_1232,59.9852439087,spanish_cond2,001,1050,
images/arrow02.jpg,hammer,x,sounds/greatgatsby_spanish.wav,,,,,,,,,0,0,0,0,0,20,20,184,136.145570373,9.94245056063e-06,136.998468224,0.852908755071,,,,x,1,0.833801001892,2018_Nov_26_1232,59.9852439087,spanish_cond2,001,1050,
images/desktopcomputer.jpg,desktop computer,z,sounds/greatgatsby_spanish.wav,,,,,,,,,0,0,0,0,0,21,21,16,138.135459881,1.02630583569e-05,139.098997771,0.963548794389,,,,z,1,0.950488927076,2018_Nov_26_1232,59.9852439087,spanish_cond2,001,1050,
images/parkbench03.jpg,park bench,z,sounds/greatgatsby_spanish.wav,,,,,,,,,0,0,0,0,0,22,22,71,140.282614308,1.05837825686e-05,141.082872747,0.800269343657,,,,z,1,0.783804994891,2018_Nov_26_1232,59.9852439087,spanish_cond2,001,1050,
images/medal01.jpg,medal,z,sounds/greatgatsby_spanish.wav,,,,,,,,,0,0,0,0,0,23,23,115,142.186047623,9.62160993367e-06,143.33342784,1.14739080076,,,,z,1,1.13385882834,2018_Nov_26_1232,59.9852439087,spanish_cond2,001,1050,
images/stapler03a.jpg,candy cane,x,sounds/greatgatsby_spanish.wav,,,,,,,,,0,0,0,0,0,24,24,145,144.526428431,9.621726349e-06,145.283939859,0.757522653555,,,,x,1,0.733771463158,2018_Nov_26_1232,59.9852439087,spanish_cond2,001,1050,
images/dolphin01.jpg,dolphin,z,sounds/greatgatsby_spanish.wav,,,,,,,,,0,0,0,0,0,25,25,99,146.385400467,9.621726349e-06,147.217769438,0.832379233907,,,,z,1,0.817122088862,2018_Nov_26_1232,59.9852439087,spanish_cond2,001,1050,
images/tulip02.jpg,sport shorts,x,sounds/greatgatsby_spanish.wav,,,,,,,,,0,0,0,0,0,26,26,225,148.313664848,9.94245056063e-06,148.985108801,0.671470572473,,,,x,1,0.650526997051,2018_Nov_26_1232,59.9852439087,spanish_cond2,001,1050,
images/broom02.jpg,broom,z,sounds/greatgatsby_spanish.wav,,,,,,,,,0,0,0,0,0,27,27,116,150.080106185,9.94245056063e-06,150.868728129,0.788632527343,,,,z,1,0.767121270997,2018_Nov_26_1232,59.9852439087,spanish_cond2,001,1050,
images/ostrich.jpg,ostrich,z,sounds/greatgatsby_spanish.wav,,,,,,,,,0,0,0,0,0,28,28,76,151.968931179,9.621726349e-06,152.852561411,0.883640174987,,,,z,1,0.867103342549,2018_Nov_26_1232,59.9852439087,spanish_cond2,001,1050,
images/bat.jpg,hand,x,sounds/greatgatsby_spanish.wav,,,,,,,,,0,0,0,0,0,29,29,185,153.949565885,9.94245056063e-06,154.819748495,0.870192873525,,,,x,1,0.850473500323,2018_Nov_26_1232,59.9852439087,spanish_cond2,001,1050,
images/croissant02b.jpg,croissant,z,sounds/greatgatsby_spanish.wav,,,,,,,,,0,0,0,0,0,30,30,39,155.931683616,9.621726349e-06,156.636877961,0.705204607337,,,,z,1,0.683759740787,2018_Nov_26_1232,59.9852439087,spanish_cond2,001,1050,
images/screw03c.jpg,screw,z,sounds/greatgatsby_spanish.wav,,,,,,,,,0,0,0,0,0,31,31,84,157.732254761,1.02630583569e-05,159.070839837,1.33859598078,,,,z,1,1.31724669004,2018_Nov_26_1232,59.9852439087,spanish_cond2,001,1050,
images/axe01.jpg,axe,z,sounds/greatgatsby_spanish.wav,,,,,,,,,0,0,0,0,0,32,32,104,160.174103553,9.94233414531e-06,160.971337248,0.797244278132,,,,z,1,0.783778054058,2018_Nov_26_1232,59.9852439087,spanish_cond2,001,1050,
images/swan.jpg,swan,z,sounds/greatgatsby_spanish.wav,,,,,,,,,0,0,0,0,0,33,33,54,162.065605948,1.02630583569e-05,163.071874813,1.0062794484,,,,z,1,0.983828151133,2018_Nov_26_1232,59.9852439087,spanish_cond2,001,1050,
images/scooter.jpg,pen,x,sounds/greatgatsby_spanish.wav,,,,,,,,,0,0,0,0,0,34,34,212,164.16627501,1.02631747723e-05,164.922381348,0.756116921781,,,,x,1,0.733786858036,2018_Nov_26_1232,59.9852439087,spanish_cond2,001,1050,
images/corkscrew02a.jpg,masquerade mask,x,sounds/greatgatsby_spanish.wav,,,,,,,,,0,0,0,0,0,35,35,201,166.027127769,9.621726349e-06,167.039585638,1.0124684528,,,,x,1,1.00051540288,2018_Nov_26_1232,59.9852439087,spanish_cond2,001,1050,
images/showerhead01.jpg,skateboard,x,sounds/greatgatsby_spanish.wav,,,,,,,,,0,0,0,0,0,36,36,223,168.149352667,9.94245056063e-06,169.056761352,0.907419588999,,,,x,1,0.883800216136,2018_Nov_26_1232,59.9852439087,spanish_cond2,001,1050,
images/sunglasses03a.jpg,sun glasses,z,sounds/greatgatsby_spanish.wav,,,,,,,,,0,0,0,0,0,37,37,17,170.166969056,9.621726349e-06,171.040608426,0.87364963314,,,,z,1,0.850464840885,2018_Nov_26_1232,59.9852439087,spanish_cond2,001,1050,
images/belt02a.jpg,snowman,x,sounds/greatgatsby_spanish.wav,,,,,,,,,0,0,0,0,0,38,38,224,172.145492117,9.94245056063e-06,172.924427885,0.778945710743,,,,x,1,0.767103631282,2018_Nov_26_1232,59.9852439087,spanish_cond2,001,1050,
images/candy.jpg,candy,z,sounds/greatgatsby_spanish.wav,,,,,,,,,0,0,0,0,0,39,39,31,174.027969027,9.30100213736e-06,175.624976868,1.59701810393,,,,z,1,1.58382706065,2018_Nov_26_1232,59.9852439087,spanish_cond2,001,1050,
images/button07.jpg,radish,x,sounds/greatgatsby_spanish.wav,,,,,,,,,0,0,0,0,0,40,40,215,176.818997039,9.94245056063e-06,177.642319037,0.823332261061,,,,x,1,0.800446062465,2018_Nov_26_1232,59.9852439087,spanish_cond2,001,1050,
images/paintbrush03a.jpg,paint brush,z,sounds/greatgatsby_spanish.wav,,,,,,,,,0,0,0,0,0,41,41,0,178.744022112,9.94245056063e-06,179.47612934,0.732117812033,,,,x,0,0.717092229519,2018_Nov_26_1232,59.9852439087,spanish_cond2,001,1050,
images/8ball.jpg,nail clipper,x,sounds/greatgatsby_spanish.wav,,,,,,,,,0,0,0,0,0,42,42,206,180.593126122,9.621726349e-06,181.543334416,0.950218236423,,,,x,1,0.93382059806,2018_Nov_26_1232,59.9852439087,spanish_cond2,001,1050,
images/computermouse02a.jpg,world map,x,sounds/greatgatsby_spanish.wav,,,,,,,,,0,0,0,0,0,43,43,239,182.64682296,9.621726349e-06,183.527176359,0.880363020697,,,,x,1,0.867127717589,2018_Nov_26_1232,59.9852439087,spanish_cond2,001,1050,
images/flashlight05.jpg,flash light,z,sounds/greatgatsby_spanish.wav,,,,,,,,,0,0,0,0,0,44,44,8,184.630633471,9.94245056063e-06,185.427672807,0.797049919725,,,,z,1,0.783761055674,2018_Nov_26_1232,59.9852439087,spanish_cond2,001,1050,
images/puzzle.jpg,puzzle,z,sounds/greatgatsby_spanish.wav,,,,,,,,,0,0,0,0,0,45,45,57,186.549629901,9.621726349e-06,187.361515535,0.811895896913,,,,z,1,0.800458570709,2018_Nov_26_1232,59.9852439087,spanish_cond2,001,1050,
images/giraffe.jpg,lettuce,x,sounds/greatgatsby_spanish.wav,,,,,,,,,0,0,0,0,0,46,46,195,188.46433569,9.621726349e-06,189.161975068,0.697649320122,,,,x,1,0.683760702959,2018_Nov_26_1232,59.9852439087,spanish_cond2,001,1050,
images/banjo.jpg,knife,x,sounds/greatgatsby_spanish.wav,,,,,,,,,0,0,0,0,0,47,47,191,190.26032658,1.02631747723e-05,191.312371691,1.052056015,,,,x,1,1.03368464333,2018_Nov_26_1232,59.9852439087,spanish_cond2,001,1050,
images/flipflop01b.jpg,flip flop,z,sounds/greatgatsby_spanish.wav,,,,,,,,,0,0,0,0,0,48,48,27,192.429649747,9.94245056063e-06,193.146339148,0.716699663782,,,,z,1,0.70042742847,2018_Nov_26_1232,59.9852439087,spanish_cond2,001,1050,
images/microphone01.jpg,diaper,x,sounds/greatgatsby_spanish.wav,,,,,,,,,0,0,0,0,0,49,49,164,194.246952083,9.94245056063e-06,195.196869801,0.949928302201,,,,x,1,0.933789808652,2018_Nov_26_1232,59.9852439087,spanish_cond2,001,1050,
images/camera01a.jpg,bull,x,sounds/greatgatsby_spanish.wav,,,,,,,,,0,0,0,0,0,50,50,138,196.309487743,9.621726349e-06,197.047359979,0.737883140449,,,,x,1,0.717107624281,2018_Nov_26_1232,59.9852439087,spanish_cond2,001,1050,
images/atm.jpg,atm,z,sounds/greatgatsby_spanish.wav,,,,,,,,,0,0,0,0,0,51,51,96,198.185547294,9.30100213736e-06,199.347942189,1.16240547877,,,,z,1,1.15054287284,2018_Nov_26_1232,59.9852439087,spanish_cond2,001,1050,
images/corn01.jpg,corn,z,sounds/greatgatsby_spanish.wav,,,,,,,,,0,0,0,0,0,52,52,22,200.449438076,9.94245056063e-06,201.315135046,0.865707874065,,,,z,1,0.850473821047,2018_Nov_26_1232,59.9852439087,spanish_cond2,001,1050,
images/ear.jpg,bullet,x,sounds/greatgatsby_spanish.wav,,,,,,,,,0,0,0,0,0,53,53,139,202.420478975,9.94245056063e-06,203.165598283,0.745130212163,,,,x,1,0.733724316815,2018_Nov_26_1232,59.9852439087,spanish_cond2,001,1050,
images/apricot.jpg,apricot,z,sounds/greatgatsby_spanish.wav,,,,,,,,,0,0,0,0,0,54,54,32,204.284594456,9.30100213736e-06,205.349510528,1.06492665526,,,,z,1,1.05052872899,2018_Nov_26_1232,59.9852439087,spanish_cond2,001,1050,
images/cigar.jpg,crocodile,x,sounds/greatgatsby_spanish.wav,,,,,,,,,0,0,0,0,0,55,55,162,206.449913068,9.621726349e-06,207.166640635,0.716738150688,,,,x,1,0.700424541836,2018_Nov_26_1232,59.9852439087,spanish_cond2,001,1050,
images/comb02a.jpg,diploma,x,sounds/greatgatsby_spanish.wav,,,,,,,,,0,0,0,0,0,56,56,166,208.273379712,9.621726349e-06,209.000450296,0.727081167744,,,,x,1,0.717070420273,2018_Nov_26_1232,59.9852439087,spanish_cond2,001,1050,
images/binder03b.jpg,dj mixer,x,sounds/greatgatsby_spanish.wav,,,,,,,,,0,0,0,0,0,57,57,167,210.115978805,9.30100213736e-06,210.884274887,0.76830634498,,,,x,1,0.750441716635,2018_Nov_26_1232,59.9852439087,spanish_cond2,001,1050,
images/tank.jpg,wallet,x,sounds/greatgatsby_spanish.wav,,,,,,,,,0,0,0,0,0,58,58,237,211.990631341,9.94245056063e-06,213.885046548,1.89442547003,,,,x,1,1.8840616059,2018_Nov_26_1232,59.9852439087,spanish_cond2,001,1050,
images/cloud.jpg,ceiling fan,x,sounds/greatgatsby_spanish.wav,,,,,,,,,0,0,0,0,0,59,59,149,214.992766719,1.02631747723e-05,215.802220947,0.809465132421,,,,x,1,0.8004319506,2018_Nov_26_1232,59.9852439087,spanish_cond2,001,1050,
images/dresser02.jpg,dresser,z,sounds/greatgatsby_spanish.wav,,,,,,,,,0,0,0,0,0,60,60,87,216.925162342,9.62160993367e-06,217.952768952,1.02761719318,,,,z,1,1.01715871564,2018_Nov_26_1232,59.9852439087,spanish_cond2,001,1050,
images/snowman.jpg,globe,x,sounds/greatgatsby_spanish.wav,,,,,,,,,0,0,0,0,0,61,61,180,219.145354526,9.94245056063e-06,220.019975311,0.874631368206,,,,x,1,0.850464520045,2018_Nov_26_1232,59.9852439087,spanish_cond2,001,1050,
images/scissors04a.jpg,leek,x,sounds/greatgatsby_spanish.wav,,,,,,,,,0,0,0,0,0,62,62,194,221.116311396,9.30100213736e-06,221.8206462,0.704361104057,,,,x,1,0.683887709514,2018_Nov_26_1232,59.9852439087,spanish_cond2,001,1050,
images/pepper05a.jpg,lighter,x,sounds/greatgatsby_spanish.wav,,,,,,,,,0,0,0,0,0,63,63,198,222.94251253,9.621726349e-06,223.670932077,0.72843013145,,,,x,1,0.717113397317,2018_Nov_26_1232,59.9852439087,spanish_cond2,001,1050,
images/skateboard.jpg,key,x,sounds/greatgatsby_spanish.wav,,,,,,,,,0,0,0,0,0,64,64,189,224.763940334,9.30100213736e-06,225.5047334,0.74080332939,,,,x,1,0.71710826573,2018_Nov_26_1232,59.9852439087,spanish_cond2,001,1050,
images/treadmill.jpg,lily,x,sounds/greatgatsby_spanish.wav,,,,,,,,,0,0,0,0,0,65,65,199,226.612904829,9.94245056063e-06,227.32185581,0.708961564233,,,,x,1,0.700392790255,2018_Nov_26_1232,59.9852439087,spanish_cond2,001,1050,
images/fireextinguisher02.jpg,fire extinguisher,z,sounds/greatgatsby_spanish.wav,,,,,,,,,0,0,0,0,0,66,66,175,228.434151104,9.621726349e-06,229.755843665,1.32170314528,,,,z,1,1.30059471785,2018_Nov_26_1232,59.9852439087,spanish_cond2,001,1050,
images/glasses01b.jpg,calculator,x,sounds/greatgatsby_spanish.wav,,,,,,,,,0,0,0,0,0,67,67,142,230.850962925,9.621726349e-06,231.78969316,0.938740178244,,,,x,1,0.917157400632,2018_Nov_26_1232,59.9852439087,spanish_cond2,001,1050,
images/hairdryer03a.jpg,hairdryer,z,sounds/greatgatsby_spanish.wav,,,,,,,,,0,0,0,0,0,68,68,119,232.891575199,1.02631747723e-05,233.673534109,0.781969172647,,,,z,1,0.767135062139,2018_Nov_26_1232,59.9852439087,spanish_cond2,001,1050,
images/dreamcatcher.jpg,dream catcher,z,sounds/greatgatsby_spanish.wav,,,,,,,,,0,0,0,0,0,69,69,48,234.774523573,1.02630583569e-05,235.990850396,1.21633804776,,,,z,1,1.2006087976,2018_Nov_26_1232,59.9852439087,spanish_cond2,001,1050,
images/daisy.jpg,daisy,z,sounds/greatgatsby_spanish.wav,,,,,,,,,0,0,0,0,0,70,70,6,237.162870528,9.94245056063e-06,238.791505891,1.62864594639,,,,z,1,1.61733594746,2018_Nov_26_1232,59.9852439087,spanish_cond2,001,1050,
images/mitten01.jpg,mitten,z,sounds/greatgatsby_spanish.wav,,,,,,,,,0,0,0,0,0,71,71,102,239.913937656,9.94245056063e-06,240.758677579,0.844750507502,,,,z,1,0.83379394596,2018_Nov_26_1232,59.9852439087,spanish_cond2,001,1050,
images/blackolive.jpg,tank,x,sounds/greatgatsby_spanish.wav,,,,,,,,,0,0,0,0,0,72,72,229,241.875299756,9.30100213736e-06,242.725697245,0.850408714148,,,,x,1,0.833632622031,2018_Nov_26_1232,59.9852439087,spanish_cond2,001,1050,
images/boxingglove02a.jpg,bracelet,x,sounds/greatgatsby_spanish.wav,,,,,,,,,0,0,0,0,0,73,73,135,243.838773822,1.02631747723e-05,244.743044867,0.904280987335,,,,x,1,0.883811441367,2018_Nov_26_1232,59.9852439087,spanish_cond2,001,1050,
images/leaf01a.jpg,leaf,z,sounds/greatgatsby_spanish.wav,,,,,,,,,0,0,0,0,0,74,74,68,245.84842151,9.94245056063e-06,246.743563798,0.895154154277,,,,z,1,0.883787066326,2018_Nov_26_1232,59.9852439087,spanish_cond2,001,1050,
images/carrot02.jpg,corkscrew,x,sounds/greatgatsby_spanish.wav,,,,,,,,,0,0,0,0,0,75,75,161,247.847875318,9.94245056063e-06,248.894124631,1.04625989718,,,,x,1,1.03382319596,2018_Nov_26_1232,59.9852439087,spanish_cond2,001,1050,
images/hand01a.jpg,cupcake,x,sounds/greatgatsby_spanish.wav,,,,,,,,,0,0,0,0,0,76,76,163,250.007625526,9.621726349e-06,250.661255845,0.65364090295,,,,x,1,0.633755394956,2018_Nov_26_1232,59.9852439087,spanish_cond2,001,1050,
images/screwdriver02b.jpg,cola,x,sounds/greatgatsby_spanish.wav,,,,,,,,,0,0,0,0,0,77,77,158,251.75718429,9.621726349e-06,252.795130709,1.03795668238,,,,x,1,1.01717475173,2018_Nov_26_1232,59.9852439087,spanish_cond2,001,1050,
images/toothbrush03a.jpg,parrot,x,sounds/greatgatsby_spanish.wav,,,,,,,,,0,0,0,0,0,78,78,210,253.889883061,9.621726349e-06,254.795650282,0.905777483946,,,,x,1,0.883808234124,2018_Nov_26_1232,59.9852439087,spanish_cond2,001,1050,
images/dragonfly02.jpg,dragon fly,z,sounds/greatgatsby_spanish.wav,,,,,,,,,0,0,0,0,0,79,79,29,255.892970026,1.02631747723e-05,256.696141598,0.803182156058,,,,z,1,0.7837812613,2018_Nov_26_1232,59.9852439087,spanish_cond2,001,1050,
images/cookingpot.jpg,grasshopper,x,sounds/greatgatsby_spanish.wav,,,,,,,,,0,0,0,0,0,80,80,183,257.888572263,9.621726349e-06,259.496881123,1.6083194433,,,,x,1,1.58400730742,2018_Nov_26_1232,59.9852439087,spanish_cond2,001,1050,
images/toucan.jpg,toucan,z,sounds/greatgatsby_spanish.wav,,,,,,,,,0,0,0,0,0,81,81,81,260.672091814,9.621726349e-06,261.664096494,0.992015263881,,,,z,1,0.983790305792,2018_Nov_26_1232,59.9852439087,spanish_cond2,001,1050,
images/handbag02a.jpg,candle,x,sounds/greatgatsby_spanish.wav,,,,,,,,,0,0,0,0,0,82,82,144,262.781857882,1.02631747723e-05,263.69795946,0.916112803621,,,,x,1,0.900476242532,2018_Nov_26_1232,59.9852439087,spanish_cond2,001,1050,
images/hairband.jpg,hairband,z,sounds/greatgatsby_spanish.wav,,,,,,,,,0,0,0,0,0,83,83,66,264.810624548,9.30088572204e-06,265.581778919,0.771164634149,,,,z,1,0.750445565442,2018_Nov_26_1232,59.9852439087,spanish_cond2,001,1050,
images/djmixer01.jpg,light bulb,x,sounds/greatgatsby_spanish.wav,,,,,,,,,0,0,0,0,0,84,84,196,266.704617683,1.02631747723e-05,267.448950576,0.744343797793,,,,x,1,0.733787178644,2018_Nov_26_1232,59.9852439087,spanish_cond2,001,1050,
images/umbrella01.jpg,umbrella,z,sounds/greatgatsby_spanish.wav,,,,,,,,,0,0,0,0,0,85,85,53,268.564425204,9.94245056063e-06,269.266063685,0.701648744056,,,,x,0,0.683749798336,2018_Nov_26_1232,59.9852439087,spanish_cond2,001,1050,
images/lightswitch02a.jpg,fork,x,sounds/greatgatsby_spanish.wav,,,,,,,,,0,0,0,0,0,86,86,177,270.379712112,1.02631747723e-05,271.233254296,0.853553409688,,,,x,1,0.833806454204,2018_Nov_26_1232,59.9852439087,spanish_cond2,001,1050,
images/tent.jpg,tent,z,sounds/greatgatsby_spanish.wav,,,,,,,,,0,0,0,0,0,87,87,11,272.361689367,9.94245056063e-06,273.133744009,0.772064905497,,,,z,1,0.75044748967,2018_Nov_26_1232,59.9852439087,spanish_cond2,001,1050,
images/key03b.jpg,cigar,x,sounds/greatgatsby_spanish.wav,,,,,,,,,0,0,0,0,0,88,88,153,274.237822043,1.05838989839e-05,274.984205643,0.746394504909,,,,x,1,0.733759596478,2018_Nov_26_1232,59.9852439087,spanish_cond2,001,1050,
images/lychee02a.jpg,lychee,z,sounds/greatgatsby_spanish.wav,,,,,,,,,0,0,0,0,0,89,89,62,276.111556668,9.621726349e-06,277.118092374,1.00654596975,,,,x,0,0.983824943891,2018_Nov_26_1232,59.9852439087,spanish_cond2,001,1050,
images/highlighter03b.jpg,coin,x,sounds/greatgatsby_spanish.wav,,,,,,,,,0,0,0,0,0,90,90,156,278.222174256,9.621726349e-06,279.085288759,0.863125086413,,,,x,1,0.850475424784,2018_Nov_26_1232,59.9852439087,spanish_cond2,001,1050,
images/lollipop03b.jpg,lollipop,z,sounds/greatgatsby_spanish.wav,,,,,,,,,0,0,0,0,0,91,91,42,280.180796735,9.621726349e-06,280.902416941,0.721630469197,,,,z,1,0.700429673423,2018_Nov_26_1232,59.9852439087,spanish_cond2,001,1050,
images/sportshorts02.jpg,tape,x,sounds/greatgatsby_spanish.wav,,,,,,,,,0,0,0,0,0,92,92,230,282.012438946,9.94245056063e-06,282.852925433,0.840496749617,,,,x,1,0.817127862014,2018_Nov_26_1232,59.9852439087,spanish_cond2,001,1050,
images/floorlamp.jpg,floor lamp,z,sounds/greatgatsby_spanish.wav,,,,,,,,,0,0,0,0,0,93,93,26,283.947227488,9.94245056063e-06,284.720069187,0.77285228204,,,,z,1,0.750439792406,2018_Nov_26_1232,59.9852439087,spanish_cond2,001,1050,
images/electrictoothbrush01a.jpg,banjo,x,sounds/greatgatsby_spanish.wav,,,,,,,,,0,0,0,0,0,94,94,127,285.816849474,9.621726349e-06,286.78711807,0.970278859604,,,,x,1,0.950334979803,2018_Nov_26_1232,59.9852439087,spanish_cond2,001,1050,
images/triangleruler02.jpg,bottle of red wine,x,sounds/greatgatsby_spanish.wav,,,,,,,,,0,0,0,0,0,95,95,134,287.900574063,9.94245056063e-06,288.837808444,0.937245285255,,,,x,1,0.917156759184,2018_Nov_26_1232,59.9852439087,spanish_cond2,001,1050,
images/ashtray02b.jpg,ashtray,z,sounds/greatgatsby_spanish.wav,,,,,,,,,0,0,0,0,0,96,96,43,289.951462003,1.02631747723e-05,290.955027808,1.0035763894,,,,z,1,0.983840017929,2018_Nov_26_1232,59.9852439087,spanish_cond2,001,1050,
images/sock03.jpg,sock,z,sounds/greatgatsby_spanish.wav,,,,,,,,,0,0,0,0,0,97,97,90,292.06342182,9.94245056063e-06,292.755507547,0.692096310784,,,,z,1,0.683774493984,2018_Nov_26_1232,59.9852439087,spanish_cond2,001,1050,
images/printer03a.jpg,printer,z,sounds/greatgatsby_spanish.wav,,,,,,,,,0,0,0,0,0,98,98,72,293.866702759,9.94245056063e-06,294.722660954,0.855968779419,,,,z,1,0.833784324233,2018_Nov_26_1232,59.9852439087,spanish_cond2,001,1050,
images/mirror02.jpg,8 ball,x,sounds/greatgatsby_spanish.wav,,,,,,,,,0,0,0,0,0,99,99,121,295.826871126,9.94245056063e-06,297.106458124,1.27959726099,,,,x,1,1.26708069944,2018_Nov_26_1232,59.9852439087,spanish_cond2,001,1050,
images/safe.jpg,safe,z,sounds/greatgatsby_spanish.wav,,,,,,,,,0,0,0,0,0,100,100,78,298.220002957,9.94233414531e-06,299.023785187,0.803792813793,,,,z,1,0.783782223472,2018_Nov_26_1232,59.9852439087,spanish_cond2,001,1050,
images/bed.jpg,bed,z,sounds/greatgatsby_spanish.wav,,,,,,,,,0,0,0,0,0,101,101,103,300.145535414,9.94245056063e-06,301.357726185,1.21220103349,,,,z,1,1.20054304937,2018_Nov_26_1232,59.9852439087,spanish_cond2,001,1050,
images/cake.jpg,cake,z,sounds/greatgatsby_spanish.wav,,,,,,,,,0,0,0,0,0,102,102,23,302.474313403,9.94233414531e-06,303.458262467,0.983959647827,,,,z,1,0.967161746346,2018_Nov_26_1232,59.9852439087,spanish_cond2,001,1050,
images/diaper01a.jpg,camera,x,sounds/greatgatsby_spanish.wav,,,,,,,,,0,0,0,0,0,103,103,143,304.580988977,9.621726349e-06,305.642181126,1.06120273296,,,,x,1,1.05053065333,2018_Nov_26_1232,59.9852439087,spanish_cond2,001,1050,
images/lip.jpg,boxing glove,x,sounds/greatgatsby_spanish.wav,,,,,,,,,0,0,0,0,0,104,104,136,306.747763353,9.621726349e-06,307.909416414,1.16166332422,,,,x,1,1.15054511803,2018_Nov_26_1232,59.9852439087,spanish_cond2,001,1050,
images/rhinoceros01.jpg,envelope,x,sounds/greatgatsby_spanish.wav,,,,,,,,,0,0,0,0,0,105,105,173,309.100306323,9.94245056063e-06,309.826572853,0.726277113659,,,,x,1,0.71709383314,2018_Nov_26_1232,59.9852439087,spanish_cond2,001,1050,
images/tissuebox03.jpg,tissue box,z,sounds/greatgatsby_spanish.wav,,,,,,,,,0,0,0,0,0,106,106,58,310.954347554,9.94245056063e-06,311.827099481,0.872762832209,,,,z,1,0.850470613921,2018_Nov_26_1232,59.9852439087,spanish_cond2,001,1050,
images/egg01b (1).jpg,egg,z,sounds/greatgatsby_spanish.wav,,,,,,,,,0,0,0,0,0,107,107,19,312.942108739,9.621726349e-06,313.62755709,0.685458614025,,,,z,1,0.667076016893,2018_Nov_26_1232,59.9852439087,spanish_cond2,001,1050,
images/pouch01b.jpg,pouch,z,sounds/greatgatsby_spanish.wav,,,,,,,,,0,0,0,0,0,108,108,25,314.741899242,9.30100213736e-06,315.794790742,1.05290176324,,,,z,1,1.03384853317,2018_Nov_26_1232,59.9852439087,spanish_cond2,001,1050,
images/bicycle.jpg,hand bag,x,sounds/greatgatsby_spanish.wav,,,,,,,,,0,0,0,0,0,109,109,186,316.907949104,9.30100213736e-06,317.728625452,0.820685970131,,,,x,1,0.800442534499,2018_Nov_26_1232,59.9852439087,spanish_cond2,001,1050,
images/hat05.jpg,hat,z,sounds/greatgatsby_spanish.wav,,,,,,,,,0,0,0,0,0,110,110,15,318.834729176,9.621726349e-06,319.729157212,0.894438619842,,,,z,1,0.883676416706,2018_Nov_26_1232,59.9852439087,spanish_cond2,001,1050,
images/fork01.jpg,cooking pot,x,sounds/greatgatsby_spanish.wav,,,,,,,,,0,0,0,0,0,111,111,160,320.825065772,9.621726349e-06,321.763010235,0.937954726047,,,,x,1,0.917152269045,2018_Nov_26_1232,59.9852439087,spanish_cond2,001,1050,
images/lipstick04.jpg,lipstick,z,sounds/greatgatsby_spanish.wav,,,,,,,,,0,0,0,0,0,112,112,56,322.89875107,9.621726349e-06,324.063593728,1.16485292092,,,,z,1,1.15053709981,2018_Nov_26_1232,59.9852439087,spanish_cond2,001,1050,
images/handfan01b.jpg,handfan,z,sounds/greatgatsby_spanish.wav,,,,,,,,,0,0,0,0,0,113,113,69,325.211991922,9.621726349e-06,326.347530059,1.13554840058,,,,z,1,1.11720172467,2018_Nov_26_1232,59.9852439087,spanish_cond2,001,1050,
images/bench02.jpg,electric toothbrush,x,sounds/greatgatsby_spanish.wav,,,,,,,,,0,0,0,0,0,114,114,172,327.458656636,9.94245056063e-06,328.398061354,0.93941562227,,,,x,1,0.917158041964,2018_Nov_26_1232,59.9852439087,spanish_cond2,001,1050,
images/beermug01b.jpg,beer mug,z,sounds/greatgatsby_spanish.wav,,,,,,,,,0,0,0,0,0,115,115,111,329.518059468,9.94245056063e-06,332.049016517,2.53096795361,,,,z,1,2.51757645805,2018_Nov_26_1232,59.9852439087,spanish_cond2,001,1050,
images/puma.jpg,puma,z,sounds/greatgatsby_spanish.wav,,,,,,,,,0,0,0,0,0,116,116,4,333.149204493,9.94245056063e-06,334.399627768,1.25043385883,,,,z,1,1.23391113838,2018_Nov_26_1232,59.9852439087,spanish_cond2,001,1050,
images/50dollarbill.jpg,cherry,x,sounds/greatgatsby_spanish.wav,,,,,,,,,0,0,0,0,0,117,117,151,335.52060441,1.05838989839e-05,337.517091203,1.99649769766,,,,x,1,1.98409627611,2018_Nov_26_1232,59.9852439087,spanish_cond2,001,1050,
images/electricguitar02.jpg,electric guitar,z,sounds/greatgatsby_spanish.wav,,,,,,,,,0,0,0,0,0,118,118,100,338.621230816,9.94245056063e-06,339.4509288,0.829708247329,,,,z,1,0.817129465635,2018_Nov_26_1232,59.9852439087,spanish_cond2,001,1050,
images/lock02a.jpg,lock,z,sounds/greatgatsby_spanish.wav,,,,,,,,,0,0,0,0,0,119,119,65,340.564385113,9.94245056063e-06,341.451441316,0.887067107251,,,,z,1,0.867134773522,2018_Nov_26_1232,59.9852439087,spanish_cond2,001,1050,
images/graduationcap.jpg,graduation cap,z,sounds/greatgatsby_spanish.wav,,,,,,,,,0,0,0,0,0,120,120,35,342.555875353,9.94245056063e-06,344.552258552,1.99639378325,,,,z,1,1.98410910496,2018_Nov_26_1232,59.9852439087,spanish_cond2,001,1050,
images/computerkeyboard01a.jpg,computer keyboard,z,sounds/greatgatsby_spanish.wav,,,,,,,,,0,0,0,0,0,121,121,61,345.671104948,9.621726349e-06,346.386050574,0.714955568546,,,,z,1,0.70042486256,2018_Nov_26_1232,59.9852439087,spanish_cond2,001,1050,
images/knife04.jpg,tooth brush,x,sounds/greatgatsby_spanish.wav,,,,,,,,,0,0,0,0,0,122,122,233,347.485170219,9.30100213736e-06,348.3032192,0.818059243378,,,,x,1,0.800460174331,2018_Nov_26_1232,59.9852439087,spanish_cond2,001,1050,
images/gps.jpg,gps,z,sounds/greatgatsby_spanish.wav,,,,,,,,,0,0,0,0,0,123,123,21,349.424231442,9.94245056063e-06,350.820537475,1.39631661715,,,,z,1,1.38393957051,2018_Nov_26_1232,59.9852439087,spanish_cond2,001,1050,
images/crocodile.jpg,triangle ruler,x,sounds/greatgatsby_spanish.wav,,,,,,,,,0,0,0,0,0,124,124,235,351.919447688,9.94245056063e-06,352.704481696,0.785044912482,,,,x,1,0.767240901012,2018_Nov_26_1232,59.9852439087,spanish_cond2,001,1050,
images/battery03b.jpg,battery,z,sounds/greatgatsby_spanish.wav,,,,,,,,,0,0,0,0,0,125,125,34,353.815028726,9.94245056063e-06,354.971606335,1.15658819303,,,,z,1,1.13386588427,2018_Nov_26_1232,59.9852439087,spanish_cond2,001,1050,
images/cheetah.jpg,cheetah,z,sounds/greatgatsby_spanish.wav,,,,,,,,,0,0,0,0,0,126,126,82,356.076687592,9.30100213736e-06,356.98880931,0.912131981691,,,,z,1,0.900485543534,2018_Nov_26_1232,59.9852439087,spanish_cond2,001,1050,
images/licenseplate.jpg,license plate,z,sounds/greatgatsby_spanish.wav,,,,,,,,,0,0,0,0,0,127,127,40,358.108174316,9.621726349e-06,358.872630053,0.76446632063,,,,z,1,0.750445565325,2018_Nov_26_1232,59.9852439087,spanish_cond2,001,1050,
images/ant.jpg,ant,z,sounds/greatgatsby_spanish.wav,,,,,,,,,0,0,0,0,0,128,128,98,359.96976923,9.94245056063e-06,360.73977541,0.770016764174,,,,z,1,0.750446848222,2018_Nov_26_1232,59.9852439087,spanish_cond2,001,1050,
images/watermelon01.jpg,orange,x,sounds/greatgatsby_spanish.wav,,,,,,,,,0,0,0,0,0,129,129,207,361.870955875,1.02631747723e-05,363.107066536,1.23612220737,,,,z,0,1.21723543259,2018_Nov_26_1232,59.9852439087,spanish_cond2,001,1050,
images/cat.jpg,black olive,x,sounds/greatgatsby_spanish.wav,,,,,,,,,0,0,0,0,0,130,130,133,364.23963798,1.02631747723e-05,364.990908447,0.7512810505,,,,x,1,0.733804497751,2018_Nov_26_1232,59.9852439087,spanish_cond2,001,1050,
images/thumbtack02a.jpg,thumb tack,z,sounds/greatgatsby_spanish.wav,,,,,,,,,0,0,0,0,0,131,131,60,366.103487902,9.621726349e-06,366.94140892,0.837931922521,,,,z,1,0.817154482007,2018_Nov_26_1232,59.9852439087,spanish_cond2,001,1050,
images/fryingpan01.jpg,frying pan,z,sounds/greatgatsby_spanish.wav,,,,,,,,,0,0,0,0,0,132,132,45,368.044781682,9.621726349e-06,368.791856762,0.747085022856,,,,z,1,0.733767293859,2018_Nov_26_1232,59.9852439087,spanish_cond2,001,1050,
images/tie01.jpg,bench,x,sounds/greatgatsby_spanish.wav,,,,,,,,,0,0,0,0,0,133,133,130,369.892021646,1.02631747723e-05,370.809046909,0.917035846389,,,,x,1,0.900478487718,2018_Nov_26_1232,59.9852439087,spanish_cond2,001,1050,
images/lamp04b.jpg,parking meter,x,sounds/greatgatsby_spanish.wav,,,,,,,,,0,0,0,0,0,134,134,209,371.930697712,1.09046231955e-05,373.293242128,1.36257167778,,,,x,1,1.35071035475,2018_Nov_26_1232,59.9852439087,spanish_cond2,001,1050,
images/rubberglove02a.jpg,lady bug,x,sounds/greatgatsby_spanish.wav,,,,,,,,,0,0,0,0,0,135,135,192,374.48080036,1.18667958304e-05,375.260205347,0.779416212346,,,,x,1,0.767094009556,2018_Nov_26_1232,59.9852439087,spanish_cond2,001,1050,
images/ceilingfan02.jpg,paper clip,x,sounds/greatgatsby_spanish.wav,,,,,,,,,0,0,0,0,0,136,136,208,376.361042147,9.30100213736e-06,377.094023668,0.732991783996,,,,x,1,0.717108586454,2018_Nov_26_1232,59.9852439087,spanish_cond2,001,1050,
images/orange.jpg,bat,x,sounds/greatgatsby_spanish.wav,,,,,,,,,0,0,0,0,0,137,137,128,378.221054289,9.621726349e-06,379.244568144,1.02352475934,,,,x,1,1.00050000823,2018_Nov_26_1232,59.9852439087,spanish_cond2,001,1050,
images/bullet (2).jpg,rubber glove,x,sounds/greatgatsby_spanish.wav,,,,,,,,,0,0,0,0,0,138,138,217,380.349548052,1.18667958304e-05,381.078383258,0.728847392951,,,,x,1,0.717101530521,2018_Nov_26_1232,59.9852439087,spanish_cond2,001,1050,
images/peach01.jpg,peach,z,sounds/greatgatsby_spanish.wav,,,,,,,,,0,0,0,0,0,139,139,106,382.277574136,9.94233414531e-06,383.028920614,0.751356420456,,,,z,1,0.733803856303,2018_Nov_26_1232,59.9852439087,spanish_cond2,001,1050,
images/grasshopper.jpg,cauliflower,x,sounds/greatgatsby_spanish.wav,,,,,,,,,0,0,0,0,0,140,140,148,384.1250354,9.30100213736e-06,384.879363325,0.75433818833,,,,x,1,0.73376889748,2018_Nov_26_1232,59.9852439087,spanish_cond2,001,1050,
images/chessknight02b (1).jpg,cockroach,x,sounds/greatgatsby_spanish.wav,,,,,,,,,0,0,0,0,0,141,141,155,386.076693044,9.621726349e-06,387.113277671,1.03659521055,,,,x,1,1.01717795897,2018_Nov_26_1232,59.9852439087,spanish_cond2,001,1050,
images/clothespin02a.jpg,clothes pin,z,sounds/greatgatsby_spanish.wav,,,,,,,,,0,0,0,0,0,142,142,79,388.218121271,1.05837825686e-05,389.013759366,0.795648677973,,,,z,1,0.783770036069,2018_Nov_26_1232,59.9852439087,spanish_cond2,001,1050,
images/mushroom01.jpg,shower head,x,sounds/greatgatsby_spanish.wav,,,,,,,,,0,0,0,0,0,143,143,222,390.132937389,9.94245056063e-06,390.914257097,0.781330291182,,,,x,1,0.767109725042,2018_Nov_26_1232,59.9852439087,spanish_cond2,001,1050,
images/lily.jpg,kiwi,x,sounds/greatgatsby_spanish.wav,,,,,,,,,0,0,0,0,0,144,144,190,392.015885763,1.02630583569e-05,392.781409189,0.765534009668,,,,x,1,0.750440433738,2018_Nov_26_1232,59.9852439087,spanish_cond2,001,1050,
images/flower01.jpg,bus,x,sounds/greatgatsby_spanish.wav,,,,,,,,,0,0,0,0,0,145,145,140,393.898605782,9.94245056063e-06,394.732011973,0.833416774985,,,,x,1,0.817220871802,2018_Nov_26_1232,59.9852439087,spanish_cond2,001,1050,
images/icecube02 (2).jpg,aloe,x,sounds/greatgatsby_spanish.wav,,,,,,,,,0,0,0,0,0,146,146,122,395.844861799,9.94245056063e-06,396.849138328,1.00428647164,,,,x,1,0.983848356758,2018_Nov_26_1232,59.9852439087,spanish_cond2,001,1050,
images/aloe02.jpg,broad sword,x,sounds/greatgatsby_spanish.wav,,,,,,,,,0,0,0,0,0,147,147,137,397.971946302,9.621726349e-06,398.89965519,0.927719151368,,,,x,1,0.917146175285,2018_Nov_26_1232,59.9852439087,spanish_cond2,001,1050,
images/drink.jpg,drink,z,sounds/greatgatsby_spanish.wav,,,,,,,,,0,0,0,0,0,148,148,117,400.002279062,9.30100213736e-06,400.883504188,0.881235389039,,,,z,1,0.86713156628,2018_Nov_26_1232,59.9852439087,spanish_cond2,001,1050,
images/pictureframe04.jpg,picture frame,z,sounds/greatgatsby_spanish.wav,,,,,,,,,0,0,0,0,0,149,149,41,402.005853527,1.02631747723e-05,402.917386077,0.911543453694,,,,z,1,0.900497731054,2018_Nov_26_1232,59.9852439087,spanish_cond2,001,1050,
images/elbow.jpg,elbow,z,sounds/greatgatsby_spanish.wav,,,,,,,,,0,0,0,0,0,150,150,105,404.029684257,1.02631747723e-05,404.901062525,0.871389493579,,,,z,1,0.850310572772,2018_Nov_26_1232,59.9852439087,spanish_cond2,001,1050,
images/cherry01.jpg,highlighter,x,sounds/greatgatsby_spanish.wav,,,,,,,,,0,0,0,0,0,151,151,187,406.011920336,9.30100213736e-06,407.335190216,1.32328078488,,,,x,1,1.30059439712,2018_Nov_26_1232,59.9852439087,spanish_cond2,001,1050,
images/plate01b.jpg,plate,z,sounds/greatgatsby_spanish.wav,,,,,,,,,0,0,0,0,0,152,152,3,408.505635596,9.621726349e-06,409.352389022,0.846763689769,,,,z,1,0.833808057825,2018_Nov_26_1232,59.9852439087,spanish_cond2,001,1050,
images/weight01.jpg,weight,z,sounds/greatgatsby_spanish.wav,,,,,,,,,0,0,0,0,0,153,153,67,410.458690954,9.30100213736e-06,411.302874422,0.844193410478,,,,z,1,0.833789776545,2018_Nov_26_1232,59.9852439087,spanish_cond2,001,1050,
images/banana04a.jpg,banana,z,sounds/greatgatsby_spanish.wav,,,,,,,,,0,0,0,0,0,154,154,118,412.409522734,9.621726349e-06,413.586795679,1.17728320765,,,,z,1,1.16720158025,2018_Nov_26_1232,59.9852439087,spanish_cond2,001,1050,
images/highheelshoe02a.jpg,high heel shoe,z,sounds/greatgatsby_spanish.wav,,,,,,,,,0,0,0,0,0,155,155,75,414.694775315,1.02631747723e-05,416.020999061,1.32624042279,,,,z,1,1.31745419826,2018_Nov_26_1232,59.9852439087,spanish_cond2,001,1050,
images/basketball01.jpg,basket ball,z,sounds/greatgatsby_spanish.wav,,,,,,,,,0,0,0,0,0,156,156,33,417.241967075,1.02631747723e-05,418.67144716,1.42949066847,,,,z,1,1.41727687011,2018_Nov_26_1232,59.9852439087,spanish_cond2,001,1050,
images/baseball01a.jpg,baseball,z,sounds/greatgatsby_spanish.wav,,,,,,,,,0,0,0,0,0,157,157,74,419.858372603,9.30100213736e-06,420.538601497,0.680239157169,,,,z,1,0.667084034998,2018_Nov_26_1232,59.9852439087,spanish_cond2,001,1050,
images/ladder.jpg,ladder,z,sounds/greatgatsby_spanish.wav,,,,,,,,,0,0,0,0,0,158,158,113,421.632966415,1.02631747723e-05,422.405750703,0.772795193247,,,,z,1,0.75043754722,2018_Nov_26_1232,59.9852439087,spanish_cond2,001,1050,
images/coin01b.jpg,arrow,x,sounds/greatgatsby_spanish.wav,,,,,,,,,0,0,0,0,0,159,159,124,423.510546516,9.94233414531e-06,424.356270741,0.845734808361,,,,x,1,0.833806454088,2018_Nov_26_1232,59.9852439087,spanish_cond2,001,1050,
images/kiwi03.jpg,backpack,x,sounds/greatgatsby_spanish.wav,,,,,,,,,0,0,0,0,0,160,160,125,425.561052153,1.05838989839e-05,426.340360282,0.779318712419,,,,x,1,0.767363738152,2018_Nov_26_1232,59.9852439087,spanish_cond2,001,1050,
images/aquarium.jpg,computer mouse,x,sounds/greatgatsby_spanish.wav,,,,,,,,,0,0,0,0,0,161,161,159,427.476867967,9.62160993367e-06,428.490663895,1.01380651188,,,,x,1,1.00048429263,2018_Nov_26_1232,59.9852439087,spanish_cond2,001,1050,
images/broadsword.jpg,teapot,x,sounds/greatgatsby_spanish.wav,,,,,,,,,0,0,0,0,0,162,162,231,429.584807513,1.02631747723e-05,430.391149438,0.806352188578,,,,x,1,0.783781902748,2018_Nov_26_1232,59.9852439087,spanish_cond2,001,1050,
images/pen03c.jpg,pepper,x,sounds/greatgatsby_spanish.wav,,,,,,,,,0,0,0,0,0,163,163,211,431.486697505,9.94245056063e-06,432.4250108,0.938323878916,,,,x,1,0.917147137458,2018_Nov_26_1232,59.9852439087,spanish_cond2,001,1050,
images/cola.jpg,comb,x,sounds/greatgatsby_spanish.wav,,,,,,,,,0,0,0,0,0,164,164,157,433.547462771,9.621726349e-06,434.942331321,1.39487913379,,,,x,1,1.38393475965,2018_Nov_26_1232,59.9852439087,spanish_cond2,001,1050,
images/parkfountain.jpg,park fountain,z,sounds/greatgatsby_spanish.wav,,,,,,,,,0,0,0,0,0,165,165,93,436.138901246,9.94245056063e-06,437.526333497,1.38744283502,,,,z,1,1.36725809181,2018_Nov_26_1232,59.9852439087,spanish_cond2,001,1050,
images/notebook02b.jpg,notebook,z,sounds/greatgatsby_spanish.wav,,,,,,,,,0,0,0,0,0,166,166,7,438.634909679,9.30100213736e-06,439.393506757,0.758607020252,,,,z,1,0.7337746704,2018_Nov_26_1232,59.9852439087,spanish_cond2,001,1050,
images/razor04a.jpg,razor,z,sounds/greatgatsby_spanish.wav,,,,,,,,,0,0,0,0,0,167,167,36,440.49467294,1.02631747723e-05,441.343996647,0.849334290018,,,,z,1,0.833795549581,2018_Nov_26_1232,59.9852439087,spanish_cond2,001,1050,
images/calculator02b.jpg,dice,x,sounds/greatgatsby_spanish.wav,,,,,,,,,0,0,0,0,0,168,168,165,442.447043233,1.02631747723e-05,443.544579786,1.0975480997,,,,x,1,1.08387661248,2018_Nov_26_1232,59.9852439087,spanish_cond2,001,1050,
images/bus.jpg,microphone,x,sounds/greatgatsby_spanish.wav,,,,,,,,,0,0,0,0,0,169,169,203,444.66447559,9.30088572204e-06,445.461721471,0.797256144928,,,,x,1,0.783765866654,2018_Nov_26_1232,59.9852439087,spanish_cond2,001,1050,
images/paperclip04.jpg,eye drops,x,sounds/greatgatsby_spanish.wav,,,,,,,,,0,0,0,0,0,170,170,174,446.632922155,1.05838989839e-05,447.378899398,0.74598846864,,,,x,1,0.733772104722,2018_Nov_26_1232,59.9852439087,spanish_cond2,001,1050,
images/charcoalbarbecue.jpg,charcoal barbecue,z,sounds/greatgatsby_spanish.wav,,,,,,,,,0,0,0,0,0,171,171,77,448.49730961,1.09046231955e-05,449.812868652,1.3155702675,,,,z,1,1.30059407651,2018_Nov_26_1232,59.9852439087,spanish_cond2,001,1050,
images/redfox.jpg,red fox,z,sounds/greatgatsby_spanish.wav,,,,,,,,,0,0,0,0,0,172,172,1,450.92666365,9.621726349e-06,451.696684904,0.770031517488,,,,z,1,0.750444603153,2018_Nov_26_1232,59.9852439087,spanish_cond2,001,1050,
images/feather03b.jpg,feather,z,sounds/greatgatsby_spanish.wav,,,,,,,,,0,0,0,0,0,173,173,114,452.798713834,1.05838989839e-05,453.513827519,0.715124589973,,,,z,1,0.700439295149,2018_Nov_26_1232,59.9852439087,spanish_cond2,001,1050,
images/lighter02b.jpg,stapler,x,sounds/greatgatsby_spanish.wav,,,,,,,,,0,0,0,0,0,174,174,227,454.617405545,1.02631747723e-05,455.464315805,0.846921165125,,,,x,1,0.833793304511,2018_Nov_26_1232,59.9852439087,spanish_cond2,001,1050,
images/nailpolish02b.jpg,nail polish,z,sounds/greatgatsby_spanish.wav,,,,,,,,,0,0,0,0,0,175,175,94,456.574195409,9.94245056063e-06,457.61487279,1.04068764439,,,,z,1,1.01716705435,2018_Nov_26_1232,59.9852439087,spanish_cond2,001,1050,
images/parkingmeter.jpg,ear,x,sounds/greatgatsby_spanish.wav,,,,,,,,,0,0,0,0,0,176,176,171,458.717989294,1.02631747723e-05,459.4820329,0.764054511441,,,,x,1,0.750447168946,2018_Nov_26_1232,59.9852439087,spanish_cond2,001,1050,
images/panda.jpg,panda,z,sounds/greatgatsby_spanish.wav,,,,,,,,,0,0,0,0,0,177,177,83,460.593109124,9.30100213736e-06,461.849305746,1.2562062433,,,,z,1,1.23389414011,2018_Nov_26_1232,59.9852439087,spanish_cond2,001,1050,
images/antelope.jpg,antelope,z,sounds/greatgatsby_spanish.wav,,,,,,,,,0,0,0,0,0,178,178,12,462.954472956,9.621726349e-06,463.999861127,1.04539811262,,,,z,1,1.03384051507,2018_Nov_26_1232,59.9852439087,spanish_cond2,001,1050,
images/plant01.jpg,plant,z,sounds/greatgatsby_spanish.wav,,,,,,,,,0,0,0,0,0,179,179,47,465.112924554,9.621726349e-06,465.967055587,0.854140975396,,,,z,1,0.833810944343,2018_Nov_26_1232,59.9852439087,spanish_cond2,001,1050,
images/bowl02b (1).jpg,bowl,z,sounds/greatgatsby_spanish.wav,,,,,,,,,0,0,0,0,0,180,180,24,467.086191275,9.94245056063e-06,467.834197416,0.748016083613,,,,z,1,0.733775953413,2018_Nov_26_1232,59.9852439087,spanish_cond2,001,1050,
images/cupcake.jpg,scissors,x,sounds/greatgatsby_spanish.wav,,,,,,,,,0,0,0,0,0,181,181,219,468.954895029,8.98027792573e-06,469.768026995,0.81314190838,,,,x,1,0.800379031221,2018_Nov_26_1232,59.9852439087,spanish_cond2,001,1050,
images/butterfly.jpg,butterfly,z,sounds/greatgatsby_spanish.wav,,,,,,,,,0,0,0,0,0,182,182,91,470.877522692,9.94233414531e-06,471.718542863,0.841029792326,,,,z,1,0.817131389864,2018_Nov_26_1232,59.9852439087,spanish_cond2,001,1050,
images/raisin.jpg,ruler,x,sounds/greatgatsby_spanish.wav,,,,,,,,,0,0,0,0,0,183,183,218,472.825368856,9.94245056063e-06,473.669051995,0.843694043695,,,,x,1,0.83380388841,2018_Nov_26_1232,59.9852439087,spanish_cond2,001,1050,
images/hammer02a.jpg,flower,x,sounds/greatgatsby_spanish.wav,,,,,,,,,0,0,0,0,0,184,184,176,474.765611304,9.94245056063e-06,475.886299295,1.12069889542,,,,x,1,1.10051158629,2018_Nov_26_1232,59.9852439087,spanish_cond2,001,1050,
images/coffeepot03b.jpg,coffee pot,z,sounds/greatgatsby_spanish.wav,,,,,,,,,0,0,0,0,0,185,185,107,477.009495345,1.02631747723e-05,477.853462003,0.843977563432,,,,z,1,0.833800360444,2018_Nov_26_1232,59.9852439087,spanish_cond2,001,1050,
images/barrel01.jpg,barrel,z,sounds/greatgatsby_spanish.wav,,,,,,,,,0,0,0,0,0,186,186,9,478.984979549,9.621726349e-06,479.720679844,0.735710879206,,,,z,1,0.71717048611,2018_Nov_26_1232,59.9852439087,spanish_cond2,001,1050,
images/pineapple01a.jpg,pineapple,z,sounds/greatgatsby_spanish.wav,,,,,,,,,0,0,0,0,0,187,187,51,480.834732383,9.94245056063e-06,481.587758812,0.753037012531,,,,z,1,0.733774349676,2018_Nov_26_1232,59.9852439087,spanish_cond2,001,1050,
images/lantern03.jpg,lantern,z,sounds/greatgatsby_spanish.wav,,,,,,,,,0,0,0,0,0,188,188,5,482.696485414,1.02630583569e-05,483.771665605,1.07519141585,,,,z,1,1.05052712536,2018_Nov_26_1232,59.9852439087,spanish_cond2,001,1050,
images/pingpongpaddle01c (1).jpg,ping pong paddle,z,sounds/greatgatsby_spanish.wav,,,,,,,,,0,0,0,0,0,189,189,10,484.884597214,1.02631747723e-05,485.788840998,0.90425468795,,,,z,1,0.883806309896,2018_Nov_26_1232,59.9852439087,spanish_cond2,001,1050,
images/swallow.jpg,mattress,x,sounds/greatgatsby_spanish.wav,,,,,,,,,0,0,0,0,0,190,190,202,486.89181478,1.05837825686e-05,487.572652086,0.680848532123,,,,z,0,0.667081469321,2018_Nov_26_1232,59.9852439087,spanish_cond2,001,1050,
images/gorilla.jpg,gorilla,z,sounds/greatgatsby_spanish.wav,,,,,,,,,0,0,0,0,0,191,191,80,488.684812035,1.02630583569e-05,489.439792954,0.754991502385,,,,z,1,0.733771783998,2018_Nov_26_1232,59.9852439087,spanish_cond2,001,1050,
images/magnifyingglass01b.jpg,magnifying glass,z,sounds/greatgatsby_spanish.wav,,,,,,,,,0,0,0,0,0,192,192,64,490.549033034,1.02631747723e-05,491.390312029,0.841289899196,,,,z,1,0.817144218832,2018_Nov_26_1232,59.9852439087,spanish_cond2,001,1050,
images/bracelet02a.jpg,chess knight,x,sounds/greatgatsby_spanish.wav,,,,,,,,,0,0,0,0,0,193,193,152,492.500935711,9.94245056063e-06,493.24079034,0.739865533425,,,,x,1,0.717113076593,2018_Nov_26_1232,59.9852439087,spanish_cond2,001,1050,
images/chameleon.jpg,50 dollar bill,x,sounds/greatgatsby_spanish.wav,,,,,,,,,0,0,0,0,0,194,194,120,494.353797961,9.94245056063e-06,495.107923831,0.75413645315,,,,x,1,0.733767614467,2018_Nov_26_1232,59.9852439087,spanish_cond2,001,1050,
images/cockroach02.jpg,belt,x,sounds/greatgatsby_spanish.wav,,,,,,,,,0,0,0,0,0,195,195,129,496.208378328,9.30100213736e-06,497.075110273,0.866741887061,,,,x,1,0.850473821047,2018_Nov_26_1232,59.9852439087,spanish_cond2,001,1050,
images/globe.jpg,cloud,x,sounds/greatgatsby_spanish.wav,,,,,,,,,0,0,0,0,0,196,196,154,498.204582884,1.02631747723e-05,499.025693813,0.821152623161,,,,x,1,0.800461457227,2018_Nov_26_1232,59.9852439087,spanish_cond2,001,1050,
images/dice05a.jpg,band aid,x,sounds/greatgatsby_spanish.wav,,,,,,,,,0,0,0,0,0,197,197,126,500.139370464,9.94245056063e-06,501.259520281,1.12016072113,,,,x,1,1.10052698106,2018_Nov_26_1232,59.9852439087,spanish_cond2,001,1050,
images/cocktailshrimp01.jpg,cocktail shrimp,z,sounds/greatgatsby_spanish.wav,,,,,,,,,0,0,0,0,0,198,198,30,502.37687916,1.02631747723e-05,503.576800647,1.19993239141,,,,z,1,1.18389685021,2018_Nov_26_1232,59.9852439087,spanish_cond2,001,1050,
images/diploma01.jpg,glasses,x,sounds/greatgatsby_spanish.wav,,,,,,,,,0,0,0,0,0,199,199,179,504.709687362,9.621726349e-06,505.593982134,0.884305035113,,,,x,1,0.867136377143,2018_Nov_26_1232,59.9852439087,spanish_cond2,001,1050,
images/lightbulb03b.jpg,treadmill,x,sounds/greatgatsby_spanish.wav,,,,,,,,,0,0,0,0,0,200,200,234,506.697659583,9.94245056063e-06,507.644522088,0.946872767992,,,,x,1,0.93383503065,2018_Nov_26_1232,59.9852439087,spanish_cond2,001,1050,
images/shotglass.jpg,shot glass,z,sounds/greatgatsby_spanish.wav,,,,,,,,,0,0,0,0,0,201,201,86,508.832220476,9.94245056063e-06,510.311890605,1.47968071315,,,,x,0,1.46731232619,2018_Nov_26_1232,59.9852439087,spanish_cond2,001,1050,
images/acousticguitar02.jpg,acoustic guitar,z,sounds/greatgatsby_spanish.wav,,,,,,,,,0,0,0,0,0,202,202,97,511.426087149,9.94245056063e-06,512.629131843,1.2030552777,,,,z,1,1.18388017255,2018_Nov_26_1232,59.9852439087,spanish_cond2,001,1050,
images/bull.jpg,button,x,sounds/greatgatsby_spanish.wav,,,,,,,,,0,0,0,0,0,203,203,141,513.737116932,9.30100213736e-06,514.796360043,1.05925305386,,,,x,1,1.05050724058,2018_Nov_26_1232,59.9852439087,spanish_cond2,001,1050,
images/dryingmachine01.jpg,drying machine,z,sounds/greatgatsby_spanish.wav,,,,,,,,,0,0,0,0,0,204,204,18,515.919443198,9.621726349e-06,516.746864686,0.827432392281,,,,z,1,0.817114070756,2018_Nov_26_1232,59.9852439087,spanish_cond2,001,1050,
images/grandpiano.jpg,tulip,x,sounds/greatgatsby_spanish.wav,,,,,,,,,0,0,0,0,0,205,205,236,517.863162932,1.02630583569e-05,518.580676271,0.717523923493,,,,x,1,0.700426466297,2018_Nov_26_1232,59.9852439087,spanish_cond2,001,1050,
images/honeycomb.jpg,honey comb,z,sounds/greatgatsby_spanish.wav,,,,,,,,,0,0,0,0,0,206,206,59,519.695358712,9.621726349e-06,521.047991484,1.35264335631,,,,z,1,1.33393297973,2018_Nov_26_1232,59.9852439087,spanish_cond2,001,1050,
images/teapot.jpg,light switch,x,sounds/greatgatsby_spanish.wav,,,,,,,,,0,0,0,0,0,207,207,197,522.165979944,9.94245056063e-06,522.948473179,0.782503818977,,,,x,1,0.767111328663,2018_Nov_26_1232,59.9852439087,spanish_cond2,001,1050,
images/marker01a.jpg,marker,z,sounds/greatgatsby_spanish.wav,,,,,,,,,0,0,0,0,0,208,208,95,524.108055969,9.621726349e-06,524.982378801,0.874332774547,,,,z,1,0.850497875363,2018_Nov_26_1232,59.9852439087,spanish_cond2,001,1050,
images/headphones02b.jpg,headphones,z,sounds/greatgatsby_spanish.wav,,,,,,,,,0,0,0,0,0,209,209,101,526.091619523,9.30100213736e-06,527.249594525,1.15798494453,,,,z,1,1.13387743034,2018_Nov_26_1232,59.9852439087,spanish_cond2,001,1050,
images/candycane01a.jpg,lip,x,sounds/greatgatsby_spanish.wav,,,,,,,,,0,0,0,0,0,210,210,200,528.345605717,1.02631747723e-05,529.050067849,0.704473036574,,,,x,1,0.683770324686,2018_Nov_26_1232,59.9852439087,spanish_cond2,001,1050,
images/blueberry02.jpg,blueberry,z,sounds/greatgatsby_spanish.wav,,,,,,,,,0,0,0,0,0,211,211,46,530.164408398,5.93339791521e-05,530.950554034,0.786175784189,,,,z,1,0.767113894457,2018_Nov_26_1232,59.9852439087,spanish_cond2,001,1050,
images/nailclipper03a.jpg,aquarium,x,sounds/greatgatsby_spanish.wav,,,,,,,,,0,0,0,0,0,212,212,123,532.051637471,9.94245056063e-06,532.98458987,0.932962983032,,,,x,1,0.91733540222,2018_Nov_26_1232,59.9852439087,spanish_cond2,001,1050,
images/spoon02b.jpg,spoon,z,sounds/greatgatsby_spanish.wav,,,,,,,,,0,0,0,0,0,213,213,38,534.077635009,9.30100213736e-06,534.83489499,0.757270244067,,,,z,1,0.733774028951,2018_Nov_26_1232,59.9852439087,spanish_cond2,001,1050,
images/apple06.jpg,apple,z,sounds/greatgatsby_spanish.wav,,,,,,,,,0,0,0,0,0,214,214,13,535.963535645,9.94245056063e-06,536.668690861,0.705165799707,,,,z,1,0.683747232542,2018_Nov_26_1232,59.9852439087,spanish_cond2,001,1050,
images/bandaid01.jpg,door handle,x,sounds/greatgatsby_spanish.wav,,,,,,,,,0,0,0,0,0,215,215,170,537.77917118,9.30100213736e-06,538.769246065,0.990084828227,,,,x,1,0.967164632981,2018_Nov_26_1232,59.9852439087,spanish_cond2,001,1050,
images/eyedrops.jpg,bicycle,x,sounds/greatgatsby_spanish.wav,,,,,,,,,0,0,0,0,0,216,216,131,539.871479617,9.94233414531e-06,540.653062318,0.781593605294,,,,x,1,0.767108121421,2018_Nov_26_1232,59.9852439087,spanish_cond2,001,1050,
images/backpack01b.jpg,swallow,x,sounds/greatgatsby_spanish.wav,,,,,,,,,0,0,0,0,0,217,217,228,541.785746335,9.94245056063e-06,543.620512074,1.83477568114,,,,x,1,1.8173950247,2018_Nov_26_1232,59.9852439087,spanish_cond2,001,1050,
images/radish01.jpg,raisin,x,sounds/greatgatsby_spanish.wav,,,,,,,,,0,0,0,0,0,218,218,214,544.732806726,1.02631747723e-05,545.671025729,0.938229586231,,,,x,1,0.917139119352,2018_Nov_26_1232,59.9852439087,spanish_cond2,001,1050,
images/seagull.jpg,seagull,z,sounds/greatgatsby_spanish.wav,,,,,,,,,0,0,0,0,0,219,219,50,546.780184666,1.02631747723e-05,547.504837956,0.724663552945,,,,z,1,0.700430314871,2018_Nov_26_1232,59.9852439087,spanish_cond2,001,1050,
images/cauliflower01.jpg,glue stick,x,sounds/greatgatsby_spanish.wav,,,,,,,,,0,0,0,0,0,220,220,181,548.622448603,9.621726349e-06,549.438672025,0.816233684425,,,,x,1,0.800440289429,2018_Nov_26_1232,59.9852439087,spanish_cond2,001,1050,
images/masquerademask02b.jpg,mirror,x,sounds/greatgatsby_spanish.wav,,,,,,,,,0,0,0,0,0,221,221,204,550.546101941,9.621726349e-06,551.655915475,1.10982411832,,,,x,1,1.10053339554,2018_Nov_26_1232,59.9852439087,spanish_cond2,001,1050,
images/bowlingball.jpg,bowling ball,z,sounds/greatgatsby_spanish.wav,,,,,,,,,0,0,0,0,0,222,222,20,552.789210151,1.02631747723e-05,553.839815533,1.05061628646,,,,z,1,1.033847571,2018_Nov_26_1232,59.9852439087,spanish_cond2,001,1050,
images/lettuce.jpg,mushroom,x,sounds/greatgatsby_spanish.wav,,,,,,,,,0,0,0,0,0,223,223,205,554.965362166,9.62160993367e-06,555.756977423,0.791624878999,,,,x,1,0.767109404318,2018_Nov_26_1232,59.9852439087,spanish_cond2,001,1050,
images/eraser.jpg,eraser,z,sounds/greatgatsby_spanish.wav,,,,,,,,,0,0,0,0,0,224,224,110,556.865175794,9.62160993367e-06,557.757500524,0.89233499323,,,,z,1,0.883793160203,2018_Nov_26_1232,59.9852439087,spanish_cond2,001,1050,
images/volleyball.jpg,volley ball,z,sounds/greatgatsby_spanish.wav,,,,,,,,,0,0,0,0,0,225,225,2,558.890364788,9.94245056063e-06,559.941407637,1.05105279142,,,,z,1,1.03385975841,2018_Nov_26_1232,59.9852439087,spanish_cond2,001,1050,
images/bottleofredwine02.jpg,pipe,x,sounds/greatgatsby_spanish.wav,,,,,,,,,0,0,0,0,0,226,226,213,561.041413763,9.30100213736e-06,562.308528459,1.26712528011,,,,x,1,1.25042167143,2018_Nov_26_1232,59.9852439087,spanish_cond2,001,1050,
,,,sounds/greatgatsby_spanish.wav,,,,,,,,,0,0,0,0,,,,,,,,,,,,,,,2018_Nov_26_1232,59.9852439087,spanish_cond2,001,1050,
images/egg01b (1).jpg,egg,z,sounds/animalfarm_english.wav,,,,,,,,,0,1,1,1,0,0,0,19,583.44736556,9.621726349e-06,585.898124376,2.45077004144,,,573.311709396,x,0,2.4342091548,2018_Nov_26_1232,59.9852439087,spanish_cond2,001,1050,
images/lion.jpg,lion,z,sounds/animalfarm_english.wav,,,,,,,,,0,1,1,1,0,1,1,44,587.011050213,9.30088572204e-06,588.015334119,1.00429416902,,,,z,1,0.983833924169,2018_Nov_26_1232,59.9852439087,spanish_cond2,001,1050,
images/electrictoothbrush01a.jpg,banjo,x,sounds/animalfarm_english.wav,,,,,,,,,0,1,1,1,0,2,2,127,589.108939883,9.30100213736e-06,589.882496795,0.773567495751,,,,x,1,0.7504253597,2018_Nov_26_1232,59.9852439087,spanish_cond2,001,1050,
images/rubberglove02a.jpg,lady bug,x,sounds/animalfarm_english.wav,,,,,,,,,0,1,1,1,0,3,3,192,590.985795791,9.94245056063e-06,592.54984222,1.56405669241,,,,x,1,1.55064306688,2018_Nov_26_1232,59.9852439087,spanish_cond2,001,1050,
images/tie01.jpg,bench,x,sounds/animalfarm_english.wav,,,,,,,,,0,1,1,1,0,4,4,130,593.647690517,9.94245056063e-06,594.500361295,0.85268104123,,,,x,1,0.83380388841,2018_Nov_26_1232,59.9852439087,spanish_cond2,001,1050,
images/hairband.jpg,hairband,z,sounds/animalfarm_english.wav,,,,,,,,,0,1,1,1,0,5,5,66,595.609449032,9.94245056063e-06,596.400852291,0.791413842817,,,,z,1,0.767117743148,2018_Nov_26_1232,59.9852439087,spanish_cond2,001,1050,
images/leaf01a.jpg,leaf,z,sounds/animalfarm_english.wav,,,,,,,,,0,1,1,1,0,6,6,68,597.503518178,9.621726349e-06,598.384708666,0.881201713113,,,,z,1,0.867153054802,2018_Nov_26_1232,59.9852439087,spanish_cond2,001,1050,
images/peach01.jpg,peach,z,sounds/animalfarm_english.wav,,,,,,,,,0,1,1,1,0,7,7,106,599.569776478,1.05838989839e-05,600.285198379,0.715433126083,,,,z,1,0.700443785288,2018_Nov_26_1232,59.9852439087,spanish_cond2,001,1050,
images/cola.jpg,comb,x,sounds/animalfarm_english.wav,,,,,,,,,0,1,1,1,0,8,8,157,601.405473277,9.62160993367e-06,602.4022391,0.996776085813,,,,x,1,0.98367163795,2018_Nov_26_1232,59.9852439087,spanish_cond2,001,1050,
images/lychee02a.jpg,lychee,z,sounds/animalfarm_english.wav,,,,,,,,,0,1,1,1,0,9,9,62,603.525463694,9.94245056063e-06,604.452924342,0.927471231902,,,,z,1,0.91714200587,2018_Nov_26_1232,59.9852439087,spanish_cond2,001,1050,
images/ladder.jpg,ladder,z,sounds/animalfarm_english.wav,,,,,,,,,0,1,1,1,0,10,10,113,605.544791143,9.94245056063e-06,606.370098741,0.825318502728,,,,z,1,0.817128503346,2018_Nov_26_1232,59.9852439087,spanish_cond2,001,1050,
images/dragonfly02.jpg,dragon fly,z,sounds/animalfarm_english.wav,,,,,,,,,0,1,1,1,0,11,11,29,607.467741134,9.62160993367e-06,608.237242495,0.769511624472,,,,z,1,0.750438830117,2018_Nov_26_1232,59.9852439087,spanish_cond2,001,1050,
images/puzzle.jpg,puzzle,z,sounds/animalfarm_english.wav,,,,,,,,,0,1,1,1,0,12,12,57,609.356739318,1.02631747723e-05,610.004380123,0.6476517095,,,,z,1,0.633729416411,2018_Nov_26_1232,59.9852439087,spanish_cond2,001,1050,
images/ladybug03.jpg,giraffe,x,sounds/animalfarm_english.wav,,,,,,,,,0,1,1,1,0,13,13,178,611.106732342,9.30100213736e-06,611.971540586,0.864818827948,,,,x,1,0.850456181332,2018_Nov_26_1232,59.9852439087,spanish_cond2,001,1050,
images/lamp04b.jpg,parking meter,x,sounds/animalfarm_english.wav,,,,,,,,,0,1,1,1,0,14,14,209,613.091406562,9.621726349e-06,613.872032865,0.7806368866,,,,x,1,0.767091764486,2018_Nov_26_1232,59.9852439087,spanish_cond2,001,1050,
images/floorlamp.jpg,floor lamp,z,sounds/animalfarm_english.wav,,,,,,,,,0,1,1,1,0,15,15,26,614.964587298,9.30100213736e-06,615.655843312,0.691266598646,,,,z,1,0.66708980815,2018_Nov_26_1232,59.9852439087,spanish_cond2,001,1050,
images/lightbulb03b.jpg,treadmill,x,sounds/animalfarm_english.wav,,,,,,,,,0,1,1,1,0,16,16,234,616.757913616,9.94245056063e-06,617.65636096,0.898457928561,,,,x,1,0.883817214402,2018_Nov_26_1232,59.9852439087,spanish_cond2,001,1050,
images/bracelet02a.jpg,chess knight,x,sounds/animalfarm_english.wav,,,,,,,,,0,1,1,1,0,17,17,152,618.765351518,9.621726349e-06,619.490194997,0.724853421329,,,,x,1,0.700459821499,2018_Nov_26_1232,59.9852439087,spanish_cond2,001,1050,
images/bicycle.jpg,hand bag,x,sounds/animalfarm_english.wav,,,,,,,,,0,1,1,1,0,18,18,186,620.6000746,9.621726349e-06,621.34064765,0.740582992206,,,,x,1,0.717109548626,2018_Nov_26_1232,59.9852439087,spanish_cond2,001,1050,
images/lighter02b.jpg,stapler,x,sounds/animalfarm_english.wav,,,,,,,,,0,1,1,1,0,19,19,227,622.441937953,1.09046231955e-05,623.141107504,0.699180775555,,,,x,1,0.683755892096,2018_Nov_26_1232,59.9852439087,spanish_cond2,001,1050,
images/lipstick04.jpg,lipstick,z,sounds/animalfarm_english.wav,,,,,,,,,0,1,1,1,0,20,20,56,624.24028488,9.94245056063e-06,625.058264263,0.817989325733,,,,z,1,0.800447345246,2018_Nov_26_1232,59.9852439087,spanish_cond2,001,1050,
images/dreamcatcher.jpg,dream catcher,z,sounds/animalfarm_english.wav,,,,,,,,,0,1,1,1,0,21,21,48,626.156299863,9.621726349e-06,627.00877532,0.852486041258,,,,z,1,0.833793304511,2018_Nov_26_1232,59.9852439087,spanish_cond2,001,1050,
images/parkfountain.jpg,park fountain,z,sounds/animalfarm_english.wav,,,,,,,,,0,1,1,1,0,22,22,93,628.129064972,9.621726349e-06,629.042637965,0.91358421836,,,,z,1,0.900481694844,2018_Nov_26_1232,59.9852439087,spanish_cond2,001,1050,
images/backpack01b.jpg,swallow,x,sounds/animalfarm_english.wav,,,,,,,,,0,1,1,1,0,23,23,228,630.173027526,1.05838989839e-05,631.476596955,1.30358033429,,,,x,1,1.28390522103,2018_Nov_26_1232,59.9852439087,spanish_cond2,001,1050,
images/magnifyingglass01b.jpg,magnifying glass,z,sounds/animalfarm_english.wav,,,,,,,,,0,1,1,1,0,24,24,64,632.58331262,1.02631747723e-05,633.19370907,0.61040735431,,,,z,1,0.600401417702,2018_Nov_26_1232,59.9852439087,spanish_cond2,001,1050,
images/corkscrew02a.jpg,masquerade mask,x,sounds/animalfarm_english.wav,,,,,,,,,0,1,1,1,0,25,25,201,634.297411856,1.02631747723e-05,635.177557747,0.880155833205,,,,x,1,0.867130283383,2018_Nov_26_1232,59.9852439087,spanish_cond2,001,1050,
images/nametag01a.jpg,name tag,z,sounds/animalfarm_english.wav,,,,,,,,,0,1,1,1,0,26,26,108,636.297305055,9.94233414531e-06,637.144596656,0.847302826238,,,,z,1,0.833643847262,2018_Nov_26_1232,59.9852439087,spanish_cond2,001,1050,
images/cloud.jpg,ceiling fan,x,sounds/animalfarm_english.wav,,,,,,,,,0,1,1,1,0,27,27,149,638.25052751,9.621726349e-06,639.211946379,0.961429773248,,,,x,1,0.950499511091,2018_Nov_26_1232,59.9852439087,spanish_cond2,001,1050,
images/corn01.jpg,corn,z,sounds/animalfarm_english.wav,,,,,,,,,0,1,1,1,0,28,28,22,640.313256888,9.621726349e-06,641.245799081,0.932552456739,,,,z,1,0.917054127669,2018_Nov_26_1232,59.9852439087,spanish_cond2,001,1050,
images/sunglasses03a.jpg,sun glasses,z,sounds/animalfarm_english.wav,,,,,,,,,0,1,1,1,0,29,29,17,642.353888726,1.02631747723e-05,643.196297951,0.842419488006,,,,z,1,0.833786248579,2018_Nov_26_1232,59.9852439087,spanish_cond2,001,1050,
images/cookingpot.jpg,grasshopper,x,sounds/animalfarm_english.wav,,,,,,,,,0,1,1,1,0,30,30,183,644.309732456,9.621726349e-06,645.063462231,0.753740038723,,,,x,1,0.733782047057,2018_Nov_26_1232,59.9852439087,spanish_cond2,001,1050,
images/radio03a.jpg,radio,z,sounds/animalfarm_english.wav,,,,,,,,,0,1,1,1,0,31,31,37,646.17723125,9.30100213736e-06,647.547438396,1.37021708826,,,,z,1,1.35060162947,2018_Nov_26_1232,59.9852439087,spanish_cond2,001,1050,
images/plant01.jpg,plant,z,sounds/animalfarm_english.wav,,,,,,,,,0,1,1,1,0,32,32,47,648.65952522,9.94245056063e-06,649.731329794,1.07181483728,,,,z,1,1.05052006943,2018_Nov_26_1232,59.9852439087,spanish_cond2,001,1050,
images/djmixer01.jpg,light bulb,x,sounds/animalfarm_english.wav,,,,,,,,,0,1,1,1,0,33,33,196,650.853069117,1.02631747723e-05,651.665176371,0.812117516994,,,,x,1,0.800464985194,2018_Nov_26_1232,59.9852439087,spanish_cond2,001,1050,
images/basketball01.jpg,basket ball,z,sounds/animalfarm_english.wav,,,,,,,,,0,1,1,1,0,34,34,33,652.804783529,9.94233414531e-06,653.615511351,0.810738405213,,,,z,1,0.800290511455,2018_Nov_26_1232,59.9852439087,spanish_cond2,001,1050,
images/eyedrops.jpg,bicycle,x,sounds/animalfarm_english.wav,,,,,,,,,0,1,1,1,0,35,35,131,654.716308702,9.621726349e-06,656.133014684,1.41671624524,,,,x,1,1.40061527619,2018_Nov_26_1232,59.9852439087,spanish_cond2,001,1050,
images/barrel01.jpg,barrel,z,sounds/animalfarm_english.wav,,,,,,,,,0,1,1,1,0,36,36,9,657.263187114,9.94245056063e-06,658.150179493,0.887002641801,,,,z,1,0.867137339315,2018_Nov_26_1232,59.9852439087,spanish_cond2,001,1050,
images/ant.jpg,ant,z,sounds/animalfarm_english.wav,,,,,,,,,0,1,1,1,0,37,37,98,659.244631647,9.62160993367e-06,660.667735104,1.42311404063,,,,x,0,1.40077948675,2018_Nov_26_1232,59.9852439087,spanish_cond2,001,1050,
images/button07.jpg,radish,x,sounds/animalfarm_english.wav,,,,,,,,,0,1,1,1,0,38,38,215,661.779978441,9.94245056063e-06,662.734697392,0.954729535384,,,,x,1,0.933818994556,2018_Nov_26_1232,59.9852439087,spanish_cond2,001,1050,
images/cake.jpg,cake,z,sounds/animalfarm_english.wav,,,,,,,,,0,1,1,1,0,39,39,23,663.848702785,9.30100213736e-06,664.518494049,0.669801205862,,,,z,1,0.650400631945,2018_Nov_26_1232,59.9852439087,spanish_cond2,001,1050,
images/mailbox01.jpg,mail box,z,sounds/animalfarm_english.wav,,,,,,,,,0,1,1,1,0,40,40,73,665.638255789,9.94245056063e-06,666.669056165,1.03081063868,,,,z,1,1.01717924187,2018_Nov_26_1232,59.9852439087,spanish_cond2,001,1050,
images/lightswitch02a.jpg,fork,x,sounds/animalfarm_english.wav,,,,,,,,,0,1,1,1,0,41,41,177,667.780866204,9.94245056063e-06,668.486196856,0.705341235502,,,,x,1,0.683762627305,2018_Nov_26_1232,59.9852439087,spanish_cond2,001,1050,
images/printer03a.jpg,printer,z,sounds/animalfarm_english.wav,,,,,,,,,0,1,1,1,0,42,42,72,669.595319231,1.02631747723e-05,670.319996575,0.724687607144,,,,z,1,0.700426787022,2018_Nov_26_1232,59.9852439087,spanish_cond2,001,1050,
images/charcoalbarbecue.jpg,charcoal barbecue,z,sounds/animalfarm_english.wav,,,,,,,,,0,1,1,1,0,43,43,77,671.437879516,9.94233414531e-06,672.203815072,0.765945498133,,,,z,1,0.750434019254,2018_Nov_26_1232,59.9852439087,spanish_cond2,001,1050,
images/fireextinguisher02.jpg,fire extinguisher,z,sounds/animalfarm_english.wav,,,,,,,,,0,1,1,1,0,44,44,175,673.314491032,9.30100213736e-06,674.087641587,0.773160497542,,,,z,1,0.750366025954,2018_Nov_26_1232,59.9852439087,spanish_cond2,001,1050,
images/swan.jpg,swan,z,sounds/animalfarm_english.wav,,,,,,,,,0,1,1,1,0,45,45,54,675.179464129,1.02631747723e-05,676.02149073,0.842037506052,,,,z,1,0.833789776661,2018_Nov_26_1232,59.9852439087,spanish_cond2,001,1050,
images/clothespin02a.jpg,clothes pin,z,sounds/animalfarm_english.wav,,,,,,,,,0,1,1,1,0,46,46,79,677.127297785,9.94245056063e-06,677.838458872,0.711171670933,,,,z,1,0.700266425149,2018_Nov_26_1232,59.9852439087,spanish_cond2,001,1050,
images/straw.jpg,straw,z,sounds/animalfarm_english.wav,,,,,,,,,0,1,1,1,0,47,47,109,678.929815722,9.94245056063e-06,679.5723923,0.642586520873,,,,z,1,0.633727812674,2018_Nov_26_1232,59.9852439087,spanish_cond2,001,1050,
images/bottleofredwine02.jpg,pipe,x,sounds/animalfarm_english.wav,,,,,,,,,0,1,1,1,0,48,48,213,680.670830087,9.30100213736e-06,682.023083123,1.35226361942,,,,x,1,1.3339791639,2018_Nov_26_1232,59.9852439087,spanish_cond2,001,1050,
images/bandaid01.jpg,door handle,x,sounds/animalfarm_english.wav,,,,,,,,,0,1,1,1,0,49,49,170,683.130401748,1.02631747723e-05,684.073557329,0.943168089027,,,,x,1,0.933805203415,2018_Nov_26_1232,59.9852439087,spanish_cond2,001,1050,
images/lip.jpg,boxing glove,x,sounds/animalfarm_english.wav,,,,,,,,,0,1,1,1,0,50,50,136,685.176593331,4.04111342505e-05,686.10742286,0.930848451913,,,,x,1,0.917139760801,2018_Nov_26_1232,59.9852439087,spanish_cond2,001,1050,
images/highheelshoe02a.jpg,high heel shoe,z,sounds/animalfarm_english.wav,,,,,,,,,0,1,1,1,0,51,51,75,687.213941601,9.94245056063e-06,689.141555555,1.92762453784,,,,z,1,1.91741879028,2018_Nov_26_1232,59.9852439087,spanish_cond2,001,1050,
images/pipe.jpg,icecube,x,sounds/animalfarm_english.wav,,,,,,,,,0,1,1,1,0,52,52,188,690.252598744,1.02631747723e-05,691.592196345,1.33960818476,,,,x,1,1.31726849917,2018_Nov_26_1232,59.9852439087,spanish_cond2,001,1050,
images/pingpongpaddle01c (1).jpg,ping pong paddle,z,sounds/animalfarm_english.wav,,,,,,,,,0,1,1,1,0,53,53,10,692.703407593,9.94245056063e-06,693.576025458,0.872627807665,,,,z,1,0.850469651632,2018_Nov_26_1232,59.9852439087,spanish_cond2,001,1050,
images/8ball.jpg,nail clipper,x,sounds/animalfarm_english.wav,,,,,,,,,0,1,1,1,0,54,54,206,694.692017733,1.02631747723e-05,695.526544212,0.834537383402,,,,x,1,0.817140049418,2018_Nov_26_1232,59.9852439087,spanish_cond2,001,1050,
images/calculator02b.jpg,dice,x,sounds/animalfarm_english.wav,,,,,,,,,0,1,1,1,0,55,55,165,696.62894903,1.02631747723e-05,697.96049743,1.33155866247,,,,x,1,1.31725695322,2018_Nov_26_1232,59.9852439087,spanish_cond2,001,1050,
images/boxingglove02a.jpg,bracelet,x,sounds/animalfarm_english.wav,,,,,,,,,0,1,1,1,0,56,56,135,699.071911054,9.62160993367e-06,699.910999827,0.839099035948,,,,x,1,0.817088092212,2018_Nov_26_1232,59.9852439087,spanish_cond2,001,1050,
images/parkbench03.jpg,park bench,z,sounds/animalfarm_english.wav,,,,,,,,,0,1,1,1,0,57,57,71,701.016719645,9.621726349e-06,702.161584426,1.14487472374,,,,z,1,1.13387518527,2018_Nov_26_1232,59.9852439087,spanish_cond2,001,1050,
images/broadsword.jpg,teapot,x,sounds/animalfarm_english.wav,,,,,,,,,0,1,1,1,0,58,58,231,703.254605832,1.02631747723e-05,704.128775038,0.874180110055,,,,x,1,0.850480556372,2018_Nov_26_1232,59.9852439087,spanish_cond2,001,1050,
images/graduationcap.jpg,graduation cap,z,sounds/animalfarm_english.wav,,,,,,,,,0,1,1,1,0,59,59,35,705.231306862,9.621726349e-06,706.162613949,0.931317350012,,,,z,1,0.917116027209,2018_Nov_26_1232,59.9852439087,spanish_cond2,001,1050,
images/paintbrush03a.jpg,paint brush,z,sounds/animalfarm_english.wav,,,,,,,,,0,1,1,1,0,60,60,0,707.263261843,9.621726349e-06,708.329849847,1.06659826695,,,,z,1,1.05052167305,2018_Nov_26_1232,59.9852439087,spanish_cond2,001,1050,
images/elbow.jpg,elbow,z,sounds/animalfarm_english.wav,,,,,,,,,0,1,1,1,0,61,61,105,709.441345898,9.94245056063e-06,710.19701092,0.75567528524,,,,z,1,0.733782047173,2018_Nov_26_1232,59.9852439087,spanish_cond2,001,1050,
images/worldmap.jpg,scooter,x,sounds/animalfarm_english.wav,,,,,,,,,0,1,1,1,0,62,62,220,711.329201023,9.30100213736e-06,712.114165434,0.784974994836,,,,x,1,0.767105555511,2018_Nov_26_1232,59.9852439087,spanish_cond2,001,1050,
images/pictureframe04.jpg,picture frame,z,sounds/animalfarm_english.wav,,,,,,,,,0,1,1,1,0,63,63,41,713.236279041,9.94245056063e-06,713.947971247,0.711702789296,,,,z,1,0.700425824733,2018_Nov_26_1232,59.9852439087,spanish_cond2,001,1050,
images/ostrich.jpg,ostrich,z,sounds/animalfarm_english.wav,,,,,,,,,0,1,1,1,0,64,64,76,715.048366089,9.30100213736e-06,715.86513859,0.816783404793,,,,z,1,0.800429064198,2018_Nov_26_1232,59.9852439087,spanish_cond2,001,1050,
images/croissant02b.jpg,croissant,z,sounds/animalfarm_english.wav,,,,,,,,,0,1,1,1,0,65,65,39,716.976706482,9.94245056063e-06,717.698954665,0.722258766997,,,,z,1,0.700433842838,2018_Nov_26_1232,59.9852439087,spanish_cond2,001,1050,
images/diaper01a.jpg,camera,x,sounds/animalfarm_english.wav,,,,,,,,,0,1,1,1,0,66,66,143,718.819580436,9.621726349e-06,719.949539585,1.12996941258,,,,x,1,1.11721038411,2018_Nov_26_1232,59.9852439087,spanish_cond2,001,1050,
images/tape01a.jpg,tie,x,sounds/animalfarm_english.wav,,,,,,,,,0,1,1,1,0,67,67,232,721.075267427,9.94233414531e-06,721.850033788,0.774776944658,,,,x,1,0.750452941982,2018_Nov_26_1232,59.9852439087,spanish_cond2,001,1050,
images/lollipop03b.jpg,lollipop,z,sounds/animalfarm_english.wav,,,,,,,,,0,1,1,1,0,68,68,42,722.943103624,9.621726349e-06,723.884131844,0.941038483987,,,,z,1,0.917403716361,2018_Nov_26_1232,59.9852439087,spanish_cond2,001,1050,
images/cockroach02.jpg,belt,x,sounds/animalfarm_english.wav,,,,,,,,,0,1,1,1,0,69,69,129,724.983603645,3.78453405574e-05,725.650999744,0.667427850771,,,,x,1,0.650407367153,2018_Nov_26_1232,59.9852439087,spanish_cond2,001,1050,
images/gluestick.jpg,squirrel,x,sounds/animalfarm_english.wav,,,,,,,,,0,1,1,1,0,70,70,226,726.758754553,9.30088572204e-06,727.851573903,1.0928289718,,,,x,1,1.08385993482,2018_Nov_26_1232,59.9852439087,spanish_cond2,001,1050,
images/bus.jpg,microphone,x,sounds/animalfarm_english.wav,,,,,,,,,0,1,1,1,0,71,71,203,728.970224337,9.30100213736e-06,731.952645473,2.98243139964,,,,x,1,2.96768067731,2018_Nov_26_1232,59.9852439087,spanish_cond2,001,1050,
images/battery03b.jpg,battery,z,sounds/animalfarm_english.wav,,,,,,,,,0,1,1,1,0,72,72,34,733.061641483,9.30100213736e-06,734.770029593,1.70839837333,,,,z,1,1.68401054665,2018_Nov_26_1232,59.9852439087,spanish_cond2,001,1050,
images/fork01.jpg,cooking pot,x,sounds/animalfarm_english.wav,,,,,,,,,0,1,1,1,0,73,73,160,735.863909256,9.621726349e-06,736.937263887,1.07336521544,,,,x,1,1.05051557929,2018_Nov_26_1232,59.9852439087,spanish_cond2,001,1050,
images/volleyball.jpg,volley ball,z,sounds/animalfarm_english.wav,,,,,,,,,0,1,1,1,0,74,74,2,738.06995913,9.621726349e-06,738.871092503,0.801143636345,,,,z,1,0.78377163969,2018_Nov_26_1232,59.9852439087,spanish_cond2,001,1050,
images/flamingo.jpg,flamingo,z,sounds/animalfarm_english.wav,,,,,,,,,0,1,1,1,0,75,75,52,739.970630693,9.621726349e-06,740.904970222,0.934349792078,,,,z,1,0.91714809963,2018_Nov_26_1232,59.9852439087,spanish_cond2,001,1050,
images/glasses01b.jpg,calculator,x,sounds/animalfarm_english.wav,,,,,,,,,0,1,1,1,0,76,76,142,741.998502862,9.62160993367e-06,742.838792424,0.8402998253,,,,x,1,0.817127541173,2018_Nov_26_1232,59.9852439087,spanish_cond2,001,1050,
images/key03b.jpg,cigar,x,sounds/animalfarm_english.wav,,,,,,,,,0,1,1,1,0,77,77,153,743.941399298,1.02630583569e-05,744.87264673,0.931258657482,,,,x,1,0.91714200587,2018_Nov_26_1232,59.9852439087,spanish_cond2,001,1050,
images/bench02.jpg,electric toothbrush,x,sounds/animalfarm_english.wav,,,,,,,,,0,1,1,1,0,78,78,172,745.982221005,1.05838989839e-05,746.856499898,0.874289476895,,,,x,1,0.850460029906,2018_Nov_26_1232,59.9852439087,spanish_cond2,001,1050,
images/table02.jpg,table,z,sounds/animalfarm_english.wav,,,,,,,,,0,1,1,1,0,79,79,49,747.97250821,9.94245056063e-06,748.840345689,0.867847742164,,,,z,1,0.850463557872,2018_Nov_26_1232,59.9852439087,spanish_cond2,001,1050,
images/icecube02 (2).jpg,aloe,x,sounds/animalfarm_english.wav,,,,,,,,,0,1,1,1,0,80,80,122,749.950891756,9.621726349e-06,750.807518981,0.856637809076,,,,x,1,0.833794908132,2018_Nov_26_1232,59.9852439087,spanish_cond2,001,1050,
images/tank.jpg,wallet,x,sounds/animalfarm_english.wav,,,,,,,,,0,1,1,1,0,81,81,237,751.911806126,9.94245056063e-06,752.791382412,0.879587190109,,,,x,1,0.867146640318,2018_Nov_26_1232,59.9852439087,spanish_cond2,001,1050,
images/hammer02a.jpg,flower,x,sounds/animalfarm_english.wav,,,,,,,,,0,1,1,1,0,82,82,176,753.886909632,9.30100213736e-06,754.57516239,0.688262380194,,,,x,1,0.667078582686,2018_Nov_26_1232,59.9852439087,spanish_cond2,001,1050,
images/marker01a.jpg,marker,z,sounds/animalfarm_english.wav,,,,,,,,,0,1,1,1,0,83,83,95,755.673276567,1.02631747723e-05,756.45898185,0.78571554576,,,,z,1,0.767103952006,2018_Nov_26_1232,59.9852439087,spanish_cond2,001,1050,
images/coin01b.jpg,arrow,x,sounds/animalfarm_english.wav,,,,,,,,,0,1,1,1,0,84,84,124,757.56222985,9.94245056063e-06,759.059667108,1.49744816229,,,,x,1,1.48396173259,2018_Nov_26_1232,59.9852439087,spanish_cond2,001,1050,
images/gorilla.jpg,gorilla,z,sounds/animalfarm_english.wav,,,,,,,,,0,1,1,1,0,85,85,80,760.17051658,8.98027792573e-06,760.89347709,0.722970773466,,,,z,1,0.700432239217,2018_Nov_26_1232,59.9852439087,spanish_cond2,001,1050,
images/banjo.jpg,knife,x,sounds/animalfarm_english.wav,,,,,,,,,0,1,1,1,0,86,86,191,761.99021857,9.621726349e-06,763.410789913,1.42058160668,,,,x,1,1.40061078616,2018_Nov_26_1232,59.9852439087,spanish_cond2,001,1050,
images/comb02a.jpg,diploma,x,sounds/animalfarm_english.wav,,,,,,,,,0,1,1,1,0,87,87,166,764.515276228,9.94245056063e-06,765.22794183,0.712676506257,,,,x,1,0.700437050196,2018_Nov_26_1232,59.9852439087,spanish_cond2,001,1050,
images/cat.jpg,black olive,x,sounds/animalfarm_english.wav,,,,,,,,,0,1,1,1,0,88,88,133,766.359054301,1.05838989839e-05,767.178441662,0.819397944026,,,,x,1,0.800433874945,2018_Nov_26_1232,59.9852439087,spanish_cond2,001,1050,
images/highlighter03b.jpg,coin,x,sounds/animalfarm_english.wav,,,,,,,,,0,1,1,1,0,89,89,156,768.279963207,9.621726349e-06,769.395683829,1.11573088588,,,,x,1,1.10053756495,2018_Nov_26_1232,59.9852439087,spanish_cond2,001,1050,
images/treadmill.jpg,lily,x,sounds/animalfarm_english.wav,,,,,,,,,0,1,1,1,0,90,90,199,770.501749387,9.94245056063e-06,771.879643958,1.37790515495,,,,x,1,1.36723435821,2018_Nov_26_1232,59.9852439087,spanish_cond2,001,1050,
images/squirrel.jpg,binder,x,sounds/animalfarm_english.wav,,,,,,,,,0,1,1,1,0,91,91,132,772.983425964,9.621726349e-06,773.680127225,0.696711203433,,,,x,1,0.683764872374,2018_Nov_26_1232,59.9852439087,spanish_cond2,001,1050,
images/leek.jpg,donut,x,sounds/animalfarm_english.wav,,,,,,,,,0,1,1,1,0,92,92,169,774.783110308,1.02630583569e-05,775.597281097,0.814181052963,,,,x,1,0.80045408057,2018_Nov_26_1232,59.9852439087,spanish_cond2,001,1050,
images/beachumbrella01.jpg,beach umbrella,z,sounds/animalfarm_english.wav,,,,,,,,,0,1,1,1,0,93,93,92,776.705503522,8.98027792573e-06,777.631258882,0.925764661282,,,,x,0,0.917263880838,2018_Nov_26_1232,59.9852439087,spanish_cond2,001,1050,
images/bat.jpg,hand,x,sounds/animalfarm_english.wav,,,,,,,,,0,1,1,1,0,94,94,185,778.729482105,9.621726349e-06,780.315188927,1.58571772662,,,,x,1,1.56733833684,2018_Nov_26_1232,59.9852439087,spanish_cond2,001,1050,
images/screw03c.jpg,screw,z,sounds/animalfarm_english.wav,,,,,,,,,0,1,1,1,0,95,95,84,781.409328697,9.621726349e-06,782.665780293,1.25646153931,,,,z,1,1.23389189504,2018_Nov_26_1232,59.9852439087,spanish_cond2,001,1050,
images/redfox.jpg,red fox,z,sounds/animalfarm_english.wav,,,,,,,,,0,1,1,1,0,96,96,1,783.778400481,9.621726349e-06,784.766321707,0.987931168871,,,,z,1,0.967157897656,2018_Nov_26_1232,59.9852439087,spanish_cond2,001,1050,
images/shotglass.jpg,shot glass,z,sounds/animalfarm_english.wav,,,,,,,,,0,1,1,1,0,97,97,86,785.875150941,9.621726349e-06,786.716853932,0.841713254456,,,,z,1,0.817136200843,2018_Nov_26_1232,59.9852439087,spanish_cond2,001,1050,
images/showerhead01.jpg,skateboard,x,sounds/animalfarm_english.wav,,,,,,,,,0,1,1,1,0,98,98,223,787.824857302,9.94245056063e-06,789.567565089,1.7427183704,,,,x,1,1.73401264742,2018_Nov_26_1232,59.9852439087,spanish_cond2,001,1050,
images/bed.jpg,bed,z,sounds/animalfarm_english.wav,,,,,,,,,0,1,1,1,0,99,99,103,790.687223236,1.02630583569e-05,791.534758266,0.847546255565,,,,z,1,0.83379394596,2018_Nov_26_1232,59.9852439087,spanish_cond2,001,1050,
images/seagull.jpg,seagull,z,sounds/animalfarm_english.wav,,,,,,,,,0,1,1,1,0,100,100,50,792.642960164,9.621726349e-06,793.351881958,0.708932378329,,,,z,1,0.700422617607,2018_Nov_26_1232,59.9852439087,spanish_cond2,001,1050,
images/doorhandle.jpg,doll,x,sounds/animalfarm_english.wav,,,,,,,,,0,1,1,1,0,101,101,168,794.454872418,8.98027792573e-06,795.335744106,0.880881951656,,,,x,1,0.867140546557,2018_Nov_26_1232,59.9852439087,spanish_cond2,001,1050,
images/dresser02.jpg,dresser,z,sounds/animalfarm_english.wav,,,,,,,,,0,1,1,1,0,102,102,87,796.457790362,9.94245056063e-06,797.102852548,0.645072449814,,,,z,1,0.633744490333,2018_Nov_26_1232,59.9852439087,spanish_cond2,001,1050,
images/diploma01.jpg,glasses,x,sounds/animalfarm_english.wav,,,,,,,,,0,1,1,1,0,103,103,179,798.234436484,9.621726349e-06,799.403448549,1.16902200785,,,,x,1,1.15054030705,2018_Nov_26_1232,59.9852439087,spanish_cond2,001,1050,
images/tissuebox03.jpg,tissue box,z,sounds/animalfarm_english.wav,,,,,,,,,0,1,1,1,0,104,104,58,800.529954788,8.2746730186e-05,801.320640909,0.790734870941,,,,z,1,0.767135703587,2018_Nov_26_1232,59.9852439087,spanish_cond2,001,1050,
images/parrot01.jpg,chameleon,x,sounds/animalfarm_english.wav,,,,,,,,,0,1,1,1,0,105,105,150,802.43422904,1.02631747723e-05,803.421184246,0.9869654699,,,,x,1,0.967191894422,2018_Nov_26_1232,59.9852439087,spanish_cond2,001,1050,
images/cupcake.jpg,scissors,x,sounds/animalfarm_english.wav,,,,,,,,,0,1,1,1,0,106,106,219,804.540804548,9.94245056063e-06,805.771768236,1.23097427178,,,,x,1,1.21722581098,2018_Nov_26_1232,59.9852439087,spanish_cond2,001,1050,
images/candycane01a.jpg,lip,x,sounds/animalfarm_english.wav,,,,,,,,,0,1,1,1,0,107,107,200,806.865914741,9.94233414531e-06,808.555823716,1.68992020073,,,,x,1,1.66733965173,2018_Nov_26_1232,59.9852439087,spanish_cond2,001,1050,
images/flashlight05.jpg,flash light,z,sounds/animalfarm_english.wav,,,,,,,,,0,1,1,1,0,108,108,8,809.65839499,9.621726349e-06,811.6899728,2.03158999712,,,,z,1,2.01743646222,2018_Nov_26_1232,59.9852439087,spanish_cond2,001,1050,
images/dice05a.jpg,band aid,x,sounds/animalfarm_english.wav,,,,,,,,,0,1,1,1,0,109,109,126,812.803289598,9.30100213736e-06,814.474025393,1.67074669921,,,,x,1,1.65067100199,2018_Nov_26_1232,59.9852439087,spanish_cond2,001,1050,
images/hand01a.jpg,cupcake,x,sounds/animalfarm_english.wav,,,,,,,,,0,1,1,1,0,110,110,163,815.585894766,9.621726349e-06,816.274492944,0.688608761644,,,,x,1,0.66708948731,2018_Nov_26_1232,59.9852439087,spanish_cond2,001,1050,
images/belt02a.jpg,snowman,x,sounds/animalfarm_english.wav,,,,,,,,,0,1,1,1,0,111,111,224,817.377946849,9.94245056063e-06,818.158309196,0.780372610316,,,,x,1,0.767105555627,2018_Nov_26_1232,59.9852439087,spanish_cond2,001,1050,
images/desktopcomputer.jpg,desktop computer,z,sounds/animalfarm_english.wav,,,,,,,,,0,1,1,1,0,112,112,16,819.294183773,1.02631747723e-05,820.05880821,0.764635662781,,,,z,1,0.750435943599,2018_Nov_26_1232,59.9852439087,spanish_cond2,001,1050,
images/spoon02b.jpg,spoon,z,sounds/animalfarm_english.wav,,,,,,,,,0,1,1,1,0,113,113,38,821.150526195,9.94245056063e-06,822.075995149,0.92547953804,,,,z,1,0.917140081525,2018_Nov_26_1232,59.9852439087,spanish_cond2,001,1050,
images/butterfly.jpg,butterfly,z,sounds/animalfarm_english.wav,,,,,,,,,0,1,1,1,0,114,114,91,823.183270798,9.94245056063e-06,823.926487572,0.743227358791,,,,z,1,0.733785254299,2018_Nov_26_1232,59.9852439087,spanish_cond2,001,1050,
images/ceilingfan02.jpg,paper clip,x,sounds/animalfarm_english.wav,,,,,,,,,0,1,1,1,0,115,115,208,825.025574504,9.621726349e-06,825.876977783,0.851413541473,,,,z,0,0.833795870305,2018_Nov_26_1232,59.9852439087,spanish_cond2,001,1050,
images/daisy.jpg,daisy,z,sounds/animalfarm_english.wav,,,,,,,,,0,1,1,1,0,116,116,6,826.979632765,9.94245056063e-06,827.810825963,0.83120378165,,,,z,1,0.817133955657,2018_Nov_26_1232,59.9852439087,spanish_cond2,001,1050,
images/triangleruler02.jpg,bottle of red wine,x,sounds/animalfarm_english.wav,,,,,,,,,0,1,1,1,0,117,117,134,828.922369481,9.30100213736e-06,829.794669188,0.872310291161,,,,x,1,0.850469331024,2018_Nov_26_1232,59.9852439087,spanish_cond2,001,1050,
images/giraffe.jpg,lettuce,x,sounds/animalfarm_english.wav,,,,,,,,,0,1,1,1,0,118,118,195,830.896351736,9.621726349e-06,832.22862882,1.33228766732,,,,x,1,1.31725855684,2018_Nov_26_1232,59.9852439087,spanish_cond2,001,1050,
images/hairdryer03a.jpg,hairdryer,z,sounds/animalfarm_english.wav,,,,,,,,,0,1,1,1,0,119,119,119,833.328257454,9.94245056063e-06,834.429192716,1.10094584618,,,,z,1,1.08385865204,2018_Nov_26_1232,59.9852439087,spanish_cond2,001,1050,
images/cocktailshrimp01.jpg,cocktail shrimp,z,sounds/animalfarm_english.wav,,,,,,,,,0,1,1,1,0,120,120,30,835.544302681,1.05837825686e-05,836.27967231,0.735380533733,,,,z,1,0.717094795313,2018_Nov_26_1232,59.9852439087,spanish_cond2,001,1050,
images/camera01a.jpg,bull,x,sounds/animalfarm_english.wav,,,,,,,,,0,1,1,1,0,121,121,138,837.390761683,1.05838989839e-05,838.280184506,0.889434047858,,,,x,1,0.867132528452,2018_Nov_26_1232,59.9852439087,spanish_cond2,001,1050,
images/gps.jpg,gps,z,sounds/animalfarm_english.wav,,,,,,,,,0,1,1,1,0,122,122,21,839.398785869,9.94245056063e-06,840.597450439,1.19867547543,,,,z,1,1.18387375807,2018_Nov_26_1232,59.9852439087,spanish_cond2,001,1050,
images/stapler03a.jpg,candy cane,x,sounds/animalfarm_english.wav,,,,,,,,,0,1,1,1,0,123,123,145,841.709082156,9.94245056063e-06,842.998104523,1.28903359221,,,,x,1,1.26726383273,2018_Nov_26_1232,59.9852439087,spanish_cond2,001,1050,
images/pen03c.jpg,pepper,x,sounds/animalfarm_english.wav,,,,,,,,,0,1,1,1,0,124,124,211,844.092767072,9.621726349e-06,844.998601645,0.905845156522,,,,x,1,0.883803744102,2018_Nov_26_1232,59.9852439087,spanish_cond2,001,1050,
images/fryingpan01.jpg,frying pan,z,sounds/animalfarm_english.wav,,,,,,,,,0,1,1,1,0,125,125,45,846.099673856,1.02631747723e-05,847.032462686,0.932800055365,,,,z,1,0.917136553559,2018_Nov_26_1232,59.9852439087,spanish_cond2,001,1050,
images/ashtray02b.jpg,ashtray,z,sounds/animalfarm_english.wav,,,,,,,,,0,1,1,1,0,126,126,43,848.145706681,9.94245056063e-06,849.099658461,0.953961722902,,,,z,1,0.933820918901,2018_Nov_26_1232,59.9852439087,spanish_cond2,001,1050,
images/pineapple01a.jpg,pineapple,z,sounds/animalfarm_english.wav,,,,,,,,,0,1,1,1,0,127,127,51,850.212741774,9.30100213736e-06,851.750346462,1.53761430993,,,,z,1,1.51729582483,2018_Nov_26_1232,59.9852439087,spanish_cond2,001,1050,
images/carrot02.jpg,corkscrew,x,sounds/animalfarm_english.wav,,,,,,,,,0,1,1,1,0,128,128,161,852.852878286,9.94245056063e-06,854.084306703,1.23143932119,,,,x,1,1.21722677303,2018_Nov_26_1232,59.9852439087,spanish_cond2,001,1050,
images/skateboard.jpg,key,x,sounds/animalfarm_english.wav,,,,,,,,,0,1,1,1,0,129,129,189,855.175663232,9.94245056063e-06,856.234844444,1.05919211637,,,,x,1,1.05051557929,2018_Nov_26_1232,59.9852439087,spanish_cond2,001,1050,
images/rhinoceros01.jpg,envelope,x,sounds/animalfarm_english.wav,,,,,,,,,0,1,1,1,0,130,130,173,857.347892477,9.621726349e-06,858.118669356,0.770787783898,,,,x,1,0.750439471565,2018_Nov_26_1232,59.9852439087,spanish_cond2,001,1050,
images/toucan.jpg,toucan,z,sounds/animalfarm_english.wav,,,,,,,,,0,1,1,1,0,131,131,81,859.219872743,1.02630583569e-05,859.9524803,0.732618461596,,,,z,1,0.717099285452,2018_Nov_26_1232,59.9852439087,spanish_cond2,001,1050,
images/hanger02a.jpg,hanger,z,sounds/animalfarm_english.wav,,,,,,,,,0,1,1,1,0,132,132,88,861.04598215,9.621726349e-06,862.436470898,1.39049933141,,,,z,1,1.3672859947,2018_Nov_26_1232,59.9852439087,spanish_cond2,001,1050,
images/masquerademask02b.jpg,mirror,x,sounds/animalfarm_english.wav,,,,,,,,,0,1,1,1,0,133,133,204,863.541566908,9.621726349e-06,864.587012488,1.04545552225,,,,x,1,1.03384725028,2018_Nov_26_1232,59.9852439087,spanish_cond2,001,1050,
images/wallet01.jpg,lamp,x,sounds/animalfarm_english.wav,,,,,,,,,0,1,1,1,0,134,134,193,865.691924082,9.62160993367e-06,867.20436351,1.51244936977,,,,x,1,1.50064128696,2018_Nov_26_1232,59.9852439087,spanish_cond2,001,1050,
images/snowman.jpg,globe,x,sounds/animalfarm_english.wav,,,,,,,,,0,1,1,1,0,135,135,180,868.315547496,9.30100213736e-06,869.08818778,0.772649905412,,,,x,1,0.750449734856,2018_Nov_26_1232,59.9852439087,spanish_cond2,001,1050,
images/weight01.jpg,weight,z,sounds/animalfarm_english.wav,,,,,,,,,0,1,1,1,0,136,136,67,870.193538124,8.98027792573e-06,871.622192024,1.42866352212,,,,z,1,1.41730445239,2018_Nov_26_1232,59.9852439087,spanish_cond2,001,1050,
images/50dollarbill.jpg,cherry,x,sounds/animalfarm_english.wav,,,,,,,,,0,1,1,1,0,137,137,151,872.74267828,9.30100213736e-06,873.8727484,1.13007974159,,,,x,1,1.11716869008,2018_Nov_26_1232,59.9852439087,spanish_cond2,001,1050,
images/safe.jpg,safe,z,sounds/animalfarm_english.wav,,,,,,,,,0,1,1,1,0,138,138,78,874.983449377,9.94245056063e-06,875.8065876,0.823149127886,,,,z,1,0.800454401295,2018_Nov_26_1232,59.9852439087,spanish_cond2,001,1050,
images/doll.jpg,carrot,x,sounds/animalfarm_english.wav,,,,,,,,,0,1,1,1,0,139,139,146,876.986091819,9.62160993367e-06,879.324166303,2.33808474732,,,,x,1,2.31751609792,2018_Nov_26_1232,59.9852439087,spanish_cond2,001,1050,
images/hairpin.jpg,hair pin,z,sounds/animalfarm_english.wav,,,,,,,,,0,1,1,1,0,140,140,28,880.415059066,9.621726349e-06,881.391368813,0.976320331101,,,,z,1,0.967165595037,2018_Nov_26_1232,59.9852439087,spanish_cond2,001,1050,
images/toothbrush03a.jpg,parrot,x,sounds/animalfarm_english.wav,,,,,,,,,0,1,1,1,0,141,141,210,882.48408457,9.94245056063e-06,883.441894977,0.957820990705,,,,x,1,0.93382284313,2018_Nov_26_1232,59.9852439087,spanish_cond2,001,1050,
images/blueberry02.jpg,blueberry,z,sounds/animalfarm_english.wav,,,,,,,,,0,1,1,1,0,142,142,46,884.555087655,9.621726349e-06,885.292377778,0.73730006488,,,,z,1,0.717070740997,2018_Nov_26_1232,59.9852439087,spanish_cond2,001,1050,
images/axe01.jpg,axe,z,sounds/animalfarm_english.wav,,,,,,,,,0,1,1,1,0,143,143,104,886.395029553,9.621726349e-06,887.159518966,0.764499675948,,,,z,1,0.750432736357,2018_Nov_26_1232,59.9852439087,spanish_cond2,001,1050,
images/eraser.jpg,eraser,z,sounds/animalfarm_english.wav,,,,,,,,,0,1,1,1,0,144,144,110,888.266368372,9.94233414531e-06,888.976672486,0.710315017961,,,,z,1,0.700420372421,2018_Nov_26_1232,59.9852439087,spanish_cond2,001,1050,
images/pouch01b.jpg,pouch,z,sounds/animalfarm_english.wav,,,,,,,,,0,1,1,1,0,145,145,25,890.088923841,9.621726349e-06,890.794050512,0.705136934528,,,,z,1,0.684009584482,2018_Nov_26_1232,59.9852439087,spanish_cond2,001,1050,
images/dryingmachine01.jpg,drying machine,z,sounds/animalfarm_english.wav,,,,,,,,,0,1,1,1,0,146,146,18,891.915700353,1.05837825686e-05,892.760972999,0.845283550094,,,,z,1,0.833789135097,2018_Nov_26_1232,59.9852439087,spanish_cond2,001,1050,
images/cauliflower01.jpg,glue stick,x,sounds/animalfarm_english.wav,,,,,,,,,0,1,1,1,0,147,147,181,893.8774021,9.94245056063e-06,894.661468805,0.784076968557,,,,x,1,0.767102989834,2018_Nov_26_1232,59.9852439087,spanish_cond2,001,1050,
images/licenseplate.jpg,license plate,z,sounds/animalfarm_english.wav,,,,,,,,,0,1,1,1,0,148,148,40,895.779246229,9.94245056063e-06,896.695330167,0.916094201733,,,,z,1,0.900465337909,2018_Nov_26_1232,59.9852439087,spanish_cond2,001,1050,
images/handbag02a.jpg,candle,x,sounds/animalfarm_english.wav,,,,,,,,,0,1,1,1,0,149,149,144,897.811708594,1.02631747723e-05,898.745859859,0.934161527432,,,,x,1,0.917146496009,2018_Nov_26_1232,59.9852439087,spanish_cond2,001,1050,
images/aloe02.jpg,broad sword,x,sounds/animalfarm_english.wav,,,,,,,,,0,1,1,1,0,150,150,137,899.866581525,9.62160993367e-06,901.013137482,1.14656654093,,,,x,1,1.13389507018,2018_Nov_26_1232,59.9852439087,spanish_cond2,001,1050,
images/computermouse02a.jpg,world map,x,sounds/animalfarm_english.wav,,,,,,,,,0,1,1,1,0,151,151,239,902.115423953,9.621726349e-06,903.113672161,0.998258791282,,,,x,1,0.983844508068,2018_Nov_26_1232,59.9852439087,spanish_cond2,001,1050,
images/parkingmeter.jpg,ear,x,sounds/animalfarm_english.wav,,,,,,,,,0,1,1,1,0,152,152,171,904.215809175,9.94245056063e-06,905.330902462,1.11510387121,,,,x,1,1.10051864223,2018_Nov_26_1232,59.9852439087,spanish_cond2,001,1050,
images/honeycomb.jpg,honey comb,z,sounds/animalfarm_english.wav,,,,,,,,,0,1,1,1,0,153,153,59,906.444515289,9.94245056063e-06,908.498245161,2.05374077638,,,,z,1,2.03395918279,2018_Nov_26_1232,59.9852439087,spanish_cond2,001,1050,
images/envelope02a.jpg,grand piano,x,sounds/animalfarm_english.wav,,,,,,,,,0,1,1,1,0,154,154,182,909.621998949,9.94233414531e-06,910.532277789,0.910289103515,,,,x,1,0.900505107595,2018_Nov_26_1232,59.9852439087,spanish_cond2,001,1050,
images/feather03b.jpg,feather,z,sounds/animalfarm_english.wav,,,,,,,,,0,1,1,1,0,155,155,114,911.633112344,9.30100213736e-06,912.516110751,0.88300802873,,,,z,1,0.867148243939,2018_Nov_26_1232,59.9852439087,spanish_cond2,001,1050,
images/panda.jpg,panda,z,sounds/animalfarm_english.wav,,,,,,,,,0,1,1,1,0,156,156,83,913.626002863,9.621726349e-06,914.499944355,0.873951754766,,,,z,1,0.850468689459,2018_Nov_26_1232,59.9852439087,spanish_cond2,001,1050,
images/globe.jpg,cloud,x,sounds/animalfarm_english.wav,,,,,,,,,0,1,1,1,0,157,157,154,915.627865305,9.621726349e-06,916.367088429,0.739233066328,,,,x,1,0.717094153864,2018_Nov_26_1232,59.9852439087,spanish_cond2,001,1050,
images/dolphin01.jpg,dolphin,z,sounds/animalfarm_english.wav,,,,,,,,,0,1,1,1,0,158,158,99,917.467052219,9.621726349e-06,918.284342047,0.81730041129,,,,z,1,0.800529771252,2018_Nov_26_1232,59.9852439087,spanish_cond2,001,1050,
images/handfan01b.jpg,handfan,z,sounds/animalfarm_english.wav,,,,,,,,,0,1,1,1,0,159,159,69,919.400271461,9.621726349e-06,920.768230975,1.36796977755,,,,z,1,1.3505900834,2018_Nov_26_1232,59.9852439087,spanish_cond2,001,1050,
images/coffeepot03b.jpg,coffee pot,z,sounds/animalfarm_english.wav,,,,,,,,,0,1,1,1,0,160,160,107,921.889901663,1.02631747723e-05,923.368905328,1.4790142494,,,,z,1,1.46728217811,2018_Nov_26_1232,59.9852439087,spanish_cond2,001,1050,
images/teapot.jpg,light switch,x,sounds/animalfarm_english.wav,,,,,,,,,0,1,1,1,0,161,161,197,924.485874528,9.621726349e-06,925.336084715,0.850220449385,,,,x,1,0.833790097269,2018_Nov_26_1232,59.9852439087,spanish_cond2,001,1050,
images/cactus.jpg,cactus,z,sounds/animalfarm_english.wav,,,,,,,,,0,1,1,1,0,162,162,70,926.449223833,9.62160993367e-06,927.219917965,0.770704716444,,,,z,1,0.750456149224,2018_Nov_26_1232,59.9852439087,spanish_cond2,001,1050,
images/banana04a.jpg,banana,z,sounds/animalfarm_english.wav,,,,,,,,,0,1,1,1,0,163,163,118,928.326249403,9.94245056063e-06,929.037040375,0.710801555775,,,,z,1,0.700420051813,2018_Nov_26_1232,59.9852439087,spanish_cond2,001,1050,
images/gamecontroller01.jpg,game controller,z,sounds/animalfarm_english.wav,,,,,,,,,0,1,1,1,0,164,164,112,930.157533366,1.02630583569e-05,931.104248979,0.946726517985,,,,z,1,0.933819956612,2018_Nov_26_1232,59.9852439087,spanish_cond2,001,1050,
images/candy.jpg,candy,z,sounds/animalfarm_english.wav,,,,,,,,,0,1,1,1,0,165,165,31,932.207163748,9.30100213736e-06,932.904712681,0.697559196735,,,,z,1,0.683756854269,2018_Nov_26_1232,59.9852439087,spanish_cond2,001,1050,
images/umbrella01.jpg,umbrella,z,sounds/animalfarm_english.wav,,,,,,,,,0,1,1,1,0,166,166,53,934.01786976,9.621726349e-06,934.971924172,0.954065316706,,,,z,1,0.933826050372,2018_Nov_26_1232,59.9852439087,spanish_cond2,001,1050,
images/chessknight02b (1).jpg,cockroach,x,sounds/animalfarm_english.wav,,,,,,,,,0,1,1,1,0,167,167,155,936.081184137,1.02631747723e-05,937.039120589,0.957947035087,,,,x,1,0.933827974717,2018_Nov_26_1232,59.9852439087,spanish_cond2,001,1050,
images/mushroom01.jpg,shower head,x,sounds/animalfarm_english.wav,,,,,,,,,0,1,1,1,0,168,168,222,938.156230266,9.621726349e-06,939.072978743,0.916760024033,,,,x,1,0.900467262254,2018_Nov_26_1232,59.9852439087,spanish_cond2,001,1050,
images/puma.jpg,puma,z,sounds/animalfarm_english.wav,,,,,,,,,0,1,1,1,0,169,169,4,940.17162917,9.30088572204e-06,941.073492863,0.901873956202,,,,z,1,0.883803102653,2018_Nov_26_1232,59.9852439087,spanish_cond2,001,1050,
images/mattress.jpg,cat,x,sounds/animalfarm_english.wav,,,,,,,,,0,1,1,1,0,170,170,147,942.177852492,9.94245056063e-06,942.990659886,0.812817656668,,,,x,1,0.800447666086,2018_Nov_26_1232,59.9852439087,spanish_cond2,001,1050,
images/beermug01b.jpg,beer mug,z,sounds/animalfarm_english.wav,,,,,,,,,0,1,1,1,0,171,171,111,944.108187466,9.621726349e-06,945.091217336,0.983039812418,,,,z,1,0.96717265097,2018_Nov_26_1232,59.9852439087,spanish_cond2,001,1050,
images/grasshopper.jpg,cauliflower,x,sounds/animalfarm_english.wav,,,,,,,,,0,1,1,1,0,172,172,148,946.184825345,1.09046231955e-05,947.175075987,0.990261867642,,,,x,1,0.9671569356,2018_Nov_26_1232,59.9852439087,spanish_cond2,001,1050,
images/nailclipper03a.jpg,aquarium,x,sounds/animalfarm_english.wav,,,,,,,,,0,1,1,1,0,173,173,123,948.274453495,9.30100213736e-06,949.125583517,0.851139964187,,,,x,1,0.833782399888,2018_Nov_26_1232,59.9852439087,spanish_cond2,001,1050,
images/chameleon.jpg,50 dollar bill,x,sounds/animalfarm_english.wav,,,,,,,,,0,1,1,1,0,174,174,120,950.235749526,9.94245056063e-06,951.209470713,0.973732091137,,,,x,1,0.950508170645,2018_Nov_26_1232,59.9852439087,spanish_cond2,001,1050,
images/remotecontrol01c.jpg,remote control,z,sounds/animalfarm_english.wav,,,,,,,,,0,1,1,1,0,175,175,85,952.320708581,9.621726349e-06,953.460048256,1.13935090019,,,,z,1,1.11720717698,2018_Nov_26_1232,59.9852439087,spanish_cond2,001,1050,
images/plate01b.jpg,plate,z,sounds/animalfarm_english.wav,,,,,,,,,0,1,1,1,0,176,176,3,954.559976446,9.621726349e-06,955.77731868,1.21735217609,,,,z,1,1.20056710357,2018_Nov_26_1232,59.9852439087,spanish_cond2,001,1050,
images/lock02a.jpg,lock,z,sounds/animalfarm_english.wav,,,,,,,,,0,1,1,1,0,177,177,65,956.887778152,9.94245056063e-06,957.711149862,0.823382293922,,,,z,1,0.800459853606,2018_Nov_26_1232,59.9852439087,spanish_cond2,001,1050,
images/sportshorts02.jpg,tape,x,sounds/animalfarm_english.wav,,,,,,,,,0,1,1,1,0,178,178,230,958.819027829,9.94245056063e-06,960.578546025,1.75952910073,,,,x,1,1.75069059827,2018_Nov_26_1232,59.9852439087,spanish_cond2,001,1050,
images/kiwi03.jpg,backpack,x,sounds/animalfarm_english.wav,,,,,,,,,0,1,1,1,0,179,179,125,961.707065125,9.94245056063e-06,962.495737743,0.7886838431,,,,x,1,0.767132817185,2018_Nov_26_1232,59.9852439087,spanish_cond2,001,1050,
images/antelope.jpg,antelope,z,sounds/animalfarm_english.wav,,,,,,,,,0,1,1,1,0,180,180,12,963.599519428,9.94245056063e-06,965.346451786,1.74694262154,,,,z,1,1.73402515566,2018_Nov_26_1232,59.9852439087,spanish_cond2,001,1050,
images/bowl02b (1).jpg,bowl,z,sounds/animalfarm_english.wav,,,,,,,,,0,1,1,1,0,181,181,24,966.464396948,9.30100213736e-06,967.313640473,0.849253788358,,,,z,1,0.83380613348,2018_Nov_26_1232,59.9852439087,spanish_cond2,001,1050,
images/mirror02.jpg,8 ball,x,sounds/animalfarm_english.wav,,,,,,,,,0,1,1,1,0,182,182,121,968.416286155,9.94245056063e-06,969.364158298,0.947883047513,,,,x,1,0.933814504417,2018_Nov_26_1232,59.9852439087,spanish_cond2,001,1050,
images/bowtie.jpg,bowtie,z,sounds/animalfarm_english.wav,,,,,,,,,0,1,1,1,0,183,183,89,970.474704044,1.02631747723e-05,971.364690378,0.889996917802,,,,z,1,0.867146640318,2018_Nov_26_1232,59.9852439087,spanish_cond2,001,1050,
images/bullet (2).jpg,rubber glove,x,sounds/animalfarm_english.wav,,,,,,,,,0,1,1,1,0,184,184,217,972.469403124,9.621726349e-06,973.198515755,0.729122573859,,,,x,1,0.717092870967,2018_Nov_26_1232,59.9852439087,spanish_cond2,001,1050,
images/aquarium.jpg,computer mouse,x,sounds/animalfarm_english.wav,,,,,,,,,0,1,1,1,0,185,185,159,974.334987198,9.94245056063e-06,975.132333146,0.797356210765,,,,x,1,0.783796014613,2018_Nov_26_1232,59.9852439087,spanish_cond2,001,1050,
images/apricot.jpg,apricot,z,sounds/animalfarm_english.wav,,,,,,,,,0,1,1,1,0,186,186,32,976.249281499,9.94245056063e-06,977.032819652,0.783548415988,,,,z,1,0.767121271114,2018_Nov_26_1232,59.9852439087,spanish_cond2,001,1050,
images/mitten01.jpg,mitten,z,sounds/animalfarm_english.wav,,,,,,,,,0,1,1,1,0,187,187,102,978.153813613,9.94245056063e-06,978.816615346,0.662812316674,,,,z,1,0.650419233949,2018_Nov_26_1232,59.9852439087,spanish_cond2,001,1050,
images/sock03.jpg,sock,z,sounds/animalfarm_english.wav,,,,,,,,,0,1,1,1,0,188,188,90,979.922644662,1.02631747723e-05,981.000701423,1.07806702424,,,,z,1,1.06737954984,2018_Nov_26_1232,59.9852439087,spanish_cond2,001,1050,
images/blackolive.jpg,tank,x,sounds/animalfarm_english.wav,,,,,,,,,0,1,1,1,0,189,189,229,982.115685343,9.94245056063e-06,983.251091022,1.13541658316,,,,x,1,1.11717895325,2018_Nov_26_1232,59.9852439087,spanish_cond2,001,1050,
images/medal01.jpg,medal,z,sounds/animalfarm_english.wav,,,,,,,,,0,1,1,1,0,190,190,115,984.352847016,1.02631747723e-05,985.001626069,0.648790278472,,,,z,1,0.633816332556,2018_Nov_26_1232,59.9852439087,spanish_cond2,001,1050,
images/ear.jpg,bullet,x,sounds/animalfarm_english.wav,,,,,,,,,0,1,1,1,0,191,191,139,986.105768568,9.94245056063e-06,986.868693491,0.762935506646,,,,x,1,0.750433698646,2018_Nov_26_1232,59.9852439087,spanish_cond2,001,1050,
images/orange.jpg,bat,x,sounds/animalfarm_english.wav,,,,,,,,,0,1,1,1,0,192,192,128,987.993566604,9.621726349e-06,988.685681196,0.692125496571,,,,z,0,0.683603227604,2018_Nov_26_1232,59.9852439087,spanish_cond2,001,1050,
images/atm.jpg,atm,z,sounds/animalfarm_english.wav,,,,,,,,,0,1,1,1,0,193,193,96,989.82396986,9.621726349e-06,990.469631158,0.645671240869,,,,z,1,0.633738075965,2018_Nov_26_1232,59.9852439087,spanish_cond2,001,1050,
images/birthdaycandle.jpg,birthday candle,z,sounds/animalfarm_english.wav,,,,,,,,,0,1,1,1,0,194,194,55,991.566173469,9.94233414531e-06,992.33679191,0.770629025646,,,,z,1,0.750432736473,2018_Nov_26_1232,59.9852439087,spanish_cond2,001,1050,
images/flipflop01b.jpg,flip flop,z,sounds/animalfarm_english.wav,,,,,,,,,0,1,1,1,0,195,195,27,993.454693775,9.94245056063e-06,994.170582649,0.715899778996,,,,z,1,0.700377395609,2018_Nov_26_1232,59.9852439087,spanish_cond2,001,1050,
images/lemon02.jpg,lemon,z,sounds/animalfarm_english.wav,,,,,,,,,0,1,1,1,0,196,196,14,995.284026134,1.05838989839e-05,995.987724623,0.703709393623,,,,z,1,0.683751722681,2018_Nov_26_1232,59.9852439087,spanish_cond2,001,1050,
images/watermelon01.jpg,orange,x,sounds/animalfarm_english.wav,,,,,,,,,0,1,1,1,0,197,197,207,997.117313978,9.621726349e-06,997.971575225,0.854271830642,,,,x,1,0.833788814372,2018_Nov_26_1232,59.9852439087,spanish_cond2,001,1050,
images/broom02.jpg,broom,z,sounds/animalfarm_english.wav,,,,,,,,,0,1,1,1,0,198,198,116,999.06537631,9.94245056063e-06,1000.10546516,1.04009975784,,,,z,1,1.01717539318,2018_Nov_26_1232,59.9852439087,spanish_cond2,001,1050,
images/acousticguitar02.jpg,acoustic guitar,z,sounds/animalfarm_english.wav,,,,,,,,,0,1,1,1,0,199,199,97,1001.21852538,1.02630583569e-05,1002.13932653,0.920812046621,,,,z,1,0.900480411947,2018_Nov_26_1232,59.9852439087,spanish_cond2,001,1050,
images/cheetah.jpg,cheetah,z,sounds/animalfarm_english.wav,,,,,,,,,0,1,1,1,0,200,200,82,1003.24218453,9.621726349e-06,1004.03981047,0.797636202537,,,,z,1,0.7837812613,2018_Nov_26_1232,59.9852439087,spanish_cond2,001,1050,
images/binder03b.jpg,dj mixer,x,sounds/animalfarm_english.wav,,,,,,,,,0,1,1,1,0,201,201,167,1005.15338769,9.621726349e-06,1005.90696801,0.753590581589,,,,x,1,0.733771142433,2018_Nov_26_1232,59.9852439087,spanish_cond2,001,1050,
images/candle08a.jpg,screw driver,x,sounds/animalfarm_english.wav,,,,,,,,,0,1,1,1,0,202,202,221,1007.02171492,9.30100213736e-06,1007.84079759,0.819092935766,,,,x,1,0.800448628259,2018_Nov_26_1232,59.9852439087,spanish_cond2,001,1050,
images/microphone01.jpg,diaper,x,sounds/animalfarm_english.wav,,,,,,,,,0,1,1,1,0,203,203,164,1008.94055002,1.02631747723e-05,1009.72446631,0.783927511307,,,,x,1,0.766953853308,2018_Nov_26_1232,59.9852439087,spanish_cond2,001,1050,
images/screwdriver02b.jpg,cola,x,sounds/animalfarm_english.wav,,,,,,,,,0,1,1,1,0,204,204,158,1010.8189531,9.94245056063e-06,1011.54176095,0.722819071147,,,,x,1,0.700426145573,2018_Nov_26_1232,59.9852439087,spanish_cond2,001,1050,
images/computerkeyboard01a.jpg,computer keyboard,z,sounds/animalfarm_english.wav,,,,,,,,,0,1,1,1,0,205,205,61,1012.65935171,9.621726349e-06,1013.32555023,0.666208459414,,,,z,1,0.650401273393,2018_Nov_26_1232,59.9852439087,spanish_cond2,001,1050,
images/headphones02b.jpg,headphones,z,sounds/animalfarm_english.wav,,,,,,,,,0,1,1,1,0,206,206,101,1014.43356803,1.05838989839e-05,1015.3760796,0.942522792961,,,,z,1,0.933813221403,2018_Nov_26_1232,59.9852439087,spanish_cond2,001,1050,
images/nailpolish02b.jpg,nail polish,z,sounds/animalfarm_english.wav,,,,,,,,,0,1,1,1,0,207,207,94,1016.4850028,9.94245056063e-06,1017.89340685,1.40841463418,,,,z,1,1.38392930734,2018_Nov_26_1232,59.9852439087,spanish_cond2,001,1050,
