images,name,corrAns,sounds,trials_3.thisRepN,trials_3.thisTrialN,trials_3.thisN,trials_3.thisIndex,trials_4.thisRepN,trials_4.thisTrialN,trials_4.thisN,trials_4.thisIndex,trials_2.thisRepN,trials_2.thisTrialN,trials_2.thisN,trials_2.thisIndex,trials.thisRepN,trials.thisTrialN,trials.thisN,trials.thisIndex,begin_global,begin_routine,end_global,end_routine,key_resp_2.keys,key_resp_2.corr,key_resp_2.rt,begin_book,key_resp_1.keys,key_resp_1.corr,key_resp_1.rt,date,frameRate,expName,session,participant,
images/volleyball.jpg,volley ball,z,,0,0,0,0,,,,,,,,,,,,,,,,,,,,,,,,2018_Nov_26_1233,59.9831860612,spanish_cond1,001,1051,
images/puma.jpg,puma,z,,,,,,0,0,0,0,,,,,,,,,48.2484582908,1.05838989839e-05,50.1420665639,1.89361885691,z,1,1.88407321693,,,,,2018_Nov_26_1233,59.9831860612,spanish_cond1,001,1051,
images/candy.jpg,candy,z,sounds/greatgatsby_english.wav,,,,,,,,,0,0,0,0,0,0,0,31,92.3751109698,9.30100213736e-06,93.3196479246,0.944546576473,,,,82.1383121957,z,1,0.933818756253,2018_Nov_26_1233,59.9831860612,spanish_cond1,001,1051,
images/panda.jpg,panda,z,sounds/greatgatsby_english.wav,,,,,,,,,0,0,0,0,0,1,1,83,94.5103041468,1.15459552035e-05,95.720239592,1.20994570816,,,,,z,1,1.20054695872,2018_Nov_26_1233,59.9831860612,spanish_cond1,001,1051,
images/scissors04a.jpg,leek,x,sounds/greatgatsby_english.wav,,,,,,,,,0,0,0,0,0,2,2,194,96.8461116343,8.98027792573e-06,97.9708120802,1.12471006764,,,,,x,1,1.1005157847,2018_Nov_26_1233,59.9831860612,spanish_cond1,001,1051,
images/egg01b (1).jpg,egg,z,sounds/greatgatsby_english.wav,,,,,,,,,0,0,0,0,0,3,3,19,99.158402203,8.98027792573e-06,99.9379820448,0.779589142767,,,,,z,1,0.767103767605,2018_Nov_26_1233,59.9831860612,spanish_cond1,001,1051,
images/croissant02b.jpg,croissant,z,sounds/greatgatsby_english.wav,,,,,,,,,0,0,0,0,0,4,4,39,101.125390639,8.98027792573e-06,102.021833451,0.896452753921,,,,,z,1,0.883778152987,2018_Nov_26_1233,59.9831860612,spanish_cond1,001,1051,
images/pingpongpaddle01c (1).jpg,ping pong paddle,z,sounds/greatgatsby_english.wav,,,,,,,,,0,0,0,0,0,5,5,10,103.207852037,8.98016151041e-06,104.205731746,0.997889330494,,,,,z,1,0.983823759598,2018_Nov_26_1233,59.9831860612,spanish_cond1,001,1051,
images/clothespin02a.jpg,clothes pin,z,sounds/greatgatsby_english.wav,,,,,,,,,0,0,0,0,0,6,6,79,105.394431886,9.62160993367e-06,106.673019415,1.27859779191,,,,,z,1,1.26722724549,2018_Nov_26_1233,59.9831860612,spanish_cond1,001,1051,
images/ladybug03.jpg,giraffe,x,sounds/greatgatsby_english.wav,,,,,,,,,0,0,0,0,0,7,7,178,107.802913949,9.621726349e-06,108.873570223,1.07066621596,,,,,x,1,1.05050308409,2018_Nov_26_1233,59.9831860612,spanish_cond1,001,1051,
images/hanger02a.jpg,hanger,z,sounds/greatgatsby_english.wav,,,,,,,,,0,0,0,0,0,8,8,88,110.058738576,8.65943729877e-06,110.757489173,0.698760218103,,,,,z,1,0.683847941924,2018_Nov_26_1233,59.9831860612,spanish_cond1,001,1051,
images/drink.jpg,drink,z,sounds/greatgatsby_english.wav,,,,,,,,,0,0,0,0,0,9,9,117,111.936861764,8.98016151041e-06,113.174657982,1.23780551949,,,,,z,1,1.21720620617,2018_Nov_26_1233,59.9831860612,spanish_cond1,001,1051,
images/donut.jpg,rhinoceros,x,sounds/greatgatsby_english.wav,,,,,,,,,0,0,0,0,0,10,10,216,114.38066619,9.30088572204e-06,115.458570133,1.07791388489,,,,,x,1,1.06717580173,2018_Nov_26_1233,59.9831860612,spanish_cond1,001,1051,
images/dolphin01.jpg,dolphin,z,sounds/greatgatsby_english.wav,,,,,,,,,0,0,0,0,0,11,11,99,116.603051731,8.98016151041e-06,117.425737532,0.822695742827,,,,,z,1,0.80043893971,2018_Nov_26_1233,59.9831860612,spanish_cond1,001,1051,
images/apricot.jpg,apricot,z,sounds/greatgatsby_english.wav,,,,,,,,,0,0,0,0,0,12,12,32,118.629748606,9.621726349e-06,119.526261334,0.896523312666,,,,,z,1,0.883780398057,2018_Nov_26_1233,59.9831860612,spanish_cond1,001,1051,
images/fireextinguisher02.jpg,fire extinguisher,z,sounds/greatgatsby_english.wav,,,,,,,,,0,0,0,0,0,13,13,175,120.709447948,1.05837825686e-05,121.626810795,0.917374071782,,,,,z,1,0.900468189502,2018_Nov_26_1233,59.9831860612,spanish_cond1,001,1051,
images/bench02.jpg,electric toothbrush,x,sounds/greatgatsby_english.wav,,,,,,,,,0,0,0,0,0,14,14,172,122.808596496,9.30100213736e-06,123.89403804,1.08545180713,,,,,x,1,1.06716585939,2018_Nov_26_1233,59.9831860612,spanish_cond1,001,1051,
images/notebook02b.jpg,notebook,z,sounds/greatgatsby_english.wav,,,,,,,,,0,0,0,0,0,15,15,7,125.070659802,8.98016151041e-06,125.944559405,0.873909225455,,,,,z,1,0.850449074525,2018_Nov_26_1233,59.9831860612,spanish_cond1,001,1051,
images/ladder.jpg,ladder,z,sounds/greatgatsby_english.wav,,,,,,,,,0,0,0,0,0,16,16,113,127.106154072,9.30088572204e-06,127.995079808,0.888935999363,,,,,z,1,0.867126603029,2018_Nov_26_1233,59.9831860612,spanish_cond1,001,1051,
images/mushroom01.jpg,shower head,x,sounds/greatgatsby_english.wav,,,,,,,,,0,0,0,0,0,17,17,222,129.153425885,9.30100213736e-06,129.995799187,0.842383565265,,,,,x,1,0.833980977302,2018_Nov_26_1233,59.9831860612,spanish_cond1,001,1051,
images/dragonfly02.jpg,dragon fly,z,sounds/greatgatsby_english.wav,,,,,,,,,0,0,0,0,0,18,18,29,131.163919258,8.6595537141e-06,132.346192456,1.18228249939,,,,,z,1,1.1672008821,2018_Nov_26_1233,59.9831860612,spanish_cond1,001,1051,
images/plant01.jpg,plant,z,sounds/greatgatsby_english.wav,,,,,,,,,0,0,0,0,0,19,19,47,133.498393505,8.98016151041e-06,134.280002874,0.781619310961,,,,,z,1,0.767101522535,2018_Nov_26_1233,59.9831860612,spanish_cond1,001,1051,
images/weight01.jpg,weight,z,sounds/greatgatsby_english.wav,,,,,,,,,0,0,0,0,0,20,20,67,135.458891175,9.621726349e-06,136.53057023,1.07168931817,,,,,z,1,1.05050372554,2018_Nov_26_1233,59.9831860612,spanish_cond1,001,1051,
images/cocktailshrimp01.jpg,cocktail shrimp,z,sounds/greatgatsby_english.wav,,,,,,,,,0,0,0,0,0,21,21,30,137.647798502,9.30088572204e-06,139.331274086,1.68348552648,,,,,x,0,1.66731762479,2018_Nov_26_1233,59.9831860612,spanish_cond1,001,1051,
images/cloud.jpg,ceiling fan,x,sounds/greatgatsby_english.wav,,,,,,,,,0,0,0,0,0,22,22,149,140.521836016,8.98027792573e-06,141.631865369,1.11003929481,,,,,x,1,1.1005173882,2018_Nov_26_1233,59.9831860612,spanish_cond1,001,1051,
images/lily.jpg,kiwi,x,sounds/greatgatsby_english.wav,,,,,,,,,0,0,0,0,0,23,23,190,142.807131119,9.30088572204e-06,143.682390262,0.875269406242,,,,,x,1,0.867112491163,2018_Nov_26_1233,59.9831860612,spanish_cond1,001,1051,
images/gorilla.jpg,gorilla,z,sounds/greatgatsby_english.wav,,,,,,,,,0,0,0,0,0,24,24,80,144.899625012,8.65943729877e-06,147.650050289,2.75043457781,,,,,x,0,2.73424165987,2018_Nov_26_1233,59.9831860612,spanish_cond1,001,1051,
images/paintbrush03a.jpg,paint brush,z,sounds/greatgatsby_english.wav,,,,,,,,,0,0,0,0,0,25,25,0,148.828732046,9.621726349e-06,149.800607319,0.97188553575,,,,,z,1,0.950482173008,2018_Nov_26_1233,59.9831860612,spanish_cond1,001,1051,
images/crocodile.jpg,triangle ruler,x,sounds/greatgatsby_english.wav,,,,,,,,,0,0,0,0,0,26,26,235,150.97715788,8.65943729877e-06,152.051187183,1.07403892535,,,,,x,1,1.05052296887,2018_Nov_26_1233,59.9831860612,spanish_cond1,001,1051,
images/floorlamp.jpg,floor lamp,z,sounds/greatgatsby_english.wav,,,,,,,,,0,0,0,0,0,27,27,26,153.169234578,9.94233414531e-06,154.53512961,1.36590497405,,,,,z,1,1.35053406574,2018_Nov_26_1233,59.9831860612,spanish_cond1,001,1051,
images/bowtie.jpg,bowtie,z,sounds/greatgatsby_english.wav,,,,,,,,,0,0,0,0,0,28,28,89,155.742432251,9.30088572204e-06,156.50229765,0.759875021176,,,,,z,1,0.750432653469,2018_Nov_26_1233,59.9831860612,spanish_cond1,001,1051,
images/bottleofredwine02.jpg,pipe,x,sounds/greatgatsby_english.wav,,,,,,,,,0,0,0,0,0,29,29,213,157.679887991,9.30088572204e-06,158.636165926,0.956288518617,,,,,x,1,0.933806889574,2018_Nov_26_1233,59.9831860612,spanish_cond1,001,1051,
images/mitten01.jpg,mitten,z,sounds/greatgatsby_english.wav,,,,,,,,,0,0,0,0,0,30,30,102,159.879950339,8.98016151041e-06,161.036774592,1.15683387383,,,,,z,1,1.13385384332,2018_Nov_26_1233,59.9831860612,spanish_cond1,001,1051,
images/ashtray02b.jpg,ashtray,z,sounds/greatgatsby_english.wav,,,,,,,,,0,0,0,0,0,31,31,43,162.199519366,9.30100213736e-06,163.604103057,1.40459363279,,,,,z,1,1.38393530657,2018_Nov_26_1233,59.9831860612,spanish_cond1,001,1051,
images/lemon02.jpg,lemon,z,sounds/greatgatsby_english.wav,,,,,,,,,0,0,0,0,0,32,32,14,164.810098757,8.98027792573e-06,165.704623332,0.894534838153,,,,,z,1,0.88379835838,2018_Nov_26_1233,59.9831860612,spanish_cond1,001,1051,
images/screwdriver02b.jpg,cola,x,sounds/greatgatsby_english.wav,,,,,,,,,0,0,0,0,0,33,33,158,166.866327044,9.30088572204e-06,167.755135396,0.888817973784,,,,,x,1,0.867117943591,2018_Nov_26_1233,59.9831860612,spanish_cond1,001,1051,
images/banjo.jpg,knife,x,sounds/greatgatsby_english.wav,,,,,,,,,0,0,0,0,0,34,34,191,168.92607461,8.98016151041e-06,170.105740021,1.17967535264,,,,,x,1,1.167202165,2018_Nov_26_1233,59.9831860612,spanish_cond1,001,1051,
images/radish01.jpg,raisin,x,sounds/greatgatsby_english.wav,,,,,,,,,0,0,0,0,0,35,35,214,171.272743338,9.30100213736e-06,172.256281014,0.983547618263,,,,,x,1,0.967146872659,2018_Nov_26_1233,59.9831860612,spanish_cond1,001,1051,
images/carrot02.jpg,corkscrew,x,sounds/greatgatsby_english.wav,,,,,,,,,0,0,0,0,0,36,36,161,173.447294841,8.98016151041e-06,174.273475225,0.826190005755,,,,,x,1,0.817131862743,2018_Nov_26_1233,59.9831860612,spanish_cond1,001,1051,
images/desktopcomputer.jpg,desktop computer,z,sounds/greatgatsby_english.wav,,,,,,,,,0,0,0,0,0,37,37,16,175.475000064,9.62160993367e-06,176.373997103,0.899006981519,,,,,z,1,0.883805093588,2018_Nov_26_1233,59.9831860612,spanish_cond1,001,1051,
images/nametag01a.jpg,name tag,z,sounds/greatgatsby_english.wav,,,,,,,,,0,0,0,0,0,38,38,108,177.590147173,8.98027792573e-06,178.574542138,0.984404265881,,,,,z,1,0.967140778899,2018_Nov_26_1233,59.9831860612,spanish_cond1,001,1051,
images/volleyball.jpg,volley ball,z,sounds/greatgatsby_english.wav,,,,,,,,,0,0,0,0,0,39,39,2,179.705219233,8.98027792573e-06,180.408359868,0.70315057761,,,,,z,1,0.683761347202,2018_Nov_26_1233,59.9831860612,spanish_cond1,001,1051,
images/leaf01a.jpg,leaf,z,sounds/greatgatsby_english.wav,,,,,,,,,0,0,0,0,0,40,40,68,181.589742743,8.98016151041e-06,182.242134621,0.65240182064,,,,,z,1,0.633719460922,2018_Nov_26_1233,59.9831860612,spanish_cond1,001,1051,
images/tent.jpg,tent,z,sounds/greatgatsby_english.wav,,,,,,,,,0,0,0,0,0,41,41,11,183.437639514,9.30100213736e-06,184.259315362,0.821686111041,,,,,z,1,0.800433487399,2018_Nov_26_1233,59.9831860612,spanish_cond1,001,1051,
images/blackolive.jpg,tank,x,sounds/greatgatsby_english.wav,,,,,,,,,0,0,0,0,0,42,42,229,185.456832463,9.30088572204e-06,186.643254517,1.18643231736,,,,,x,1,1.167202165,2018_Nov_26_1233,59.9831860612,spanish_cond1,001,1051,
images/handbag02a.jpg,candle,x,sounds/greatgatsby_english.wav,,,,,,,,,0,0,0,0,0,43,43,144,187.88119923,9.62160993367e-06,188.810467587,0.929278619937,,,,,x,1,0.917111721472,2018_Nov_26_1233,59.9831860612,spanish_cond1,001,1051,
images/medal01.jpg,medal,z,sounds/greatgatsby_english.wav,,,,,,,,,0,0,0,0,0,44,44,115,189.97853987,8.98016151041e-06,191.094376851,1.1158466026,,,,,z,1,1.10051193601,2018_Nov_26_1233,59.9831860612,spanish_cond1,001,1051,
images/marker01a.jpg,marker,z,sounds/greatgatsby_english.wav,,,,,,,,,0,0,0,0,0,45,45,95,192.284840961,8.98016151041e-06,192.911524108,0.626693089842,,,,,z,1,0.617076249677,2018_Nov_26_1233,59.9831860612,spanish_cond1,001,1051,
images/straw.jpg,straw,z,sounds/greatgatsby_english.wav,,,,,,,,,0,0,0,0,0,46,46,109,194.065106185,9.621726349e-06,195.862311287,1.79721536592,,,,,z,1,1.78407732211,2018_Nov_26_1233,59.9831860612,spanish_cond1,001,1051,
images/tissuebox03.jpg,tissue box,z,sounds/greatgatsby_english.wav,,,,,,,,,0,0,0,0,0,47,47,58,197.065820753,9.621726349e-06,199.229790684,2.16398083628,,,,,z,1,2.15070969297,2018_Nov_26_1233,59.9831860612,spanish_cond1,001,1051,
images/cigar.jpg,crocodile,x,sounds/greatgatsby_english.wav,,,,,,,,,0,0,0,0,0,48,48,162,200.354815701,8.98016151041e-06,202.230533796,1.87572771753,,,,,x,1,1.86738125596,2018_Nov_26_1233,59.9831860612,spanish_cond1,001,1051,
images/ant.jpg,ant,z,sounds/greatgatsby_english.wav,,,,,,,,,0,0,0,0,0,49,49,98,203.400594233,9.30088572204e-06,205.047936348,1.64735205739,,,,,z,1,1.63400458242,2018_Nov_26_1233,59.9831860612,spanish_cond1,001,1051,
images/thumbtack02a.jpg,thumb tack,z,sounds/greatgatsby_english.wav,,,,,,,,,0,0,0,0,0,50,50,60,206.192071888,8.98027792573e-06,207.131775887,0.939713300439,,,,,z,1,0.917139303521,2018_Nov_26_1233,59.9831860612,spanish_cond1,001,1051,
images/pouch01b.jpg,pouch,z,sounds/greatgatsby_english.wav,,,,,,,,,0,0,0,0,0,51,51,25,208.368105766,8.98027792573e-06,209.065598813,0.697502668481,,,,,z,1,0.683744028211,2018_Nov_26_1233,59.9831860612,spanish_cond1,001,1051,
images/blueberry02.jpg,blueberry,z,sounds/greatgatsby_english.wav,,,,,,,,,0,0,0,0,0,52,52,46,210.256737401,8.98016151041e-06,211.2661493,1.00942119991,,,,,z,1,1.00049230782,2018_Nov_26_1233,59.9831860612,spanish_cond1,001,1051,
images/cake.jpg,cake,z,sounds/greatgatsby_english.wav,,,,,,,,,0,0,0,0,0,53,53,23,212.468366577,8.98016151041e-06,213.583397905,1.11504094978,,,,,z,1,1.10050520091,2018_Nov_26_1233,59.9831860612,spanish_cond1,001,1051,
images/gluestick.jpg,squirrel,x,sounds/greatgatsby_english.wav,,,,,,,,,0,0,0,0,0,54,54,226,214.7765394,8.65943729877e-06,215.717280934,0.940751155838,,,,,x,1,0.917141548591,2018_Nov_26_1233,59.9831860612,spanish_cond1,001,1051,
images/candycane01a.jpg,lip,x,sounds/greatgatsby_english.wav,,,,,,,,,0,0,0,0,0,55,55,200,216.925363249,9.62160993367e-06,218.067875616,1.14252295089,,,,,x,1,1.13386474771,2018_Nov_26_1233,59.9831860612,spanish_cond1,001,1051,
images/wallet01.jpg,lamp,x,sounds/greatgatsby_english.wav,,,,,,,,,0,0,0,0,0,56,56,193,219.205105056,8.98016151041e-06,220.018359714,0.813264600467,,,,,x,1,0.800436053192,2018_Nov_26_1233,59.9831860612,spanish_cond1,001,1051,
images/tank.jpg,wallet,x,sounds/greatgatsby_english.wav,,,,,,,,,0,0,0,0,0,57,57,237,221.195474104,9.94233414531e-06,221.885499787,0.69003562571,,,,,x,1,0.667051105062,2018_Nov_26_1233,59.9831860612,spanish_cond1,001,1051,
images/mirror02.jpg,8 ball,x,sounds/greatgatsby_english.wav,,,,,,,,,0,0,0,0,0,58,58,121,223.077332417,9.94245056063e-06,223.91935068,0.842028847081,,,,,x,1,0.833782450529,2018_Nov_26_1233,59.9831860612,spanish_cond1,001,1051,
images/stapler03a.jpg,candy cane,x,sounds/greatgatsby_english.wav,,,,,,,,,0,0,0,0,0,59,59,145,225.107541193,8.98016151041e-06,225.819842282,0.712310709991,,,,,x,1,0.700421877322,2018_Nov_26_1233,59.9831860612,spanish_cond1,001,1051,
images/camera01a.jpg,bull,x,sounds/greatgatsby_english.wav,,,,,,,,,0,0,0,0,0,60,60,138,227.007215918,8.98027792573e-06,227.67032407,0.66311777418,,,,,x,1,0.650409818161,2018_Nov_26_1233,59.9831860612,spanish_cond1,001,1051,
images/birthdaycandle.jpg,birthday candle,z,sounds/greatgatsby_english.wav,,,,,,,,,0,0,0,0,0,61,61,55,228.852137033,8.98027792573e-06,229.704141928,0.852014837903,,,,,z,1,0.833763848757,2018_Nov_26_1233,59.9831860612,spanish_cond1,001,1051,
images/bowl02b (1).jpg,bowl,z,sounds/greatgatsby_english.wav,,,,,,,,,0,0,0,0,0,62,62,24,230.891408764,9.30100213736e-06,232.238124638,1.3467261371,,,,,z,1,1.33391009795,2018_Nov_26_1233,59.9831860612,spanish_cond1,001,1051,
images/scooter.jpg,pen,x,sounds/greatgatsby_english.wav,,,,,,,,,0,0,0,0,0,63,63,212,233.470541391,9.30088572204e-06,234.321981496,0.851449726149,,,,,x,1,0.833772828919,2018_Nov_26_1233,59.9831860612,spanish_cond1,001,1051,
images/banana04a.jpg,banana,z,sounds/greatgatsby_english.wav,,,,,,,,,0,0,0,0,0,64,64,118,235.491390226,8.98016151041e-06,236.622582721,1.13120211626,,,,,z,1,1.11719555804,2018_Nov_26_1233,59.9831860612,spanish_cond1,001,1051,
images/leek.jpg,donut,x,sounds/greatgatsby_english.wav,,,,,,,,,0,0,0,0,0,65,65,169,237.760025119,9.30088572204e-06,238.5730588,0.813043623231,,,,,x,1,0.800441826228,2018_Nov_26_1233,59.9831860612,spanish_cond1,001,1051,
images/hairdryer03a.jpg,hairdryer,z,sounds/greatgatsby_english.wav,,,,,,,,,0,0,0,0,0,66,66,119,239.675533553,9.30100213736e-06,240.573564257,0.898040647036,,,,,z,1,0.883714970783,2018_Nov_26_1233,59.9831860612,spanish_cond1,001,1051,
images/cupcake.jpg,scissors,x,sounds/greatgatsby_english.wav,,,,,,,,,0,0,0,0,0,67,67,219,241.77092677,9.621726349e-06,242.557403411,0.786487545818,,,,,x,1,0.767101201811,2018_Nov_26_1233,59.9831860612,spanish_cond1,001,1051,
images/calculator02b.jpg,dice,x,sounds/greatgatsby_english.wav,,,,,,,,,0,0,0,0,0,68,68,165,243.756424056,8.98016151041e-06,244.857993411,1.1015792978,,,,,x,1,1.08384884009,2018_Nov_26_1233,59.9831860612,spanish_cond1,001,1051,
images/cherry01.jpg,highlighter,x,sounds/greatgatsby_english.wav,,,,,,,,,0,0,0,0,0,69,69,187,246.00378163,8.98027792573e-06,248.642275675,2.6385036665,,,,,x,1,2.61757080245,2018_Nov_26_1233,59.9831860612,spanish_cond1,001,1051,
images/aquarium.jpg,computer mouse,x,sounds/greatgatsby_english.wav,,,,,,,,,0,0,0,0,0,70,70,159,249.863086472,9.30088572204e-06,250.792863493,0.92978664313,,,,,x,1,0.917180355871,2018_Nov_26_1233,59.9831860612,spanish_cond1,001,1051,
images/puma.jpg,puma,z,sounds/greatgatsby_english.wav,,,,,,,,,0,0,0,0,0,71,71,4,251.894756778,9.30088572204e-06,252.826668843,0.931922328891,,,,,z,1,0.917091836687,2018_Nov_26_1233,59.9831860612,spanish_cond1,001,1051,
images/fryingpan01.jpg,frying pan,z,sounds/greatgatsby_english.wav,,,,,,,,,0,0,0,0,0,72,72,45,254.000153626,9.30100213736e-06,254.910523777,0.910379773006,,,,,z,1,0.900461775134,2018_Nov_26_1233,59.9831860612,spanish_cond1,001,1051,
images/daisy.jpg,daisy,z,sounds/greatgatsby_english.wav,,,,,,,,,0,0,0,0,0,73,73,6,256.036370162,9.30088572204e-06,257.961304285,1.92494374537,,,,,z,1,1.90072027675,2018_Nov_26_1233,59.9831860612,spanish_cond1,001,1051,
images/beachumbrella01.jpg,beach umbrella,z,sounds/greatgatsby_english.wav,,,,,,,,,0,0,0,0,0,74,74,92,259.145474553,8.98016151041e-06,260.045159219,0.899693967309,,,,,z,1,0.883790019667,2018_Nov_26_1233,59.9831860612,spanish_cond1,001,1051,
images/parkbench03.jpg,park bench,z,sounds/greatgatsby_english.wav,,,,,,,,,0,0,0,0,0,75,75,71,261.238121751,9.30088572204e-06,262.212378703,0.974266894278,,,,,z,1,0.950478645042,2018_Nov_26_1233,59.9831860612,spanish_cond1,001,1051,
images/bed.jpg,bed,z,sounds/greatgatsby_english.wav,,,,,,,,,0,0,0,0,0,76,76,103,263.409079888,9.30088572204e-06,264.112851062,0.70378079568,,,,,z,1,0.683729595738,2018_Nov_26_1233,59.9831860612,spanish_cond1,001,1051,
images/comb02a.jpg,diploma,x,sounds/greatgatsby_english.wav,,,,,,,,,0,0,0,0,0,77,77,166,265.294054333,9.30100213736e-06,266.113368386,0.819323995616,,,,,x,1,0.800440222607,2018_Nov_26_1233,59.9831860612,spanish_cond1,001,1051,
images/icecube02 (2).jpg,aloe,x,sounds/greatgatsby_english.wav,,,,,,,,,0,0,0,0,0,78,78,122,267.301313227,9.30088572204e-06,268.297249362,0.995945757022,,,,,x,1,0.983821193804,2018_Nov_26_1233,59.9831860612,spanish_cond1,001,1051,
images/honeycomb.jpg,honey comb,z,sounds/greatgatsby_english.wav,,,,,,,,,0,0,0,0,0,79,79,59,269.495627601,9.62160993367e-06,270.747879067,1.25226140872,,,,,z,1,1.23389014904,2018_Nov_26_1233,59.9831860612,spanish_cond1,001,1051,
images/axe01.jpg,axe,z,sounds/greatgatsby_english.wav,,,,,,,,,0,0,0,0,0,80,80,104,271.880231933,8.98016151041e-06,272.748378431,0.868156440323,,,,,z,1,0.85043977364,2018_Nov_26_1233,59.9831860612,spanish_cond1,001,1051,
images/electricguitar02.jpg,electric guitar,z,sounds/greatgatsby_english.wav,,,,,,,,,0,0,0,0,0,81,81,100,273.883455186,9.30100213736e-06,274.798897551,0.915451665991,,,,,z,1,0.900447021937,2018_Nov_26_1233,59.9831860612,spanish_cond1,001,1051,
images/parkingmeter.jpg,ear,x,sounds/greatgatsby_english.wav,,,,,,,,,0,0,0,0,0,82,82,171,275.975572552,9.621726349e-06,276.832741388,0.857179419487,,,,,x,1,0.833777960506,2018_Nov_26_1233,59.9831860612,spanish_cond1,001,1051,
images/sunglasses03a.jpg,sun glasses,z,sounds/greatgatsby_english.wav,,,,,,,,,0,0,0,0,0,83,83,17,277.974822064,9.30088572204e-06,278.816576373,0.841763610137,,,,,z,1,0.817097545601,2018_Nov_26_1233,59.9831860612,spanish_cond1,001,1051,
images/redfox.jpg,red fox,z,sounds/greatgatsby_english.wav,,,,,,,,,0,0,0,0,0,84,84,1,280.005647909,9.30088572204e-06,280.767096391,0.761458103429,,,,,z,1,0.750382300233,2018_Nov_26_1233,59.9831860612,spanish_cond1,001,1051,
images/barrel01.jpg,barrel,z,sounds/greatgatsby_english.wav,,,,,,,,,0,0,0,0,0,85,85,9,281.961174072,9.30088572204e-06,282.584205803,0.62304135249,,,,,z,1,0.60039391031,2018_Nov_26_1233,59.9831860612,spanish_cond1,001,1051,
images/flashlight05.jpg,flash light,z,sounds/greatgatsby_english.wav,,,,,,,,,0,0,0,0,0,86,86,8,283.770510474,8.98027792573e-06,284.26795368,0.49745250761,,,,,z,1,0.483695791569,2018_Nov_26_1233,59.9831860612,spanish_cond1,001,1051,
images/cookingpot.jpg,grasshopper,x,sounds/greatgatsby_english.wav,,,,,,,,,0,0,0,0,0,87,87,183,285.470182183,8.65943729877e-06,286.234960397,0.764787836117,,,,,x,1,0.750263633206,2018_Nov_26_1233,59.9831860612,spanish_cond1,001,1051,
images/butterfly.jpg,butterfly,z,sounds/greatgatsby_english.wav,,,,,,,,,0,0,0,0,0,88,88,91,287.420982512,8.98027792573e-06,288.118924569,0.697951358161,,,,,z,1,0.683739858796,2018_Nov_26_1233,59.9831860612,spanish_cond1,001,1051,
images/bicycle.jpg,hand bag,x,sounds/greatgatsby_english.wav,,,,,,,,,0,0,0,0,0,89,89,186,289.29662171,9.30088572204e-06,290.119435479,0.822824031464,,,,,x,1,0.800435732468,2018_Nov_26_1233,59.9831860612,spanish_cond1,001,1051,
images/antelope.jpg,antelope,z,sounds/greatgatsby_english.wav,,,,,,,,,0,0,0,0,0,90,90,12,291.298039621,9.30100213736e-06,292.019914893,0.721885215025,,,,,z,1,0.700412576436,2018_Nov_26_1233,59.9831860612,spanish_cond1,001,1051,
images/swallow.jpg,mattress,x,sounds/greatgatsby_english.wav,,,,,,,,,0,0,0,0,0,91,91,202,293.195671989,8.98027792573e-06,293.987081651,0.791418962646,,,,,x,1,0.76708997658,2018_Nov_26_1233,59.9831860612,spanish_cond1,001,1051,
images/bullet (2).jpg,rubber glove,x,sounds/greatgatsby_english.wav,,,,,,,,,0,0,0,0,0,92,92,217,295.162250543,8.98016151041e-06,296.621108363,1.45886712114,,,,,x,1,1.45062874281,2018_Nov_26_1233,59.9831860612,spanish_cond1,001,1051,
images/cactus.jpg,cactus,z,sounds/greatgatsby_english.wav,,,,,,,,,0,0,0,0,0,93,93,70,297.81838813,8.98016151041e-06,298.638255107,0.819876599126,,,,,z,1,0.800429638824,2018_Nov_26_1233,59.9831860612,spanish_cond1,001,1051,
images/doorhandle.jpg,doll,x,sounds/greatgatsby_english.wav,,,,,,,,,0,0,0,0,0,94,94,168,299.813274864,9.30088572204e-06,300.62212024,0.808855639305,,,,,x,1,0.800439901883,2018_Nov_26_1233,59.9831860612,spanish_cond1,001,1051,
images/safe.jpg,safe,z,sounds/greatgatsby_english.wav,,,,,,,,,0,0,0,0,0,95,95,78,301.809319082,9.30088572204e-06,303.05605157,1.24674210895,,,,,x,0,1.23388501746,2018_Nov_26_1233,59.9831860612,spanish_cond1,001,1051,
images/remotecontrol01c.jpg,remote control,z,sounds/greatgatsby_english.wav,,,,,,,,,0,0,0,0,0,96,96,85,304.204796842,9.30088572204e-06,304.88983851,0.685050969012,,,,,z,1,0.667060726671,2018_Nov_26_1233,59.9831860612,spanish_cond1,001,1051,
images/dresser02.jpg,dresser,z,sounds/greatgatsby_english.wav,,,,,,,,,0,0,0,0,0,97,97,87,306.071555256,9.30088572204e-06,306.640272767,0.568727132515,,,,,z,1,0.550363570102,2018_Nov_26_1233,59.9831860612,spanish_cond1,001,1051,
images/lighter02b.jpg,stapler,x,sounds/greatgatsby_english.wav,,,,,,,,,0,0,0,0,0,98,98,227,307.795909066,8.98027792573e-06,308.624118336,0.828218891285,,,,,x,1,0.81708599953,2018_Nov_26_1233,59.9831860612,spanish_cond1,001,1051,
images/cat.jpg,black olive,x,sounds/greatgatsby_english.wav,,,,,,,,,0,0,0,0,0,99,99,133,309.844913097,8.98016151041e-06,311.308130808,1.46322701196,,,,,x,1,1.45060148148,2018_Nov_26_1233,59.9831860612,spanish_cond1,001,1051,
images/toucan.jpg,toucan,z,sounds/greatgatsby_english.wav,,,,,,,,,0,0,0,0,0,100,100,81,312.494005711,9.94233414531e-06,313.325458119,0.831462349859,,,,,z,1,0.817251492059,2018_Nov_26_1233,59.9831860612,spanish_cond1,001,1051,
images/coffeepot03b.jpg,coffee pot,z,sounds/greatgatsby_english.wav,,,,,,,,,0,0,0,0,0,101,101,107,314.538435609,9.62160993367e-06,315.492528467,0.954103120952,,,,,z,1,0.933804644505,2018_Nov_26_1233,59.9831860612,spanish_cond1,001,1051,
images/doll.jpg,carrot,x,sounds/greatgatsby_english.wav,,,,,,,,,0,0,0,0,0,102,102,146,316.706394357,9.62160993367e-06,317.426347224,0.719963129843,,,,,x,1,0.700410010642,2018_Nov_26_1233,59.9831860612,spanish_cond1,001,1051,
images/sportshorts02.jpg,tape,x,sounds/greatgatsby_english.wav,,,,,,,,,0,0,0,0,0,103,103,230,318.616014019,8.98016151041e-06,319.510209213,0.894204494776,,,,,z,0,0.883790340275,2018_Nov_26_1233,59.9831860612,spanish_cond1,001,1051,
images/raisin.jpg,ruler,x,sounds/greatgatsby_english.wav,,,,,,,,,0,0,0,0,0,104,104,218,320.685839303,9.30100213736e-06,322.47763351,1.7918041494,,,,,x,1,1.76735328906,2018_Nov_26_1233,59.9831860612,spanish_cond1,001,1051,
images/lock02a.jpg,lock,z,sounds/greatgatsby_english.wav,,,,,,,,,0,0,0,0,0,105,105,65,323.685702676,8.98016151041e-06,324.661515769,0.975823035929,,,,,z,1,0.967095236294,2018_Nov_26_1233,59.9831860612,spanish_cond1,001,1051,
images/treadmill.jpg,lily,x,sounds/greatgatsby_english.wav,,,,,,,,,0,0,0,0,0,106,106,199,325.886324363,9.621726349e-06,327.095484944,1.20917084464,,,,,x,1,1.20053797856,2018_Nov_26_1233,59.9831860612,spanish_cond1,001,1051,
images/microphone01.jpg,diaper,x,sounds/greatgatsby_english.wav,,,,,,,,,0,0,0,0,0,107,107,164,328.234453336,9.94245056063e-06,329.812816552,1.57837379992,,,,,x,1,1.56729094079,2018_Nov_26_1233,59.9831860612,spanish_cond1,001,1051,
images/elbow.jpg,elbow,z,sounds/greatgatsby_english.wav,,,,,,,,,0,0,0,0,0,108,108,105,330.995669616,9.62160993367e-06,331.963356904,0.967697872431,,,,,z,1,0.950474475627,2018_Nov_26_1233,59.9831860612,spanish_cond1,001,1051,
images/magnifyingglass01b.jpg,magnifying glass,z,sounds/greatgatsby_english.wav,,,,,,,,,0,0,0,0,0,109,109,64,333.153489709,9.30088572204e-06,334.080563046,0.927083279821,,,,,z,1,0.917130002636,2018_Nov_26_1233,59.9831860612,spanish_cond1,001,1051,
images/ceilingfan02.jpg,paper clip,x,sounds/greatgatsby_english.wav,,,,,,,,,0,0,0,0,0,110,110,208,335.261263105,9.94245056063e-06,336.547852319,1.28659979836,,,,,x,1,1.26721794449,2018_Nov_26_1233,59.9831860612,spanish_cond1,001,1051,
images/charcoalbarbecue.jpg,charcoal barbecue,z,sounds/greatgatsby_english.wav,,,,,,,,,0,0,0,0,0,111,111,77,337.754815636,8.98016151041e-06,338.881778133,1.12697243842,,,,,z,1,1.11717888061,2018_Nov_26_1233,59.9831860612,spanish_cond1,001,1051,
images/envelope02a.jpg,grand piano,x,sounds/greatgatsby_english.wav,,,,,,,,,0,0,0,0,0,112,112,182,340.073723656,9.30088572204e-06,342.416002024,2.3422886316,,,,,x,1,2.3341609023,2018_Nov_26_1233,59.9831860612,spanish_cond1,001,1051,
images/showerhead01.jpg,skateboard,x,sounds/greatgatsby_english.wav,,,,,,,,,0,0,0,0,0,113,113,223,343.602643773,8.6595537141e-06,346.600248624,2.99761447206,,,,,None,0,,2018_Nov_26_1233,59.9831860612,spanish_cond1,001,1051,
images/button07.jpg,radish,x,sounds/greatgatsby_english.wav,,,,,,,,,0,0,0,0,0,114,114,215,347.799955612,9.30100213736e-06,348.767463938,0.967518909834,,,,,x,1,0.950326623046,2018_Nov_26_1233,59.9831860612,spanish_cond1,001,1051,
images/grasshopper.jpg,cauliflower,x,sounds/greatgatsby_english.wav,,,,,,,,,0,0,0,0,0,115,115,148,349.965855647,9.30088572204e-06,351.001512844,1.03566778102,,,,,x,1,1.01716245967,2018_Nov_26_1233,59.9831860612,spanish_cond1,001,1051,
images/squirrel.jpg,binder,x,sounds/greatgatsby_english.wav,,,,,,,,,0,0,0,0,0,116,116,132,352.189142095,8.98027792573e-06,352.935333204,0.746202655137,,,,,x,1,0.733755445923,2018_Nov_26_1233,59.9831860612,spanish_cond1,001,1051,
images/basketball01.jpg,basket ball,z,sounds/greatgatsby_english.wav,,,,,,,,,0,0,0,0,0,117,117,33,354.149256503,8.98016151041e-06,354.935852773,0.786606212729,,,,,z,1,0.767110182089,2018_Nov_26_1233,59.9831860612,spanish_cond1,001,1051,
images/dice05a.jpg,band aid,x,sounds/greatgatsby_english.wav,,,,,,,,,0,0,0,0,0,118,118,126,356.127071221,9.94245056063e-06,357.186418206,1.05935756885,,,,,x,1,1.05051655439,2018_Nov_26_1233,59.9831860612,spanish_cond1,001,1051,
images/tulip02.jpg,sport shorts,x,sounds/greatgatsby_english.wav,,,,,,,,,0,0,0,0,0,119,119,225,358.317970871,8.98016151041e-06,359.00353275,0.685572141781,,,,,x,1,0.667064254638,2018_Nov_26_1233,59.9831860612,spanish_cond1,001,1051,
images/saltshaker03c.jpg,salt shaker,z,sounds/greatgatsby_english.wav,,,,,,,,,0,0,0,0,0,120,120,63,360.186590433,9.30088572204e-06,361.037379794,0.850799302571,,,,,z,1,0.833738511777,2018_Nov_26_1233,59.9831860612,spanish_cond1,001,1051,
images/parkfountain.jpg,park fountain,z,sounds/greatgatsby_english.wav,,,,,,,,,0,0,0,0,0,121,121,93,362.222930768,9.30088572204e-06,363.137919312,0.914998486172,,,,,z,1,0.900464661536,2018_Nov_26_1233,59.9831860612,spanish_cond1,001,1051,
images/apple06.jpg,apple,z,sounds/greatgatsby_english.wav,,,,,,,,,0,0,0,0,0,122,122,13,364.337500257,9.30088572204e-06,365.055063105,0.71757279092,,,,,z,1,0.700406161952,2018_Nov_26_1233,59.9831860612,spanish_cond1,001,1051,
images/pepper05a.jpg,lighter,x,sounds/greatgatsby_english.wav,,,,,,,,,0,0,0,0,0,123,123,198,366.246366544,8.98016151041e-06,367.088919129,0.842561886413,,,,,x,1,0.833785337047,2018_Nov_26_1233,59.9831860612,spanish_cond1,001,1051,
images/peach01.jpg,peach,z,sounds/greatgatsby_english.wav,,,,,,,,,0,0,0,0,0,124,124,106,368.28945358,9.62160993367e-06,369.156111929,0.866667970899,,,,,z,1,0.850460299873,2018_Nov_26_1233,59.9831860612,spanish_cond1,001,1051,
images/triangleruler02.jpg,bottle of red wine,x,sounds/greatgatsby_english.wav,,,,,,,,,0,0,0,0,0,125,125,134,370.329878305,8.98016151041e-06,371.690079244,1.36021088099,,,,,x,1,1.35057864606,2018_Nov_26_1233,59.9831860612,spanish_cond1,001,1051,
images/lollipop03b.jpg,lollipop,z,sounds/greatgatsby_english.wav,,,,,,,,,0,0,0,0,0,126,126,42,372.882635742,9.30100213736e-06,374.040679058,1.15805325774,,,,,z,1,1.13385737117,2018_Nov_26_1233,59.9831860612,spanish_cond1,001,1051,
images/pictureframe04.jpg,picture frame,z,sounds/greatgatsby_english.wav,,,,,,,,,0,0,0,0,0,127,127,41,375.194462868,8.98027792573e-06,376.357934398,1.16348115192,,,,,z,1,1.15053457895,2018_Nov_26_1233,59.9831860612,spanish_cond1,001,1051,
images/grandpiano.jpg,tulip,x,sounds/greatgatsby_english.wav,,,,,,,,,0,0,0,0,0,128,128,236,377.509576429,9.30088572204e-06,379.191987538,1.68242073036,,,,,x,1,1.66733366088,2018_Nov_26_1233,59.9831860612,spanish_cond1,001,1051,
images/lamp04b.jpg,parking meter,x,sounds/greatgatsby_english.wav,,,,,,,,,0,0,0,0,0,129,129,209,380.351235484,8.98016151041e-06,381.425871914,1.07464573078,,,,,x,1,1.0504992354,2018_Nov_26_1233,59.9831860612,spanish_cond1,001,1051,
images/tape01a.jpg,tie,x,sounds/greatgatsby_english.wav,,,,,,,,,0,0,0,0,0,130,130,232,382.636135458,9.30088572204e-06,384.293273696,1.65714753966,,,,,x,1,1.63397154817,2018_Nov_26_1233,59.9831860612,spanish_cond1,001,1051,
images/dreamcatcher.jpg,dream catcher,z,sounds/greatgatsby_english.wav,,,,,,,,,0,0,0,0,0,131,131,48,385.478373415,9.30088572204e-06,386.427145821,0.948782027233,,,,,z,1,0.933809455368,2018_Nov_26_1233,59.9831860612,spanish_cond1,001,1051,
images/globe.jpg,cloud,x,sounds/greatgatsby_english.wav,,,,,,,,,0,0,0,0,0,132,132,154,387.6737946,9.30100213736e-06,389.794668194,2.12088353699,,,,,x,1,2.10076947545,2018_Nov_26_1233,59.9831860612,spanish_cond1,001,1051,
images/atm.jpg,atm,z,sounds/greatgatsby_english.wav,,,,,,,,,0,0,0,0,0,133,133,96,391.003311131,8.65943729877e-06,391.828516842,0.825215332559,,,,,z,1,0.800445995643,2018_Nov_26_1233,59.9831860612,spanish_cond1,001,1051,
images/key03b.jpg,cigar,x,sounds/greatgatsby_english.wav,,,,,,,,,0,0,0,0,0,134,134,153,393.00081752,8.98016151041e-06,393.979063608,0.978256030823,,,,,x,1,0.967126025702,2018_Nov_26_1233,59.9831860612,spanish_cond1,001,1051,
images/ruler02b.jpg,watermelon,x,sounds/greatgatsby_english.wav,,,,,,,,,0,0,0,0,0,135,135,238,395.158124137,8.6595537141e-06,396.312974989,1.15486047324,,,,,x,1,1.13385480549,2018_Nov_26_1233,59.9831860612,spanish_cond1,001,1051,
images/feather03b.jpg,feather,z,sounds/greatgatsby_english.wav,,,,,,,,,0,0,0,0,0,136,136,114,397.441457064,9.30088572204e-06,398.780271318,1.33882419567,,,,,z,1,1.31724026671,2018_Nov_26_1233,59.9831860612,spanish_cond1,001,1051,
images/headphones02b.jpg,headphones,z,sounds/greatgatsby_english.wav,,,,,,,,,0,0,0,0,0,137,137,101,399.972184128,8.98027792573e-06,401.047514279,1.07533913117,,,,,z,1,1.06714437099,2018_Nov_26_1233,59.9831860612,spanish_cond1,001,1051,
images/lantern03.jpg,lantern,z,sounds/greatgatsby_english.wav,,,,,,,,,0,0,0,0,0,138,138,5,402.195968336,8.98027792573e-06,403.031353112,0.83539439796,,,,,z,1,0.817115505924,2018_Nov_26_1233,59.9831860612,spanish_cond1,001,1051,
images/cheetah.jpg,cheetah,z,sounds/greatgatsby_english.wav,,,,,,,,,0,0,0,0,0,139,139,82,404.207249401,9.30088572204e-06,405.31525532,1.10801618232,,,,,z,1,1.0838302382,2018_Nov_26_1233,59.9831860612,spanish_cond1,001,1051,
images/nailclipper03a.jpg,aquarium,x,sounds/greatgatsby_english.wav,,,,,,,,,0,0,0,0,0,140,140,123,406.45655119,9.30088572204e-06,407.58250245,1.12596152362,,,,,z,0,1.11719106801,2018_Nov_26_1233,59.9831860612,spanish_cond1,001,1051,
images/chessknight02b (1).jpg,cockroach,x,sounds/greatgatsby_english.wav,,,,,,,,,0,0,0,0,0,141,141,155,408.731386595,9.30100213736e-06,410.016443402,1.2850664279,,,,,x,1,1.26721377508,2018_Nov_26_1233,59.9831860612,spanish_cond1,001,1051,
images/dryingmachine01.jpg,drying machine,z,sounds/greatgatsby_english.wav,,,,,,,,,0,0,0,0,0,142,142,18,411.178406257,9.30100213736e-06,412.433732162,1.25533584692,,,,,z,1,1.23387058487,2018_Nov_26_1233,59.9831860612,spanish_cond1,001,1051,
images/nailpolish02b.jpg,nail polish,z,sounds/greatgatsby_english.wav,,,,,,,,,0,0,0,0,0,143,143,94,413.584899204,9.621726349e-06,415.017712497,1.43282355694,,,,,z,1,1.41726181924,2018_Nov_26_1233,59.9831860612,spanish_cond1,001,1051,
images/eraser.jpg,eraser,z,sounds/greatgatsby_english.wav,,,,,,,,,0,0,0,0,0,144,144,110,416.20334718,8.98016151041e-06,417.334958537,1.13162129954,,,,,z,1,1.11717855989,2018_Nov_26_1233,59.9831860612,spanish_cond1,001,1051,
images/lettuce.jpg,mushroom,x,sounds/greatgatsby_english.wav,,,,,,,,,0,0,0,0,0,145,145,205,418.48777024,9.94245056063e-06,419.619163186,1.1314028881,,,,,x,1,1.11746945442,2018_Nov_26_1233,59.9831860612,spanish_cond1,001,1051,
images/lip.jpg,boxing glove,x,sounds/greatgatsby_english.wav,,,,,,,,,0,0,0,0,0,146,146,136,420.7602833,9.30100213736e-06,421.869447666,1.10917430837,,,,,x,1,1.10047761875,2018_Nov_26_1233,59.9831860612,spanish_cond1,001,1051,
images/corn01.jpg,corn,z,sounds/greatgatsby_english.wav,,,,,,,,,0,0,0,0,0,147,147,22,423.043249642,9.621726349e-06,424.136685816,1.0934461162,,,,,z,1,1.08384338778,2018_Nov_26_1233,59.9831860612,spanish_cond1,001,1051,
images/tie01.jpg,bench,x,sounds/greatgatsby_english.wav,,,,,,,,,0,0,0,0,0,148,148,130,425.295149277,8.98016151041e-06,426.103858988,0.808719653287,,,,,x,1,0.800419055042,2018_Nov_26_1233,59.9831860612,spanish_cond1,001,1051,
images/diaper01a.jpg,camera,x,sounds/greatgatsby_english.wav,,,,,,,,,0,0,0,0,0,149,149,143,427.306728934,8.98016151041e-06,428.287729059,0.981009426643,,,,,x,1,0.967138213105,2018_Nov_26_1233,59.9831860612,spanish_cond1,001,1051,
images/battery03b.jpg,battery,z,sounds/greatgatsby_english.wav,,,,,,,,,0,0,0,0,0,150,150,34,429.471412471,9.30100213736e-06,430.371592973,0.900190123823,,,,,z,1,0.883777832263,2018_Nov_26_1233,59.9831860612,spanish_cond1,001,1051,
images/rubberglove02a.jpg,lady bug,x,sounds/greatgatsby_english.wav,,,,,,,,,0,0,0,0,0,151,151,192,431.54169767,9.30088572204e-06,432.50547953,0.963792123599,,,,,x,1,0.95049275679,2018_Nov_26_1233,59.9831860612,spanish_cond1,001,1051,
images/diploma01.jpg,glasses,x,sounds/greatgatsby_english.wav,,,,,,,,,0,0,0,0,0,152,152,179,433.704692287,9.30088572204e-06,434.939413105,1.23473043973,,,,,x,1,1.21719818807,2018_Nov_26_1233,59.9831860612,spanish_cond1,001,1051,
images/bowlingball.jpg,bowling ball,z,sounds/greatgatsby_english.wav,,,,,,,,,0,0,0,0,0,153,153,20,436.109344932,8.98027792573e-06,437.07329453,0.963959861081,,,,,z,1,0.950478965766,2018_Nov_26_1233,59.9831860612,spanish_cond1,001,1051,
images/paperclip04.jpg,eye drops,x,sounds/greatgatsby_english.wav,,,,,,,,,0,0,0,0,0,154,154,174,438.323815703,8.65943729877e-06,439.090491307,0.766684905044,,,,,x,1,0.75045478344,2018_Nov_26_1233,59.9831860612,spanish_cond1,001,1051,
images/umbrella01.jpg,umbrella,z,sounds/greatgatsby_english.wav,,,,,,,,,0,0,0,0,0,155,155,53,440.278150064,9.30088572204e-06,441.107673652,0.829533529468,,,,,z,1,0.817138277227,2018_Nov_26_1233,59.9831860612,spanish_cond1,001,1051,
images/lightswitch02a.jpg,fork,x,sounds/greatgatsby_english.wav,,,,,,,,,0,0,0,0,0,156,156,177,442.330157654,9.30100213736e-06,443.274879665,0.944732595119,,,,,x,1,0.933822604944,2018_Nov_26_1233,59.9831860612,spanish_cond1,001,1051,
images/cola.jpg,comb,x,sounds/greatgatsby_english.wav,,,,,,,,,0,0,0,0,0,157,157,157,444.501051005,8.98016151041e-06,445.84219017,1.3411487866,,,,,x,1,1.31724860542,2018_Nov_26_1233,59.9831860612,spanish_cond1,001,1051,
images/8ball.jpg,nail clipper,x,sounds/greatgatsby_english.wav,,,,,,,,,0,0,0,0,0,158,158,206,446.997898311,8.98016151041e-06,447.792681323,0.794792954926,,,,,x,1,0.783773278003,2018_Nov_26_1233,59.9831860612,spanish_cond1,001,1051,
images/sock03.jpg,sock,z,sounds/greatgatsby_english.wav,,,,,,,,,0,0,0,0,0,159,159,90,448.973283562,8.98027792573e-06,449.743197493,0.769924194203,,,,,z,1,0.750461518532,2018_Nov_26_1233,59.9831860612,spanish_cond1,001,1051,
images/gamecontroller01.jpg,game controller,z,sounds/greatgatsby_english.wav,,,,,,,,,0,0,0,0,0,160,160,112,450.941813065,8.98016151041e-06,452.994048047,2.05224492354,,,,,z,1,2.03414114576,2018_Nov_26_1233,59.9831860612,spanish_cond1,001,1051,
images/masquerademask02b.jpg,mirror,x,sounds/greatgatsby_english.wav,,,,,,,,,0,0,0,0,0,161,161,204,454.184778356,9.62160993367e-06,454.86114386,0.67637512635,,,,,x,1,0.667083497974,2018_Nov_26_1233,59.9831860612,spanish_cond1,001,1051,
images/pipe.jpg,icecube,x,sounds/greatgatsby_english.wav,,,,,,,,,0,0,0,0,0,162,162,188,456.040166544,9.62160993367e-06,457.145061142,1.10490486107,,,,,x,1,1.08386295172,2018_Nov_26_1233,59.9831860612,spanish_cond1,001,1051,
images/toothbrush03a.jpg,parrot,x,sounds/greatgatsby_english.wav,,,,,,,,,0,0,0,0,0,163,163,210,458.304240454,9.621726349e-06,459.062203653,0.757973782951,,,,,x,1,0.733742616954,2018_Nov_26_1233,59.9831860612,spanish_cond1,001,1051,
images/hairband.jpg,hairband,z,sounds/greatgatsby_english.wav,,,,,,,,,0,0,0,0,0,164,164,66,460.23801463,8.98016151041e-06,461.479494337,1.24148964963,,,,,z,1,1.21723282605,2018_Nov_26_1233,59.9831860612,spanish_cond1,001,1051,
images/rhinoceros01.jpg,envelope,x,sounds/greatgatsby_english.wav,,,,,,,,,0,0,0,0,0,165,165,173,462.686769396,9.30088572204e-06,463.580012046,0.893252913374,,,,,x,1,0.883779756492,2018_Nov_26_1233,59.9831860612,spanish_cond1,001,1051,
images/electrictoothbrush01a.jpg,banjo,x,sounds/greatgatsby_english.wav,,,,,,,,,0,0,0,0,0,166,166,127,464.74181839,8.98016151041e-06,465.530518915,0.788710788591,,,,,x,1,0.76711916225,2018_Nov_26_1233,59.9831860612,spanish_cond1,001,1051,
images/chameleon.jpg,50 dollar bill,x,sounds/greatgatsby_english.wav,,,,,,,,,0,0,0,0,0,167,167,120,466.716900238,8.98016151041e-06,467.397648725,0.680758109083,,,,,x,1,0.667088308837,2018_Nov_26_1233,59.9831860612,spanish_cond1,001,1051,
images/table02.jpg,table,z,sounds/greatgatsby_english.wav,,,,,,,,,0,0,0,0,0,168,168,49,468.60580641,9.30100213736e-06,469.598212041,0.992415252607,,,,,z,1,0.983831136138,2018_Nov_26_1233,59.9831860612,spanish_cond1,001,1051,
images/lightbulb03b.jpg,treadmill,x,sounds/greatgatsby_english.wav,,,,,,,,,0,0,0,0,0,169,169,234,470.784428512,9.621726349e-06,471.865456926,1.08103899728,,,,,x,1,1.06718574406,2018_Nov_26_1233,59.9831860612,spanish_cond1,001,1051,
images/parrot01.jpg,chameleon,x,sounds/greatgatsby_english.wav,,,,,,,,,0,0,0,0,0,170,170,150,473.06383773,9.30088572204e-06,474.349421482,1.28559433576,,,,,x,1,1.2672529032,2018_Nov_26_1233,59.9831860612,spanish_cond1,001,1051,
images/computerkeyboard01a.jpg,computer keyboard,z,sounds/greatgatsby_english.wav,,,,,,,,,0,0,0,0,0,171,171,61,475.500704626,8.98027792573e-06,476.266560465,0.765866102534,,,,,z,1,0.750437143608,2018_Nov_26_1233,59.9831860612,spanish_cond1,001,1051,
images/skateboard.jpg,key,x,sounds/greatgatsby_english.wav,,,,,,,,,0,0,0,0,0,172,172,189,477.429026212,9.62160993367e-06,478.267061432,0.838045162731,,,,,x,1,0.817120637628,2018_Nov_26_1233,59.9831860612,spanish_cond1,001,1051,
images/licenseplate.jpg,license plate,z,sounds/greatgatsby_english.wav,,,,,,,,,0,0,0,0,0,173,173,40,479.466228646,9.30088572204e-06,480.367430968,0.901212584577,,,,,z,1,0.883640884073,2018_Nov_26_1233,59.9831860612,spanish_cond1,001,1051,
images/highheelshoe02a.jpg,high heel shoe,z,sounds/greatgatsby_english.wav,,,,,,,,,0,0,0,0,0,174,174,75,481.567815321,1.15460716188e-05,482.484817035,0.917012297781,,,,,z,1,0.900486149942,2018_Nov_26_1233,59.9831860612,spanish_cond1,001,1051,
images/puzzle.jpg,puzzle,z,sounds/greatgatsby_english.wav,,,,,,,,,0,0,0,0,0,175,175,57,483.680641687,8.98016151041e-06,484.468646567,0.788015143131,,,,,z,1,0.767117237905,2018_Nov_26_1233,59.9831860612,spanish_cond1,001,1051,
images/bat.jpg,hand,x,sounds/greatgatsby_english.wav,,,,,,,,,0,0,0,0,0,176,176,185,485.650045478,8.98027792573e-06,486.319130921,0.669095385238,,,,,x,1,0.650440286729,2018_Nov_26_1233,59.9831860612,spanish_cond1,001,1051,
images/snowman.jpg,globe,x,sounds/greatgatsby_english.wav,,,,,,,,,0,0,0,0,0,177,177,180,487.518663116,9.30088572204e-06,488.386286517,0.867633343209,,,,,x,1,0.850463827723,2018_Nov_26_1233,59.9831860612,spanish_cond1,001,1051,
images/mattress.jpg,cat,x,sounds/greatgatsby_english.wav,,,,,,,,,0,0,0,0,0,178,178,147,489.561431997,9.30088572204e-06,490.486816414,0.925394359394,,,,,x,1,0.91714379366,2018_Nov_26_1233,59.9831860612,spanish_cond1,001,1051,
images/aloe02.jpg,broad sword,x,sounds/greatgatsby_english.wav,,,,,,,,,0,0,0,0,0,179,179,137,491.688867237,8.98016151041e-06,492.470654606,0.781797311502,,,,,x,1,0.767108257627,2018_Nov_26_1233,59.9831860612,spanish_cond1,001,1051,
images/eyedrops.jpg,bicycle,x,sounds/greatgatsby_english.wav,,,,,,,,,0,0,0,0,0,180,180,131,493.6453267,9.62160993367e-06,494.38781636,0.742500243708,,,,,x,1,0.733633250813,2018_Nov_26_1233,59.9831860612,spanish_cond1,001,1051,
images/worldmap.jpg,scooter,x,sounds/greatgatsby_english.wav,,,,,,,,,0,0,0,0,0,181,181,220,495.57922275,8.98027792573e-06,496.221620299,0.642407491105,,,,,x,1,0.633755060961,2018_Nov_26_1233,59.9831860612,spanish_cond1,001,1051,
images/baseball01a.jpg,baseball,z,sounds/greatgatsby_english.wav,,,,,,,,,0,0,0,0,0,182,182,74,497.421189056,9.30088572204e-06,498.005389408,0.584210614092,,,,,z,1,0.567053927458,2018_Nov_26_1233,59.9831860612,spanish_cond1,001,1051,
images/backpack01b.jpg,swallow,x,sounds/greatgatsby_english.wav,,,,,,,,,0,0,0,0,0,183,183,228,499.205457529,8.98027792573e-06,500.22262063,1.01717304345,,,,,x,1,1.00050930609,2018_Nov_26_1233,59.9831860612,spanish_cond1,001,1051,
images/boxingglove02a.jpg,bracelet,x,sounds/greatgatsby_english.wav,,,,,,,,,0,0,0,0,0,184,184,135,501.389787516,9.30100213736e-06,502.206452728,0.816675475915,,,,,x,1,0.800449523493,2018_Nov_26_1233,59.9831860612,spanish_cond1,001,1051,
images/highlighter03b.jpg,coin,x,sounds/greatgatsby_english.wav,,,,,,,,,0,0,0,0,0,185,185,156,503.394638752,9.30088572204e-06,504.10693535,0.712306540692,,,,,x,1,0.700426046737,2018_Nov_26_1233,59.9831860612,spanish_cond1,001,1051,
images/kiwi03.jpg,backpack,x,sounds/greatgatsby_english.wav,,,,,,,,,0,0,0,0,0,186,186,125,505.304289525,9.30088572204e-06,506.024317119,0.720037858002,,,,,x,1,0.700585124665,2018_Nov_26_1233,59.9831860612,spanish_cond1,001,1051,
images/fork01.jpg,cooking pot,x,sounds/greatgatsby_english.wav,,,,,,,,,0,0,0,0,0,187,187,160,507.182836386,9.94245056063e-06,508.041259564,0.858433441259,,,,,x,1,0.833789185737,2018_Nov_26_1233,59.9831860612,spanish_cond1,001,1051,
images/binder03b.jpg,dj mixer,x,sounds/greatgatsby_english.wav,,,,,,,,,0,0,0,0,0,188,188,167,509.227092773,9.30100213736e-06,510.041781378,0.814698547241,,,,,x,1,0.800462673069,2018_Nov_26_1233,59.9831860612,spanish_cond1,001,1051,
images/printer03a.jpg,printer,z,sounds/greatgatsby_english.wav,,,,,,,,,0,0,0,0,0,189,189,72,511.230999805,9.621726349e-06,512.292358036,1.06136881467,,,,,z,1,1.05053451483,2018_Nov_26_1233,59.9831860612,spanish_cond1,001,1051,
images/beermug01b.jpg,beer mug,z,sounds/greatgatsby_english.wav,,,,,,,,,0,0,0,0,0,190,190,111,513.45633342,8.98027792573e-06,514.426209313,0.969885515166,,,,,z,1,0.950486983755,2018_Nov_26_1233,59.9831860612,spanish_cond1,001,1051,
images/flower01.jpg,bus,x,sounds/greatgatsby_english.wav,,,,,,,,,0,0,0,0,0,191,191,140,515.621105156,9.62160993367e-06,516.526749794,0.905654900824,,,,,x,1,0.883785529528,2018_Nov_26_1233,59.9831860612,spanish_cond1,001,1051,
images/graduationcap.jpg,graduation cap,z,sounds/greatgatsby_english.wav,,,,,,,,,0,0,0,0,0,192,192,35,517.706494101,8.98027792573e-06,519.377465388,1.67098154954,,,,,z,1,1.65067152702,2018_Nov_26_1233,59.9831860612,spanish_cond1,001,1051,
images/orange.jpg,bat,x,sounds/greatgatsby_english.wav,,,,,,,,,0,0,0,0,0,193,193,128,520.570625805,9.30100213736e-06,521.444659791,0.874043607968,,,,,x,1,0.850462224218,2018_Nov_26_1233,59.9831860612,spanish_cond1,001,1051,
images/djmixer01.jpg,light bulb,x,sounds/greatgatsby_english.wav,,,,,,,,,0,0,0,0,0,194,194,196,522.637319562,8.98027792573e-06,523.995301427,1.35799180751,,,,,x,1,1.33392196451,2018_Nov_26_1233,59.9831860612,spanish_cond1,001,1051,
images/razor04a.jpg,razor,z,sounds/greatgatsby_english.wav,,,,,,,,,0,0,0,0,0,195,195,36,525.098043341,9.30088572204e-06,525.895798802,0.797765724245,,,,,z,1,0.783777768025,2018_Nov_26_1233,59.9831860612,spanish_cond1,001,1051,
images/acousticguitar02.jpg,acoustic guitar,z,sounds/greatgatsby_english.wav,,,,,,,,,0,0,0,0,0,196,196,97,527.081629125,9.30100213736e-06,527.929629169,0.848010306712,,,,,z,1,0.833786940668,2018_Nov_26_1233,59.9831860612,spanish_cond1,001,1051,
images/candle08a.jpg,screw driver,x,sounds/greatgatsby_english.wav,,,,,,,,,0,0,0,0,0,197,197,221,529.078974191,8.98016151041e-06,530.030161631,0.951197061688,,,,,x,1,0.933813945507,2018_Nov_26_1233,59.9831860612,spanish_cond1,001,1051,
images/cockroach02.jpg,belt,x,sounds/greatgatsby_english.wav,,,,,,,,,0,0,0,0,0,198,198,129,531.160492667,8.98016151041e-06,531.763937282,0.603454557597,,,,,x,1,0.583734983811,2018_Nov_26_1233,59.9831860612,spanish_cond1,001,1051,
images/hat05.jpg,hat,z,sounds/greatgatsby_english.wav,,,,,,,,,0,0,0,0,0,199,199,15,532.954754507,8.98027792573e-06,533.764453644,0.809708759072,,,,,z,1,0.800465880311,2018_Nov_26_1233,59.9831860612,spanish_cond1,001,1051,
images/bull.jpg,button,x,sounds/greatgatsby_english.wav,,,,,,,,,0,0,0,0,0,200,200,141,534.957780516,9.30088572204e-06,535.731609497,0.773839244037,,,,,x,1,0.750445803162,2018_Nov_26_1233,59.9831860612,spanish_cond1,001,1051,
images/flamingo.jpg,flamingo,z,sounds/greatgatsby_english.wav,,,,,,,,,0,0,0,0,0,201,201,52,536.899345022,9.30088572204e-06,537.682105461,0.782770060468,,,,,z,1,0.767118520802,2018_Nov_26_1233,59.9831860612,spanish_cond1,001,1051,
images/arrow02.jpg,hammer,x,sounds/greatgatsby_english.wav,,,,,,,,,0,0,0,0,0,202,202,184,538.844509629,9.621726349e-06,539.582584555,0.738085188786,,,,,x,1,0.717100047157,2018_Nov_26_1233,59.9831860612,spanish_cond1,001,1051,
images/broom02.jpg,broom,z,sounds/greatgatsby_english.wav,,,,,,,,,0,0,0,0,0,203,203,116,540.754620958,9.30088572204e-06,541.34969153,0.595080193249,,,,,z,1,0.583734983811,2018_Nov_26_1233,59.9831860612,spanish_cond1,001,1051,
images/bus.jpg,microphone,x,sounds/greatgatsby_english.wav,,,,,,,,,0,0,0,0,0,204,204,203,542.534770723,9.30100213736e-06,543.466896389,0.932135929586,,,,,x,1,0.917147642351,2018_Nov_26_1233,59.9831860612,spanish_cond1,001,1051,
images/corkscrew02a.jpg,masquerade mask,x,sounds/greatgatsby_english.wav,,,,,,,,,0,0,0,0,0,205,205,201,544.60317104,9.62160993367e-06,545.334036783,0.730875685695,,,,,x,1,0.717094274238,2018_Nov_26_1233,59.9831860612,spanish_cond1,001,1051,
images/hand01a.jpg,cupcake,x,sounds/greatgatsby_english.wav,,,,,,,,,0,0,0,0,0,206,206,163,546.522785673,9.30100213736e-06,547.351483081,0.828707671142,,,,,x,1,0.81738972303,2018_Nov_26_1233,59.9831860612,spanish_cond1,001,1051,
images/gps.jpg,gps,z,sounds/greatgatsby_english.wav,,,,,,,,,0,0,0,0,0,207,207,21,548.548344627,8.65943729877e-06,549.58511537,1.03678036458,,,,,z,1,1.01717721287,2018_Nov_26_1233,59.9831860612,spanish_cond1,001,1051,
images/ostrich.jpg,ostrich,z,sounds/greatgatsby_english.wav,,,,,,,,,0,0,0,0,0,208,208,76,550.76382984,8.98016151041e-06,551.635626151,0.871805611765,,,,,z,1,0.850460941205,2018_Nov_26_1233,59.9831860612,spanish_cond1,001,1051,
images/glasses01b.jpg,calculator,x,sounds/greatgatsby_english.wav,,,,,,,,,0,0,0,0,0,209,209,142,552.793776909,8.98016151041e-06,553.536105887,0.742338599986,,,,,x,1,0.733764426084,2018_Nov_26_1233,59.9831860612,spanish_cond1,001,1051,
images/pen03c.jpg,pepper,x,sounds/greatgatsby_english.wav,,,,,,,,,0,0,0,0,0,210,210,211,554.700309304,9.30100213736e-06,555.753352183,1.05305346311,,,,,x,1,1.03381176456,2018_Nov_26_1233,59.9831860612,spanish_cond1,001,1051,
images/screw03c.jpg,screw,z,sounds/greatgatsby_english.wav,,,,,,,,,0,0,0,0,0,211,211,84,556.895851721,9.30088572204e-06,557.587154839,0.691313380958,,,,,z,1,0.667102420586,2018_Nov_26_1233,59.9831860612,spanish_cond1,001,1051,
images/computermouse02a.jpg,world map,x,sounds/greatgatsby_english.wav,,,,,,,,,0,0,0,0,0,212,212,239,558.765296822,8.98016151041e-06,559.770860702,1.00557350169,,,,,x,1,0.983674944728,2018_Nov_26_1233,59.9831860612,spanish_cond1,001,1051,
images/swan.jpg,swan,z,sounds/greatgatsby_english.wav,,,,,,,,,0,0,0,0,0,213,213,54,560.942100753,8.98027792573e-06,562.188292824,1.24620137224,,,,,z,1,1.2338869418,2018_Nov_26_1233,59.9831860612,spanish_cond1,001,1051,
,,,sounds/greatgatsby_english.wav,,,,,,,,,0,0,0,0,,,,,,,,,,,,,,,,2018_Nov_26_1233,59.9831860612,spanish_cond1,001,1051,
images/broadsword.jpg,teapot,x,sounds/animalfarm_spanish.wav,,,,,,,,,0,1,1,1,0,0,0,231,583.371806574,9.621726349e-06,584.527304321,1.15550801042,,,,573.191236408,x,1,1.13388751901,2018_Nov_26_1233,59.9831860612,spanish_cond1,001,1051,
images/hairband.jpg,hairband,z,sounds/animalfarm_spanish.wav,,,,,,,,,0,1,1,1,0,1,1,66,585.63739846,8.98016151041e-06,586.277724146,0.640335308155,,,,,z,1,0.617075287504,2018_Nov_26_1233,59.9831860612,spanish_cond1,001,1051,
images/sunglasses03a.jpg,sun glasses,z,sounds/animalfarm_spanish.wav,,,,,,,,,0,1,1,1,0,2,2,17,587.383687068,8.98016151041e-06,588.228207923,0.844530476257,,,,,z,1,0.833776998334,2018_Nov_26_1233,59.9831860612,spanish_cond1,001,1051,
images/mitten01.jpg,mitten,z,sounds/animalfarm_spanish.wav,,,,,,,,,0,1,1,1,0,3,3,102,589.346452561,9.30100213736e-06,590.145364224,0.798921284731,,,,,z,1,0.783788351808,2018_Nov_26_1233,59.9831860612,spanish_cond1,001,1051,
images/cherry01.jpg,highlighter,x,sounds/animalfarm_spanish.wav,,,,,,,,,0,1,1,1,0,4,4,187,591.254780998,9.30100213736e-06,592.079212166,0.82444143109,,,,,x,1,0.800467483932,2018_Nov_26_1233,59.9831860612,spanish_cond1,001,1051,
images/watermelon01.jpg,orange,x,sounds/animalfarm_spanish.wav,,,,,,,,,0,1,1,1,0,5,5,207,593.28768031,8.65943729877e-06,593.996332868,0.708661859273,,,,,x,1,0.70042123599,2018_Nov_26_1233,59.9831860612,spanish_cond1,001,1051,
images/scooter.jpg,pen,x,sounds/animalfarm_spanish.wav,,,,,,,,,0,1,1,1,0,6,6,212,595.089498994,9.30088572204e-06,595.780128597,0.69063922402,,,,,x,1,0.667088950286,2018_Nov_26_1233,59.9831860612,spanish_cond1,001,1051,
images/icecube02 (2).jpg,aloe,x,sounds/animalfarm_spanish.wav,,,,,,,,,0,1,1,1,0,7,7,122,596.89147387,8.65943729877e-06,597.580577158,0.689112909371,,,,,x,1,0.667081573629,2018_Nov_26_1233,59.9831860612,spanish_cond1,001,1051,
images/cigar.jpg,crocodile,x,sounds/animalfarm_spanish.wav,,,,,,,,,0,1,1,1,0,8,8,162,598.677949229,8.65943729877e-06,599.264342995,0.586403067689,,,,,x,1,0.56706675631,2018_Nov_26_1233,59.9831860612,spanish_cond1,001,1051,
images/aloe02.jpg,broad sword,x,sounds/animalfarm_spanish.wav,,,,,,,,,0,1,1,1,0,9,9,137,600.384237426,8.98016151041e-06,601.664985016,1.2807581732,,,,,x,1,1.26726220408,2018_Nov_26_1233,59.9831860612,spanish_cond1,001,1051,
images/ant.jpg,ant,z,sounds/animalfarm_spanish.wav,,,,,,,,,0,1,1,1,0,10,10,98,602.760385931,9.30100213736e-06,603.93218051,1.17180484219,,,,,z,1,1.15053554112,2018_Nov_26_1233,59.9831860612,spanish_cond1,001,1051,
images/pen03c.jpg,pepper,x,sounds/animalfarm_spanish.wav,,,,,,,,,0,1,1,1,0,11,11,211,605.026778017,9.62160993367e-06,605.765976431,0.739208356244,,,,,x,1,0.717090104939,2018_Nov_26_1233,59.9831860612,spanish_cond1,001,1051,
images/fryingpan01.jpg,frying pan,z,sounds/animalfarm_spanish.wav,,,,,,,,,0,1,1,1,0,12,12,45,606.867118264,8.98016151041e-06,607.449733288,0.582625286654,,,,,z,1,0.567052965285,2018_Nov_26_1233,59.9831860612,spanish_cond1,001,1051,
images/parrot01.jpg,chameleon,x,sounds/animalfarm_spanish.wav,,,,,,,,,0,1,1,1,0,13,13,150,608.564044596,8.65943729877e-06,609.283561922,0.719526627567,,,,,x,1,0.700444327784,2018_Nov_26_1233,59.9831860612,spanish_cond1,001,1051,
images/lily.jpg,kiwi,x,sounds/animalfarm_spanish.wav,,,,,,,,,0,1,1,1,0,14,14,190,610.384613312,9.621726349e-06,611.017314803,0.632711111917,,,,,x,1,0.617070156033,2018_Nov_26_1233,59.9831860612,spanish_cond1,001,1051,
images/skateboard.jpg,key,x,sounds/animalfarm_spanish.wav,,,,,,,,,0,1,1,1,0,15,15,189,612.108909072,9.62160993367e-06,612.767772793,0.658873663866,,,,,x,1,0.650408535381,2018_Nov_26_1233,59.9831860612,spanish_cond1,001,1051,
images/screwdriver02b.jpg,cola,x,sounds/animalfarm_spanish.wav,,,,,,,,,0,1,1,1,0,16,16,158,613.862253558,9.30088572204e-06,614.568220392,0.705977097852,,,,,x,1,0.683769685915,2018_Nov_26_1233,59.9831860612,spanish_cond1,001,1051,
images/safe.jpg,safe,z,sounds/animalfarm_spanish.wav,,,,,,,,,0,1,1,1,0,17,17,78,615.679147766,9.30100213736e-06,616.835456939,1.15631911554,,,,,z,1,1.13387244509,2018_Nov_26_1233,59.9831860612,spanish_cond1,001,1051,
images/headphones02b.jpg,headphones,z,sounds/animalfarm_spanish.wav,,,,,,,,,0,1,1,1,0,18,18,101,617.941235766,8.98027792573e-06,618.569252795,0.628026650753,,,,,z,1,0.61709805869,2018_Nov_26_1233,59.9831860612,spanish_cond1,001,1051,
images/cola.jpg,comb,x,sounds/animalfarm_spanish.wav,,,,,,,,,0,1,1,1,0,19,19,157,619.691472459,8.65943729877e-06,620.319674865,0.628212027834,,,,,x,1,0.61707496678,2018_Nov_26_1233,59.9831860612,spanish_cond1,001,1051,
images/rhinoceros01.jpg,envelope,x,sounds/animalfarm_spanish.wav,,,,,,,,,0,1,1,1,0,20,20,173,621.430364904,9.30088572204e-06,622.403562192,0.973207229748,,,,,x,1,0.950514886528,2018_Nov_26_1233,59.9831860612,spanish_cond1,001,1051,
images/backpack01b.jpg,swallow,x,sounds/animalfarm_spanish.wav,,,,,,,,,0,1,1,1,0,21,21,228,623.533819462,9.30100213736e-06,624.304036475,0.770227276254,,,,,x,1,0.750458952738,2018_Nov_26_1233,59.9831860612,spanish_cond1,001,1051,
images/cockroach02.jpg,belt,x,sounds/animalfarm_spanish.wav,,,,,,,,,0,1,1,1,0,22,22,129,625.401174739,8.33871308714e-06,626.087792113,0.686627316172,,,,,x,1,0.667085743044,2018_Nov_26_1233,59.9831860612,spanish_cond1,001,1051,
images/comb02a.jpg,diploma,x,sounds/animalfarm_spanish.wav,,,,,,,,,0,1,1,1,0,23,23,166,627.19009079,9.30088572204e-06,627.854904861,0.664824334206,,,,,x,1,0.650413025403,2018_Nov_26_1233,59.9831860612,spanish_cond1,001,1051,
images/globe.jpg,cloud,x,sounds/animalfarm_spanish.wav,,,,,,,,,0,1,1,1,0,24,24,154,628.980512308,9.30100213736e-06,629.72205167,0.741549303988,,,,,x,1,0.717103254399,2018_Nov_26_1233,59.9831860612,spanish_cond1,001,1051,
images/hat05.jpg,hat,z,sounds/animalfarm_spanish.wav,,,,,,,,,0,1,1,1,0,25,25,15,630.824109484,9.30088572204e-06,631.505954519,0.681861071032,,,,,z,1,0.667174262227,2018_Nov_26_1233,59.9831860612,spanish_cond1,001,1051,
images/banana04a.jpg,banana,z,sounds/animalfarm_spanish.wav,,,,,,,,,0,1,1,1,0,26,26,118,632.611677221,8.98016151041e-06,633.406349905,0.794682305888,,,,,z,1,0.783812085283,2018_Nov_26_1233,59.9831860612,spanish_cond1,001,1051,
images/parkingmeter.jpg,ear,x,sounds/animalfarm_spanish.wav,,,,,,,,,0,1,1,1,0,27,27,171,634.506408661,8.98016151041e-06,635.206817068,0.700418349355,,,,,x,1,0.683804965345,2018_Nov_26_1233,59.9831860612,spanish_cond1,001,1051,
images/coin01b.jpg,arrow,x,sounds/animalfarm_spanish.wav,,,,,,,,,0,1,1,1,0,28,28,124,636.388330477,8.6595537141e-06,637.840776429,1.45245525299,,,,,x,1,1.433955063,2018_Nov_26_1233,59.9831860612,spanish_cond1,001,1051,
images/egg01b (1).jpg,egg,z,sounds/animalfarm_spanish.wav,,,,,,,,,0,1,1,1,0,29,29,19,638.951181988,8.98016151041e-06,639.657896746,0.706725020893,,,,,z,1,0.683762309374,2018_Nov_26_1233,59.9831860612,spanish_cond1,001,1051,
images/8ball.jpg,nail clipper,x,sounds/animalfarm_spanish.wav,,,,,,,,,0,1,1,1,0,30,30,206,640.772887342,9.30088572204e-06,641.691751487,0.918873445713,,,,,x,1,0.900485508493,2018_Nov_26_1233,59.9831860612,spanish_cond1,001,1051,
images/paperclip04.jpg,eye drops,x,sounds/animalfarm_spanish.wav,,,,,,,,,0,1,1,1,0,31,31,174,642.797330826,8.98016151041e-06,643.525569858,0.728248654283,,,,,x,1,0.717127308482,2018_Nov_26_1233,59.9831860612,spanish_cond1,001,1051,
images/toucan.jpg,toucan,z,sounds/animalfarm_spanish.wav,,,,,,,,,0,1,1,1,0,32,32,81,644.624606475,8.98027792573e-06,645.409346408,0.784749554819,,,,,z,1,0.767108257627,2018_Nov_26_1233,59.9831860612,spanish_cond1,001,1051,
images/ladder.jpg,ladder,z,sounds/animalfarm_spanish.wav,,,,,,,,,0,1,1,1,0,33,33,113,646.500272293,9.30100213736e-06,647.059761999,0.55949996924,,,,,z,1,0.550379606197,2018_Nov_26_1233,59.9831860612,spanish_cond1,001,1051,
images/pouch01b.jpg,pouch,z,sounds/animalfarm_spanish.wav,,,,,,,,,0,1,1,1,0,34,34,25,648.1705149,8.98016151041e-06,648.676840173,0.506335215759,,,,,z,1,0.483702526777,2018_Nov_26_1233,59.9831860612,spanish_cond1,001,1051,
images/grandpiano.jpg,tulip,x,sounds/animalfarm_spanish.wav,,,,,,,,,0,1,1,1,0,35,35,236,649.792354508,9.30100213736e-06,650.443977937,0.651633050758,,,,,x,1,0.633763720398,2018_Nov_26_1233,59.9831860612,spanish_cond1,001,1051,
images/lettuce.jpg,mushroom,x,sounds/animalfarm_spanish.wav,,,,,,,,,0,1,1,1,0,36,36,205,651.567513842,8.98016151041e-06,652.511161115,0.943656573771,,,,,x,1,0.933830302209,2018_Nov_26_1233,59.9831860612,spanish_cond1,001,1051,
images/cupcake.jpg,scissors,x,sounds/animalfarm_spanish.wav,,,,,,,,,0,1,1,1,0,37,37,219,653.628747633,8.98016151041e-06,654.345153318,0.716430700966,,,,,x,1,0.700565881445,2018_Nov_26_1233,59.9831860612,spanish_cond1,001,1051,
images/toothbrush03a.jpg,parrot,x,sounds/animalfarm_spanish.wav,,,,,,,,,0,1,1,1,0,38,38,210,655.438788018,9.30088572204e-06,656.295438568,0.856660170946,,,,,x,1,0.833795920946,2018_Nov_26_1233,59.9831860612,spanish_cond1,001,1051,
images/worldmap.jpg,scooter,x,sounds/animalfarm_spanish.wav,,,,,,,,,0,1,1,1,0,39,39,220,657.424538674,8.6595537141e-06,658.095908617,0.671379565145,,,,,x,1,0.65043002367,2018_Nov_26_1233,59.9831860612,spanish_cond1,001,1051,
images/bed.jpg,bed,z,sounds/animalfarm_spanish.wav,,,,,,,,,0,1,1,1,0,40,40,103,659.215192074,9.30088572204e-06,659.812997439,0.597815307905,,,,,z,1,0.583732418017,2018_Nov_26_1233,59.9831860612,spanish_cond1,001,1051,
images/sportshorts02.jpg,tape,x,sounds/animalfarm_spanish.wav,,,,,,,,,0,1,1,1,0,41,41,230,660.9187288,9.30088572204e-06,661.546784316,0.628065137309,,,,,x,1,0.617090361426,2018_Nov_26_1233,59.9831860612,spanish_cond1,001,1051,
images/coffeepot03b.jpg,coffee pot,z,sounds/animalfarm_spanish.wav,,,,,,,,,0,1,1,1,0,42,42,107,662.66904439,8.98016151041e-06,663.53061,0.861575231072,,,,,z,1,0.850464789895,2018_Nov_26_1233,59.9831860612,spanish_cond1,001,1051,
images/bench02.jpg,electric toothbrush,x,sounds/animalfarm_spanish.wav,,,,,,,,,0,1,1,1,0,43,43,172,664.638409374,8.98016151041e-06,665.347734807,0.709335374879,,,,,x,1,0.700430857483,2018_Nov_26_1233,59.9831860612,spanish_cond1,001,1051,
images/pipe.jpg,icecube,x,sounds/animalfarm_spanish.wav,,,,,,,,,0,1,1,1,0,44,44,188,666.454478365,9.62160993367e-06,667.531620273,1.07715249166,,,,,x,1,1.06713314576,2018_Nov_26_1233,59.9831860612,spanish_cond1,001,1051,
images/remotecontrol01c.jpg,remote control,z,sounds/animalfarm_spanish.wav,,,,,,,,,0,1,1,1,0,45,45,85,668.642306785,9.30088572204e-06,669.365422609,0.723126087221,,,,,z,1,0.700439837761,2018_Nov_26_1233,59.9831860612,spanish_cond1,001,1051,
images/ostrich.jpg,ostrich,z,sounds/animalfarm_spanish.wav,,,,,,,,,0,1,1,1,0,46,46,76,670.464578212,8.98016151041e-06,671.149204867,0.684635955142,,,,,z,1,0.667088308721,2018_Nov_26_1233,59.9831860612,spanish_cond1,001,1051,
images/bottleofredwine02.jpg,pipe,x,sounds/animalfarm_spanish.wav,,,,,,,,,0,1,1,1,0,47,47,213,672.24828927,9.30088572204e-06,673.049698714,0.801419385942,,,,,x,1,0.783797973534,2018_Nov_26_1233,59.9831860612,spanish_cond1,001,1051,
images/chameleon.jpg,50 dollar bill,x,sounds/animalfarm_spanish.wav,,,,,,,,,0,1,1,1,0,48,48,120,674.15929413,9.30088572204e-06,675.033698229,0.874423342291,,,,,x,1,0.85061392549,2018_Nov_26_1233,59.9831860612,spanish_cond1,001,1051,
images/flipflop01b.jpg,flip flop,z,sounds/animalfarm_spanish.wav,,,,,,,,,0,1,1,1,0,49,49,27,676.225183196,8.65943729877e-06,677.117369069,0.892196135363,,,,,x,0,0.883787133149,2018_Nov_26_1233,59.9831860612,spanish_cond1,001,1051,
images/honeycomb.jpg,honey comb,z,sounds/animalfarm_spanish.wav,,,,,,,,,0,1,1,1,0,50,50,59,678.231178126,8.98027792573e-06,680.684947055,2.45377887145,,,,,z,1,2.43420394312,2018_Nov_26_1233,59.9831860612,spanish_cond1,001,1051,
images/razor04a.jpg,razor,z,sounds/animalfarm_spanish.wav,,,,,,,,,0,1,1,1,0,51,51,36,681.786101397,9.30088572204e-06,682.435396066,0.649304611259,,,,,z,1,0.633754419512,2018_Nov_26_1233,59.9831860612,spanish_cond1,001,1051,
images/leaf01a.jpg,leaf,z,sounds/animalfarm_spanish.wav,,,,,,,,,0,1,1,1,0,52,52,68,683.539749927,8.98016151041e-06,684.502905097,0.963165754103,,,,,z,1,0.950800970313,2018_Nov_26_1233,59.9831860612,spanish_cond1,001,1051,
images/blackolive.jpg,tank,x,sounds/animalfarm_spanish.wav,,,,,,,,,0,1,1,1,0,53,53,229,685.618972998,8.65943729877e-06,686.96986114,1.35089776421,,,,,x,1,1.33391330508,2018_Nov_26_1233,59.9831860612,spanish_cond1,001,1051,
images/bat.jpg,hand,x,sounds/animalfarm_spanish.wav,,,,,,,,,0,1,1,1,0,54,54,185,688.066182527,8.98016151041e-06,689.070408035,1.00423545076,,,,,x,1,0.98384396499,2018_Nov_26_1233,59.9831860612,spanish_cond1,001,1051,
images/electrictoothbrush01a.jpg,banjo,x,sounds/animalfarm_spanish.wav,,,,,,,,,0,1,1,1,0,55,55,127,690.166172007,8.98016151041e-06,690.887535408,0.721373343142,,,,,x,1,0.700437913416,2018_Nov_26_1233,59.9831860612,spanish_cond1,001,1051,
images/lip.jpg,boxing glove,x,sounds/animalfarm_spanish.wav,,,,,,,,,0,1,1,1,0,56,56,136,691.988870316,8.98027792573e-06,693.154788952,1.16592857917,,,,,x,1,1.15055574663,2018_Nov_26_1233,59.9831860612,spanish_cond1,001,1051,
images/flower01.jpg,bus,x,sounds/animalfarm_spanish.wav,,,,,,,,,0,1,1,1,0,57,57,140,694.269928043,9.30088572204e-06,694.955230137,0.685312357266,,,,,x,1,0.667096006218,2018_Nov_26_1233,59.9831860612,spanish_cond1,001,1051,
images/peach01.jpg,peach,z,sounds/animalfarm_spanish.wav,,,,,,,,,0,1,1,1,0,58,58,106,696.085690103,8.98027792573e-06,696.872419794,0.786739633069,,,,,z,1,0.767152517335,2018_Nov_26_1233,59.9831860612,spanish_cond1,001,1051,
images/straw.jpg,straw,z,sounds/animalfarm_spanish.wav,,,,,,,,,0,1,1,1,0,59,59,109,697.9644836,9.30100213736e-06,698.722693434,0.758220097166,,,,,z,1,0.733624270651,2018_Nov_26_1233,59.9831860612,spanish_cond1,001,1051,
images/radish01.jpg,raisin,x,sounds/animalfarm_spanish.wav,,,,,,,,,0,1,1,1,0,60,60,214,699.833296878,9.621726349e-06,700.956748434,1.12346149806,,,,,x,1,1.10053502803,2018_Nov_26_1233,59.9831860612,spanish_cond1,001,1051,
images/candy.jpg,candy,z,sounds/animalfarm_spanish.wav,,,,,,,,,0,1,1,1,0,61,61,31,702.057054787,9.62160993367e-06,702.740555708,0.683511184179,,,,,z,1,0.667113966541,2018_Nov_26_1233,59.9831860612,spanish_cond1,001,1051,
images/hammer02a.jpg,flower,x,sounds/animalfarm_spanish.wav,,,,,,,,,0,1,1,1,0,62,62,176,703.909296054,8.98027792573e-06,704.540987592,0.631701159291,,,,,x,1,0.617075608228,2018_Nov_26_1233,59.9831860612,spanish_cond1,001,1051,
images/flamingo.jpg,flamingo,z,sounds/animalfarm_spanish.wav,,,,,,,,,0,1,1,1,0,63,63,52,705.63774067,8.98016151041e-06,706.274771903,0.637040854781,,,,,z,1,0.617089078529,2018_Nov_26_1233,59.9831860612,spanish_cond1,001,1051,
images/sock03.jpg,sock,z,sounds/animalfarm_spanish.wav,,,,,,,,,0,1,1,1,0,64,64,90,707.379364702,8.98027792573e-06,708.041870218,0.662515138043,,,,,z,1,0.650399875827,2018_Nov_26_1233,59.9831860612,spanish_cond1,001,1051,
images/tissuebox03.jpg,tissue box,z,sounds/animalfarm_spanish.wav,,,,,,,,,0,1,1,1,0,65,65,58,709.165391691,9.30100213736e-06,710.35916148,1.19378005166,,,,,z,1,1.1839268395,2018_Nov_26_1233,59.9831860612,spanish_cond1,001,1051,
images/screw03c.jpg,screw,z,sounds/animalfarm_spanish.wav,,,,,,,,,0,1,1,1,0,66,66,84,711.451603737,8.98027792573e-06,713.009799652,1.55820585717,,,,,z,1,1.53398367146,2018_Nov_26_1233,59.9831860612,spanish_cond1,001,1051,
images/elbow.jpg,elbow,z,sounds/animalfarm_spanish.wav,,,,,,,,,0,1,1,1,0,67,67,105,714.119816496,9.30100213736e-06,714.726883983,0.607077109278,,,,,z,1,0.583717023372,2018_Nov_26_1233,59.9831860612,spanish_cond1,001,1051,
images/doll.jpg,carrot,x,sounds/animalfarm_spanish.wav,,,,,,,,,0,1,1,1,0,68,68,146,715.836392163,9.62160993367e-06,716.577353584,0.740971042658,,,,,x,1,0.717092349892,2018_Nov_26_1233,59.9831860612,spanish_cond1,001,1051,
images/tulip02.jpg,sport shorts,x,sounds/animalfarm_spanish.wav,,,,,,,,,0,1,1,1,0,69,69,225,717.671060126,8.6595537141e-06,718.577871229,0.906821044977,,,,,x,1,0.88381182868,2018_Nov_26_1233,59.9831860612,spanish_cond1,001,1051,
images/lion.jpg,lion,z,sounds/animalfarm_spanish.wav,,,,,,,,,0,1,1,1,0,70,70,44,719.779303059,9.30100213736e-06,720.328315429,0.549022311927,,,,,z,1,0.533724848996,2018_Nov_26_1233,59.9831860612,spanish_cond1,001,1051,
images/bowl02b (1).jpg,bowl,z,sounds/animalfarm_spanish.wav,,,,,,,,,0,1,1,1,0,71,71,24,721.445803164,9.30100213736e-06,722.078748082,0.632955181063,,,,,z,1,0.617059572134,2018_Nov_26_1233,59.9831860612,spanish_cond1,001,1051,
images/puma.jpg,puma,z,sounds/animalfarm_spanish.wav,,,,,,,,,0,1,1,1,0,72,72,4,723.175579416,8.6595537141e-06,723.829190678,0.653620883939,,,,,z,1,0.633742232108,2018_Nov_26_1233,59.9831860612,spanish_cond1,001,1051,
images/highlighter03b.jpg,coin,x,sounds/animalfarm_spanish.wav,,,,,,,,,0,1,1,1,0,73,73,156,724.929661241,8.98016151041e-06,725.846367891,0.916716271662,,,,,x,1,0.900474283262,2018_Nov_26_1233,59.9831860612,spanish_cond1,001,1051,
images/tent.jpg,tent,z,sounds/animalfarm_spanish.wav,,,,,,,,,0,1,1,1,0,74,74,11,726.971566097,8.98016151041e-06,727.580149957,0.608593160636,,,,,z,1,0.600410908693,2018_Nov_26_1233,59.9831860612,spanish_cond1,001,1051,
images/birthdaycandle.jpg,birthday candle,z,sounds/animalfarm_spanish.wav,,,,,,,,,0,1,1,1,0,75,75,55,728.675146762,8.6595537141e-06,729.480765999,0.80562885839,,,,,z,1,0.783919847803,2018_Nov_26_1233,59.9831860612,spanish_cond1,001,1051,
images/lipstick04.jpg,lipstick,z,sounds/animalfarm_spanish.wav,,,,,,,,,0,1,1,1,0,76,76,56,730.656873002,9.30100213736e-06,731.414447486,0.757584106061,,,,,z,1,0.733768274658,2018_Nov_26_1233,59.9831860612,spanish_cond1,001,1051,
images/teapot.jpg,light switch,x,sounds/animalfarm_spanish.wav,,,,,,,,,0,1,1,1,0,77,77,197,732.595441967,8.98027792573e-06,733.481633551,0.886202167603,,,,,x,1,0.867130130879,2018_Nov_26_1233,59.9831860612,spanish_cond1,001,1051,
images/clothespin02a.jpg,clothes pin,z,sounds/animalfarm_spanish.wav,,,,,,,,,0,1,1,1,0,78,78,79,734.585489973,9.30088572204e-06,735.248807878,0.663328488241,,,,,z,1,0.650447663269,2018_Nov_26_1233,59.9831860612,spanish_cond1,001,1051,
images/dragonfly02.jpg,dragon fly,z,sounds/animalfarm_spanish.wav,,,,,,,,,0,1,1,1,0,79,79,29,736.347502604,9.30088572204e-06,737.065869823,0.718376840232,,,,,z,1,0.700413538492,2018_Nov_26_1233,59.9831860612,spanish_cond1,001,1051,
images/crocodile.jpg,triangle ruler,x,sounds/animalfarm_spanish.wav,,,,,,,,,0,1,1,1,0,80,80,235,738.164646013,8.98016151041e-06,739.19975221,1.03511581896,,,,,x,1,1.01717560925,2018_Nov_26_1233,59.9831860612,spanish_cond1,001,1051,
images/banjo.jpg,knife,x,sounds/animalfarm_spanish.wav,,,,,,,,,0,1,1,1,0,81,81,191,740.298007869,9.94245056063e-06,740.950213408,0.652215802111,,,,,x,1,0.633764682687,2018_Nov_26_1233,59.9831860612,spanish_cond1,001,1051,
images/basketball01.jpg,basket ball,z,sounds/animalfarm_spanish.wav,,,,,,,,,0,1,1,1,0,82,82,33,742.090439992,9.62160993367e-06,742.767314161,0.676884111715,,,,,z,1,0.667052067234,2018_Nov_26_1233,59.9831860612,spanish_cond1,001,1051,
images/lightbulb03b.jpg,treadmill,x,sounds/animalfarm_spanish.wav,,,,,,,,,0,1,1,1,0,83,83,234,743.868259713,8.98016151041e-06,744.46774566,0.599494927446,,,,,x,1,0.5837295315,2018_Nov_26_1233,59.9831860612,spanish_cond1,001,1051,
images/key03b.jpg,cigar,x,sounds/animalfarm_spanish.wav,,,,,,,,,0,1,1,1,0,84,84,153,745.570368907,9.30088572204e-06,746.284871429,0.714512464474,,,,,x,1,0.700415783678,2018_Nov_26_1233,59.9831860612,spanish_cond1,001,1051,
images/cheetah.jpg,cheetah,z,sounds/animalfarm_spanish.wav,,,,,,,,,0,1,1,1,0,85,85,82,747.385960023,9.30088572204e-06,748.101995274,0.716045193491,,,,,z,1,0.700414180057,2018_Nov_26_1233,59.9831860612,spanish_cond1,001,1051,
images/paintbrush03a.jpg,paint brush,z,sounds/animalfarm_spanish.wav,,,,,,,,,0,1,1,1,0,86,86,0,749.204129741,9.621726349e-06,750.019187176,0.815067377291,,,,,z,1,0.800475502037,2018_Nov_26_1233,59.9831860612,spanish_cond1,001,1051,
images/doorhandle.jpg,doll,x,sounds/animalfarm_spanish.wav,,,,,,,,,0,1,1,1,0,87,87,168,751.121763597,8.98027792573e-06,752.419804501,1.29805052525,,,,,x,1,1.2839358839,2018_Nov_26_1233,59.9831860612,spanish_cond1,001,1051,
images/lightswitch02a.jpg,fork,x,sounds/animalfarm_spanish.wav,,,,,,,,,0,1,1,1,0,88,88,177,753.533051654,9.30088572204e-06,754.353591185,0.820549473283,,,,,x,1,0.80046074884,2018_Nov_26_1233,59.9831860612,spanish_cond1,001,1051,
images/eraser.jpg,eraser,z,sounds/animalfarm_spanish.wav,,,,,,,,,0,1,1,1,0,89,89,110,755.460931286,9.30088572204e-06,756.02067789,0.559756546631,,,,,z,1,0.550396604463,2018_Nov_26_1233,59.9831860612,spanish_cond1,001,1051,
images/dryingmachine01.jpg,drying machine,z,sounds/animalfarm_spanish.wav,,,,,,,,,0,1,1,1,0,90,90,18,757.141607932,8.98016151041e-06,757.821149864,0.679551874753,,,,,z,1,0.667106910609,2018_Nov_26_1233,59.9831860612,spanish_cond1,001,1051,
images/dice05a.jpg,band aid,x,sounds/animalfarm_spanish.wav,,,,,,,,,0,1,1,1,0,91,91,126,758.933176672,9.30100213736e-06,760.05487869,1.12171260267,,,,,x,1,1.10036953562,2018_Nov_26_1233,59.9831860612,spanish_cond1,001,1051,
images/feather03b.jpg,feather,z,sounds/animalfarm_spanish.wav,,,,,,,,,0,1,1,1,0,92,92,114,761.155377477,8.98016151041e-06,761.822137046,0.666769190691,,,,,x,0,0.650400196551,2018_Nov_26_1233,59.9831860612,spanish_cond1,001,1051,
images/stapler03a.jpg,candy cane,x,sounds/animalfarm_spanish.wav,,,,,,,,,0,1,1,1,0,93,93,145,762.934111896,9.30088572204e-06,763.739286612,0.805184658733,,,,,x,1,0.783773919335,2018_Nov_26_1233,59.9831860612,spanish_cond1,001,1051,
images/nailpolish02b.jpg,nail polish,z,sounds/animalfarm_spanish.wav,,,,,,,,,0,1,1,1,0,94,94,94,764.846178665,8.98016151041e-06,765.439741524,0.593572801212,,,,,z,1,0.583751019905,2018_Nov_26_1233,59.9831860612,spanish_cond1,001,1051,
images/battery03b.jpg,battery,z,sounds/animalfarm_spanish.wav,,,,,,,,,0,1,1,1,0,95,95,34,766.55019006,8.98016151041e-06,767.140163722,0.58998392534,,,,,z,1,0.567068680655,2018_Nov_26_1233,59.9831860612,spanish_cond1,001,1051,
images/button07.jpg,radish,x,sounds/animalfarm_spanish.wav,,,,,,,,,0,1,1,1,0,96,96,215,768.252292198,8.98016151041e-06,768.957302961,0.705020705704,,,,,x,1,0.683776100283,2018_Nov_26_1233,59.9831860612,spanish_cond1,001,1051,
images/antelope.jpg,antelope,z,sounds/animalfarm_spanish.wav,,,,,,,,,0,1,1,1,0,97,97,12,770.060806589,8.65943729877e-06,770.691063218,0.630266250228,,,,,z,1,0.617081381148,2018_Nov_26_1233,59.9831860612,spanish_cond1,001,1051,
images/bull.jpg,button,x,sounds/animalfarm_spanish.wav,,,,,,,,,0,1,1,1,0,98,98,141,771.795361915,8.6595537141e-06,772.524850159,0.729498186032,,,,,z,0,0.717077596695,2018_Nov_26_1233,59.9831860612,spanish_cond1,001,1051,
images/charcoalbarbecue.jpg,charcoal barbecue,z,sounds/animalfarm_spanish.wav,,,,,,,,,0,1,1,1,0,99,99,77,773.640313499,9.30088572204e-06,774.741937377,1.10163414117,,,,,z,1,1.0837038738,2018_Nov_26_1233,59.9831860612,spanish_cond1,001,1051,
images/radio03a.jpg,radio,z,sounds/animalfarm_spanish.wav,,,,,,,,,0,1,1,1,0,100,100,37,775.939071536,9.62160993367e-06,776.842610957,0.903549042181,,,,,z,1,0.883807017934,2018_Nov_26_1233,59.9831860612,spanish_cond1,001,1051,
images/glasses01b.jpg,calculator,x,sounds/animalfarm_spanish.wav,,,,,,,,,0,1,1,1,0,101,101,142,777.934019528,8.98016151041e-06,779.27657949,1.34257022524,,,,,x,1,1.33394056652,2018_Nov_26_1233,59.9831860612,spanish_cond1,001,1051,
images/grasshopper.jpg,cauliflower,x,sounds/animalfarm_spanish.wav,,,,,,,,,0,1,1,1,0,102,102,148,780.36880045,9.30088572204e-06,781.160374,0.79158349277,,,,,x,1,0.767110823421,2018_Nov_26_1233,59.9831860612,spanish_cond1,001,1051,
images/ceilingfan02.jpg,paper clip,x,sounds/animalfarm_spanish.wav,,,,,,,,,0,1,1,1,0,103,103,208,782.25813222,8.65943729877e-06,782.977527672,0.719405074022,,,,,x,1,0.700385635719,2018_Nov_26_1233,59.9831860612,spanish_cond1,001,1051,
images/table02.jpg,table,z,sounds/animalfarm_spanish.wav,,,,,,,,,0,1,1,1,0,104,104,49,784.090166095,9.30100213736e-06,784.761285876,0.671129722963,,,,,z,1,0.650422647013,2018_Nov_26_1233,59.9831860612,spanish_cond1,001,1051,
images/hanger02a.jpg,hanger,z,sounds/animalfarm_spanish.wav,,,,,,,,,0,1,1,1,0,105,105,88,785.854474132,9.30088572204e-06,786.545091226,0.69062735734,,,,,z,1,0.667110438575,2018_Nov_26_1233,59.9831860612,spanish_cond1,001,1051,
images/cactus.jpg,cactus,z,sounds/animalfarm_spanish.wav,,,,,,,,,0,1,1,1,0,106,106,70,787.655149123,9.621726349e-06,788.295527408,0.640388868633,,,,,z,1,0.617089078529,2018_Nov_26_1233,59.9831860612,spanish_cond1,001,1051,
images/blueberry02.jpg,blueberry,z,sounds/animalfarm_spanish.wav,,,,,,,,,0,1,1,1,0,107,107,46,789.407016685,8.98016151041e-06,790.045971286,0.638964543585,,,,,z,1,0.617092606379,2018_Nov_26_1233,59.9831860612,spanish_cond1,001,1051,
images/desktopcomputer.jpg,desktop computer,z,sounds/animalfarm_spanish.wav,,,,,,,,,0,1,1,1,0,108,108,16,791.180901472,8.98027792573e-06,791.746397654,0.565505803796,,,,,z,1,0.550398849533,2018_Nov_26_1233,59.9831860612,spanish_cond1,001,1051,
images/notebook02b.jpg,notebook,z,sounds/animalfarm_spanish.wav,,,,,,,,,0,1,1,1,0,109,109,7,792.851058446,9.30088572204e-06,793.446813758,0.595764934085,,,,,z,1,0.583728569443,2018_Nov_26_1233,59.9831860612,spanish_cond1,001,1051,
images/bracelet02a.jpg,chess knight,x,sounds/animalfarm_spanish.wav,,,,,,,,,0,1,1,1,0,110,110,152,794.639783988,8.98016151041e-06,795.330613079,0.69083871285,,,,,x,1,0.66707355564,2018_Nov_26_1233,59.9831860612,spanish_cond1,001,1051,
images/aquarium.jpg,computer mouse,x,sounds/animalfarm_spanish.wav,,,,,,,,,0,1,1,1,0,111,111,159,796.466597797,8.98016151041e-06,797.414503613,0.947916078614,,,,,x,1,0.933839603327,2018_Nov_26_1233,59.9831860612,spanish_cond1,001,1051,
images/tape01a.jpg,tie,x,sounds/animalfarm_spanish.wav,,,,,,,,,0,1,1,1,0,112,112,232,798.53850264,9.30100213736e-06,799.348326859,0.809834161308,,,,,x,1,0.800459465943,2018_Nov_26_1233,59.9831860612,spanish_cond1,001,1051,
images/bandaid01.jpg,door handle,x,sounds/animalfarm_spanish.wav,,,,,,,,,0,1,1,1,0,113,113,170,800.527222858,8.98016151041e-06,801.482185513,0.954971635365,,,,,x,1,0.933821963496,2018_Nov_26_1233,59.9831860612,spanish_cond1,001,1051,
images/pepper05a.jpg,lighter,x,sounds/animalfarm_spanish.wav,,,,,,,,,0,1,1,1,0,114,114,198,802.60195358,9.30088572204e-06,803.599377864,0.997434867779,,,,,x,1,0.983813175815,2018_Nov_26_1233,59.9831860612,spanish_cond1,001,1051,
images/mattress.jpg,cat,x,sounds/animalfarm_spanish.wav,,,,,,,,,0,1,1,1,0,115,115,147,804.701921251,9.30088572204e-06,805.749918537,1.04800754855,,,,,x,1,1.03371105797,2018_Nov_26_1233,59.9831860612,spanish_cond1,001,1051,
images/seagull.jpg,seagull,z,sounds/animalfarm_spanish.wav,,,,,,,,,0,1,1,1,0,116,116,50,806.942075095,9.30088572204e-06,808.033824914,1.09175944072,,,,,z,1,1.06717868813,2018_Nov_26_1233,59.9831860612,spanish_cond1,001,1051,
images/triangleruler02.jpg,bottle of red wine,x,sounds/animalfarm_spanish.wav,,,,,,,,,0,1,1,1,0,117,117,134,809.143501473,9.30088572204e-06,809.967672535,0.824180684285,,,,,x,1,0.800464597414,2018_Nov_26_1233,59.9831860612,spanish_cond1,001,1051,
images/ashtray02b.jpg,ashtray,z,sounds/animalfarm_spanish.wav,,,,,,,,,0,1,1,1,0,118,118,43,811.080559518,8.98027792573e-06,811.968171899,0.887622643961,,,,,z,1,0.867142318282,2018_Nov_26_1233,59.9831860612,spanish_cond1,001,1051,
images/chessknight02b (1).jpg,cockroach,x,sounds/animalfarm_spanish.wav,,,,,,,,,0,1,1,1,0,119,119,155,813.076064604,9.94233414531e-06,814.118697819,1.04264379875,,,,,x,1,1.03381593397,2018_Nov_26_1233,59.9831860612,spanish_cond1,001,1051,
images/cloud.jpg,ceiling fan,x,sounds/animalfarm_spanish.wav,,,,,,,,,0,1,1,1,0,120,120,149,815.22266521,8.98016151041e-06,816.385960985,1.16330571705,,,,,x,1,1.150457285,2018_Nov_26_1233,59.9831860612,spanish_cond1,001,1051,
images/beermug01b.jpg,beer mug,z,sounds/animalfarm_spanish.wav,,,,,,,,,0,1,1,1,0,121,121,111,817.501660056,9.94233414531e-06,818.586508906,1.08485879272,,,,,z,1,1.06718830974,2018_Nov_26_1233,59.9831860612,spanish_cond1,001,1051,
images/djmixer01.jpg,light bulb,x,sounds/animalfarm_spanish.wav,,,,,,,,,0,1,1,1,0,122,122,196,819.706617258,8.6595537141e-06,820.720373654,1.01376633754,,,,,x,1,1.00049872219,2018_Nov_26_1233,59.9831860612,spanish_cond1,001,1051,
images/cat.jpg,black olive,x,sounds/animalfarm_spanish.wav,,,,,,,,,0,1,1,1,0,123,123,133,821.849483702,9.30088572204e-06,822.687542977,0.838069858262,,,,,x,1,0.81712352403,2018_Nov_26_1233,59.9831860612,spanish_cond1,001,1051,
images/belt02a.jpg,snowman,x,sounds/animalfarm_spanish.wav,,,,,,,,,0,1,1,1,0,124,124,224,823.871032993,9.621726349e-06,824.721384889,0.850361517514,,,,,x,1,0.833788223565,2018_Nov_26_1233,59.9831860612,spanish_cond1,001,1051,
images/cookingpot.jpg,grasshopper,x,sounds/animalfarm_spanish.wav,,,,,,,,,0,1,1,1,0,125,125,183,825.833841784,8.65943729877e-06,826.805261311,0.97142850724,,,,,x,1,0.950461646891,2018_Nov_26_1233,59.9831860612,spanish_cond1,001,1051,
images/nailclipper03a.jpg,aquarium,x,sounds/animalfarm_spanish.wav,,,,,,,,,0,1,1,1,0,126,126,123,827.903086882,9.30088572204e-06,828.738920348,0.835844049696,,,,,x,1,0.816964125377,2018_Nov_26_1233,59.9831860612,spanish_cond1,001,1051,
images/dolphin01.jpg,dolphin,z,sounds/animalfarm_spanish.wav,,,,,,,,,0,1,1,1,0,127,127,99,829.837797245,9.30088572204e-06,830.522697154,0.684909851523,,,,,z,1,0.666918326286,2018_Nov_26_1233,59.9831860612,spanish_cond1,001,1051,
images/bullet (2).jpg,rubber glove,x,sounds/animalfarm_spanish.wav,,,,,,,,,0,1,1,1,0,128,128,217,831.626350238,8.98016151041e-06,832.706610523,1.08027022728,,,,,x,1,1.06704206066,2018_Nov_26_1233,59.9831860612,spanish_cond1,001,1051,
images/axe01.jpg,axe,z,sounds/animalfarm_spanish.wav,,,,,,,,,0,1,1,1,0,129,129,104,833.809551285,8.98016151041e-06,834.47387401,0.664332667948,,,,,z,1,0.650427457877,2018_Nov_26_1233,59.9831860612,spanish_cond1,001,1051,
images/hairdryer03a.jpg,hairdryer,z,sounds/animalfarm_spanish.wav,,,,,,,,,0,1,1,1,0,130,130,119,835.572020624,9.30100213736e-06,836.391022294,0.81901193352,,,,,z,1,0.800461069564,2018_Nov_26_1233,59.9831860612,spanish_cond1,001,1051,
images/candycane01a.jpg,lip,x,sounds/animalfarm_spanish.wav,,,,,,,,,0,1,1,1,0,131,131,200,837.483940182,9.30088572204e-06,838.691594654,1.20766377333,,,,,x,1,1.18387584481,2018_Nov_26_1233,59.9831860612,spanish_cond1,001,1051,
images/handfan01b.jpg,handfan,z,sounds/animalfarm_spanish.wav,,,,,,,,,0,1,1,1,0,132,132,69,839.881196985,9.30088572204e-06,841.242074967,1.36088824517,,,,,z,1,1.35042469972,2018_Nov_26_1233,59.9831860612,spanish_cond1,001,1051,
images/computermouse02a.jpg,world map,x,sounds/animalfarm_spanish.wav,,,,,,,,,0,1,1,1,0,133,133,239,842.342397356,9.94245056063e-06,843.392800054,1.05041264056,,,,,x,1,1.03385313763,2018_Nov_26_1233,59.9831860612,spanish_cond1,001,1051,
images/daisy.jpg,daisy,z,sounds/animalfarm_spanish.wav,,,,,,,,,0,1,1,1,0,134,134,6,844.494374221,8.98016151041e-06,845.57666756,1.08230328211,,,,,z,1,1.06717676378,2018_Nov_26_1233,59.9831860612,spanish_cond1,001,1051,
images/swallow.jpg,mattress,x,sounds/animalfarm_spanish.wav,,,,,,,,,0,1,1,1,0,135,135,202,846.676740749,8.6595537141e-06,847.627182832,0.950451704441,,,,,x,1,0.933768403018,2018_Nov_26_1233,59.9831860612,spanish_cond1,001,1051,
images/calculator02b.jpg,dice,x,sounds/animalfarm_spanish.wav,,,,,,,,,0,1,1,1,0,136,136,165,848.727539218,8.98027792573e-06,849.661031159,0.933501562569,,,,,x,1,0.91714379366,2018_Nov_26_1233,59.9831860612,spanish_cond1,001,1051,
images/arrow02.jpg,hammer,x,sounds/animalfarm_spanish.wav,,,,,,,,,0,1,1,1,0,137,137,184,850.758078659,8.98027792573e-06,851.478152117,0.720083400491,,,,,x,1,0.700417707907,2018_Nov_26_1233,59.9831860612,spanish_cond1,001,1051,
images/floorlamp.jpg,floor lamp,z,sounds/animalfarm_spanish.wav,,,,,,,,,0,1,1,1,0,138,138,26,852.569612966,9.621726349e-06,853.345391293,0.775788911269,,,,,z,1,0.767153158667,2018_Nov_26_1233,59.9831860612,spanish_cond1,001,1051,
images/highheelshoe02a.jpg,high heel shoe,z,sounds/animalfarm_spanish.wav,,,,,,,,,0,1,1,1,0,139,139,75,854.450771464,8.98027792573e-06,855.04573267,0.5949705065,,,,,z,1,0.58372985234,2018_Nov_26_1233,59.9831860612,spanish_cond1,001,1051,
images/lamp04b.jpg,parking meter,x,sounds/animalfarm_spanish.wav,,,,,,,,,0,1,1,1,0,140,140,209,856.166224605,9.621726349e-06,856.913029896,0.746815233608,,,,,x,1,0.733925428241,2018_Nov_26_1233,59.9831860612,spanish_cond1,001,1051,
images/bus.jpg,microphone,x,sounds/animalfarm_spanish.wav,,,,,,,,,0,1,1,1,0,141,141,203,858.031099421,9.621726349e-06,858.91339584,0.88230668183,,,,,x,1,0.867156750755,2018_Nov_26_1233,59.9831860612,spanish_cond1,001,1051,
images/gluestick.jpg,squirrel,x,sounds/animalfarm_spanish.wav,,,,,,,,,0,1,1,1,0,142,142,226,860.019531631,8.98027792573e-06,861.163944915,1.14442322694,,,,,x,1,1.13387084147,2018_Nov_26_1233,59.9831860612,spanish_cond1,001,1051,
images/medal01.jpg,medal,z,sounds/animalfarm_spanish.wav,,,,,,,,,0,1,1,1,0,143,143,115,862.263846197,8.98016151041e-06,862.997766494,0.73392991838,,,,,z,1,0.717120252666,2018_Nov_26_1233,59.9831860612,spanish_cond1,001,1051,
images/lock02a.jpg,lock,z,sounds/animalfarm_spanish.wav,,,,,,,,,0,1,1,1,0,144,144,65,864.106852925,8.65943729877e-06,865.131612961,1.02476965764,,,,,z,1,1.00050096726,2018_Nov_26_1233,59.9831860612,spanish_cond1,001,1051,
images/volleyball.jpg,volley ball,z,sounds/animalfarm_spanish.wav,,,,,,,,,0,1,1,1,0,145,145,2,866.262564593,9.30088572204e-06,866.848732572,0.586177920923,,,,,z,1,0.567072529229,2018_Nov_26_1233,59.9831860612,spanish_cond1,001,1051,
images/wallet01.jpg,lamp,x,sounds/animalfarm_spanish.wav,,,,,,,,,0,1,1,1,0,146,146,193,867.955189405,9.30100213736e-06,868.899248806,0.944069663296,,,,,x,1,0.933830302325,2018_Nov_26_1233,59.9831860612,spanish_cond1,001,1051,
images/nametag01a.jpg,name tag,z,sounds/animalfarm_spanish.wav,,,,,,,,,0,1,1,1,0,147,147,108,870.019267036,8.98016151041e-06,870.883070962,0.863813868491,,,,,z,1,0.850442660041,2018_Nov_26_1233,59.9831860612,spanish_cond1,001,1051,
images/squirrel.jpg,binder,x,sounds/animalfarm_spanish.wav,,,,,,,,,0,1,1,1,0,148,148,132,871.984476428,9.30088572204e-06,873.467082728,1.48261720454,,,,,x,1,1.46730402624,2018_Nov_26_1233,59.9831860612,spanish_cond1,001,1051,
images/cocktailshrimp01.jpg,cocktail shrimp,z,sounds/animalfarm_spanish.wav,,,,,,,,,0,1,1,1,0,149,149,30,874.58029813,9.62160993367e-06,875.617613779,1.03732591227,,,,,z,1,1.0171278218,2018_Nov_26_1233,59.9831860612,spanish_cond1,001,1051,
images/spoon02b.jpg,spoon,z,sounds/animalfarm_spanish.wav,,,,,,,,,0,1,1,1,0,150,150,38,876.790613951,9.30088572204e-06,877.418071642,0.627467632759,,,,,z,1,0.617072080262,2018_Nov_26_1233,59.9831860612,spanish_cond1,001,1051,
images/puzzle.jpg,puzzle,z,sounds/animalfarm_spanish.wav,,,,,,,,,0,1,1,1,0,151,151,57,878.536684469,8.98016151041e-06,879.185177334,0.648502486176,,,,,z,1,0.633736138348,2018_Nov_26_1233,59.9831860612,spanish_cond1,001,1051,
images/umbrella01.jpg,umbrella,z,sounds/animalfarm_spanish.wav,,,,,,,,,0,1,1,1,0,152,152,53,880.296709588,8.98016151041e-06,880.968952536,0.672252248856,,,,,z,1,0.650408535381,2018_Nov_26_1233,59.9831860612,spanish_cond1,001,1051,
images/raisin.jpg,ruler,x,sounds/animalfarm_spanish.wav,,,,,,,,,0,1,1,1,0,153,153,218,882.075432782,8.65943729877e-06,882.786079908,0.710656427545,,,,,x,1,0.700425405288,2018_Nov_26_1233,59.9831860612,spanish_cond1,001,1051,
images/diploma01.jpg,glasses,x,sounds/animalfarm_spanish.wav,,,,,,,,,0,1,1,1,0,154,154,179,883.917956823,8.98016151041e-06,884.56986826,0.651921700337,,,,,x,1,0.633744797902,2018_Nov_26_1233,59.9831860612,spanish_cond1,001,1051,
images/microphone01.jpg,diaper,x,sounds/animalfarm_spanish.wav,,,,,,,,,0,1,1,1,0,155,155,164,885.670774043,8.98027792573e-06,886.35366014,0.682895719307,,,,,x,1,0.667088308837,2018_Nov_26_1233,59.9831860612,spanish_cond1,001,1051,
images/bicycle.jpg,hand bag,x,sounds/animalfarm_spanish.wav,,,,,,,,,0,1,1,1,0,156,156,186,887.465286045,9.30100213736e-06,888.054079452,0.588803028106,,,,,x,1,0.567054568906,2018_Nov_26_1233,59.9831860612,spanish_cond1,001,1051,
images/hand01a.jpg,cupcake,x,sounds/animalfarm_spanish.wav,,,,,,,,,0,1,1,1,0,157,157,163,889.166689331,9.30100213736e-06,890.171303233,1.00462384475,,,,,x,1,0.983849738026,2018_Nov_26_1233,59.9831860612,spanish_cond1,001,1051,
images/mailbox01.jpg,mail box,z,sounds/animalfarm_spanish.wav,,,,,,,,,0,1,1,1,0,158,158,73,891.365927425,9.30088572204e-06,893.338761976,1.9728448143,,,,,x,0,1.95074067474,2018_Nov_26_1233,59.9831860612,spanish_cond1,001,1051,
images/magnifyingglass01b.jpg,magnifying glass,z,sounds/animalfarm_spanish.wav,,,,,,,,,0,1,1,1,0,159,159,64,894.447110747,8.98027792573e-06,895.189236708,0.74213558319,,,,,z,1,0.733780462178,2018_Nov_26_1233,59.9831860612,spanish_cond1,001,1051,
images/apricot.jpg,apricot,z,sounds/animalfarm_spanish.wav,,,,,,,,,0,1,1,1,0,160,160,32,896.307823236,8.98027792573e-06,896.923007549,0.615194575512,,,,,z,1,0.600408663624,2018_Nov_26_1233,59.9831860612,spanish_cond1,001,1051,
images/ruler02b.jpg,watermelon,x,sounds/animalfarm_spanish.wav,,,,,,,,,0,1,1,1,0,161,161,238,898.026840878,8.65943729877e-06,899.006716875,0.979885938461,,,,,x,1,0.967016338836,2018_Nov_26_1233,59.9831860612,spanish_cond1,001,1051,
images/pineapple01a.jpg,pineapple,z,sounds/animalfarm_spanish.wav,,,,,,,,,0,1,1,1,0,162,162,51,900.22382494,9.62160993367e-06,901.274103839,1.05028884194,,,,,z,1,1.03382427269,2018_Nov_26_1233,59.9831860612,spanish_cond1,001,1051,
images/mirror02.jpg,8 ball,x,sounds/animalfarm_spanish.wav,,,,,,,,,0,1,1,1,0,163,163,121,902.376654603,9.30100213736e-06,903.174422252,0.797777591157,,,,,x,1,0.783587900922,2018_Nov_26_1233,59.9831860612,spanish_cond1,001,1051,
images/eyedrops.jpg,bicycle,x,sounds/animalfarm_spanish.wav,,,,,,,,,0,1,1,1,0,164,164,131,904.276452164,9.62160993367e-06,905.125077615,0.848635393311,,,,,x,1,0.833797203843,2018_Nov_26_1233,59.9831860612,spanish_cond1,001,1051,
images/candle08a.jpg,screw driver,x,sounds/animalfarm_spanish.wav,,,,,,,,,0,1,1,1,0,165,165,221,906.239566923,9.30100213736e-06,906.975565176,0.736008836539,,,,,x,1,0.717116083251,2018_Nov_26_1233,59.9831860612,spanish_cond1,001,1051,
images/parkfountain.jpg,park fountain,z,sounds/animalfarm_spanish.wav,,,,,,,,,0,1,1,1,0,166,166,93,908.094582754,9.30100213736e-06,909.042725583,0.948152450612,,,,,z,1,0.933799192309,2018_Nov_26_1233,59.9831860612,spanish_cond1,001,1051,
images/ear.jpg,bullet,x,sounds/animalfarm_spanish.wav,,,,,,,,,0,1,1,1,0,167,167,139,910.221101692,8.98016151041e-06,910.976544981,0.755452910322,,,,,x,1,0.733760577394,2018_Nov_26_1233,59.9831860612,spanish_cond1,001,1051,
images/redfox.jpg,red fox,z,sounds/animalfarm_spanish.wav,,,,,,,,,0,1,1,1,0,168,168,1,912.090612219,8.98027792573e-06,912.69365946,0.603057183442,,,,,z,1,0.583733059466,2018_Nov_26_1233,59.9831860612,spanish_cond1,001,1051,
images/ladybug03.jpg,giraffe,x,sounds/animalfarm_spanish.wav,,,,,,,,,0,1,1,1,0,169,169,178,913.797047629,8.98016151041e-06,914.410756942,0.613718614099,,,,,x,1,0.60037691216,2018_Nov_26_1233,59.9831860612,spanish_cond1,001,1051,
images/fork01.jpg,cooking pot,x,sounds/animalfarm_spanish.wav,,,,,,,,,0,1,1,1,0,170,170,160,915.505827193,9.30088572204e-06,916.227890729,0.722073799348,,,,,x,1,0.700428933254,2018_Nov_26_1233,59.9831860612,spanish_cond1,001,1051,
images/licenseplate.jpg,license plate,z,sounds/animalfarm_spanish.wav,,,,,,,,,0,1,1,1,0,171,171,40,917.346361797,9.30088572204e-06,917.961659004,0.615306827938,,,,,z,1,0.600400645519,2018_Nov_26_1233,59.9831860612,spanish_cond1,001,1051,
images/plant01.jpg,plant,z,sounds/animalfarm_spanish.wav,,,,,,,,,0,1,1,1,0,172,172,47,919.074593132,8.6595537141e-06,919.59541214,0.520828950219,,,,,z,1,0.500384224579,2018_Nov_26_1233,59.9831860612,spanish_cond1,001,1051,
images/kiwi03.jpg,backpack,x,sounds/animalfarm_spanish.wav,,,,,,,,,0,1,1,1,0,173,173,125,920.725323352,8.98027792573e-06,921.462545478,0.737232069136,,,,,x,1,0.717096198583,2018_Nov_26_1233,59.9831860612,spanish_cond1,001,1051,
images/dreamcatcher.jpg,dream catcher,z,sounds/animalfarm_spanish.wav,,,,,,,,,0,1,1,1,0,174,174,48,922.562331942,9.30088572204e-06,923.296333381,0.734011061024,,,,,z,1,0.71706957859,2018_Nov_26_1233,59.9831860612,spanish_cond1,001,1051,
images/gamecontroller01.jpg,game controller,z,sounds/animalfarm_spanish.wav,,,,,,,,,0,1,1,1,0,175,175,112,924.419758638,9.62160993367e-06,925.013444974,0.593695958378,,,,,z,1,0.583708684659,2018_Nov_26_1233,59.9831860612,spanish_cond1,001,1051,
images/tank.jpg,wallet,x,sounds/animalfarm_spanish.wav,,,,,,,,,0,1,1,1,0,176,176,237,926.119730222,9.30088572204e-06,926.747216136,0.627496176981,,,,,x,1,0.617075608228,2018_Nov_26_1233,59.9831860612,spanish_cond1,001,1051,
images/baseball01a.jpg,baseball,z,sounds/animalfarm_spanish.wav,,,,,,,,,0,1,1,1,0,177,177,74,927.880993006,9.30088572204e-06,928.48099307,0.600010006456,,,,,z,1,0.583742360352,2018_Nov_26_1233,59.9831860612,spanish_cond1,001,1051,
images/electricguitar02.jpg,electric guitar,z,sounds/animalfarm_spanish.wav,,,,,,,,,0,1,1,1,0,178,178,100,929.584282135,9.30088572204e-06,930.548192605,0.963919770787,,,,,z,1,0.950503019849,2018_Nov_26_1233,59.9831860612,spanish_cond1,001,1051,
images/cauliflower01.jpg,glue stick,x,sounds/animalfarm_spanish.wav,,,,,,,,,0,1,1,1,0,179,179,181,931.751287698,9.30100213736e-06,932.448663681,0.697385925683,,,,,x,1,0.683759102016,2018_Nov_26_1233,59.9831860612,spanish_cond1,001,1051,
images/handbag02a.jpg,candle,x,sounds/animalfarm_spanish.wav,,,,,,,,,0,1,1,1,0,180,180,144,933.56637945,9.94233414531e-06,934.482506876,0.916138010332,,,,,x,1,0.900478773285,2018_Nov_26_1233,59.9831860612,spanish_cond1,001,1051,
images/thumbtack02a.jpg,thumb tack,z,sounds/animalfarm_spanish.wav,,,,,,,,,0,1,1,1,0,181,181,60,935.59550996,8.98016151041e-06,936.44966305,0.854163031792,,,,,z,1,0.833789827186,2018_Nov_26_1233,59.9831860612,spanish_cond1,001,1051,
images/lollipop03b.jpg,lollipop,z,sounds/animalfarm_spanish.wav,,,,,,,,,0,1,1,1,0,182,182,42,937.544074538,8.98016151041e-06,938.300140348,0.756075751851,,,,,z,1,0.733767312486,2018_Nov_26_1233,59.9831860612,spanish_cond1,001,1051,
images/lantern03.jpg,lantern,z,sounds/animalfarm_spanish.wav,,,,,,,,,0,1,1,1,0,183,183,5,939.408604899,8.98016151041e-06,940.183950894,0.775356257684,,,,,z,1,0.767118200078,2018_Nov_26_1233,59.9831860612,spanish_cond1,001,1051,
images/corn01.jpg,corn,z,sounds/animalfarm_spanish.wav,,,,,,,,,0,1,1,1,0,184,184,22,941.284915047,8.98016151041e-06,942.017753229,0.732848124113,,,,,z,1,0.717101650778,2018_Nov_26_1233,59.9831860612,spanish_cond1,001,1051,
images/orange.jpg,bat,x,sounds/animalfarm_spanish.wav,,,,,,,,,0,1,1,1,0,185,185,128,943.143824439,8.65943729877e-06,944.018247782,0.874432643293,,,,,x,1,0.85046511062,2018_Nov_26_1233,59.9831860612,spanish_cond1,001,1051,
images/croissant02b.jpg,croissant,z,sounds/animalfarm_spanish.wav,,,,,,,,,0,1,1,1,0,186,186,39,945.131340989,9.30100213736e-06,946.035431089,0.904099721345,,,,,z,1,0.883807659266,2018_Nov_26_1233,59.9831860612,spanish_cond1,001,1051,
images/apple06.jpg,apple,z,sounds/animalfarm_spanish.wav,,,,,,,,,0,1,1,1,0,187,187,13,947.164019002,9.30088572204e-06,948.185984911,1.02197585092,,,,,z,1,1.00051636191,2018_Nov_26_1233,59.9831860612,spanish_cond1,001,1051,
images/donut.jpg,rhinoceros,x,sounds/animalfarm_spanish.wav,,,,,,,,,0,1,1,1,0,188,188,216,949.313249206,9.30100213736e-06,950.619946067,1.30670680397,,,,,x,1,1.28392754518,2018_Nov_26_1233,59.9831860612,spanish_cond1,001,1051,
images/barrel01.jpg,barrel,z,sounds/animalfarm_spanish.wav,,,,,,,,,0,1,1,1,0,189,189,9,951.751414703,8.98016151041e-06,952.437289286,0.685884845443,,,,,z,1,0.667269837228,2018_Nov_26_1233,59.9831860612,spanish_cond1,001,1051,
images/parkbench03.jpg,park bench,z,sounds/animalfarm_spanish.wav,,,,,,,,,0,1,1,1,0,190,190,71,953.543614944,9.62160993367e-06,954.304199081,0.76059375843,,,,,z,1,0.750449972576,2018_Nov_26_1233,59.9831860612,spanish_cond1,001,1051,
images/computerkeyboard01a.jpg,computer keyboard,z,sounds/animalfarm_spanish.wav,,,,,,,,,0,1,1,1,0,191,191,61,955.423162457,9.30088572204e-06,956.03798275,0.614830556326,,,,,z,1,0.600424699718,2018_Nov_26_1233,59.9831860612,spanish_cond1,001,1051,
images/bowtie.jpg,bowtie,z,sounds/animalfarm_spanish.wav,,,,,,,,,0,1,1,1,0,192,192,89,957.15005959,8.98016151041e-06,958.121829987,0.971780659631,,,,,z,1,0.950503982021,2018_Nov_26_1233,59.9831860612,spanish_cond1,001,1051,
images/broom02.jpg,broom,z,sounds/animalfarm_spanish.wav,,,,,,,,,0,1,1,1,0,193,193,116,959.217051618,8.98027792573e-06,959.93899745,0.721955453046,,,,,z,1,0.700479607214,2018_Nov_26_1233,59.9831860612,spanish_cond1,001,1051,
images/saltshaker03c.jpg,salt shaker,z,sounds/animalfarm_spanish.wav,,,,,,,,,0,1,1,1,0,194,194,63,961.052486106,9.30088572204e-06,962.572958093,1.52048160858,,,,,z,1,1.50064176414,2018_Nov_26_1233,59.9831860612,spanish_cond1,001,1051,
images/showerhead01.jpg,skateboard,x,sounds/animalfarm_spanish.wav,,,,,,,,,0,1,1,1,0,195,195,223,963.682275764,9.30088572204e-06,964.840200733,1.15793491143,,,,,x,1,1.13384710811,2018_Nov_26_1233,59.9831860612,spanish_cond1,001,1051,
images/lemon02.jpg,lemon,z,sounds/animalfarm_spanish.wav,,,,,,,,,0,1,1,1,0,196,196,14,965.954098952,9.30100213736e-06,966.65733869,0.703249680577,,,,,z,1,0.68377513811,2018_Nov_26_1233,59.9831860612,spanish_cond1,001,1051,
images/treadmill.jpg,lily,x,sounds/animalfarm_spanish.wav,,,,,,,,,0,1,1,1,0,197,197,199,967.764550181,9.94245056063e-06,968.557802069,0.793262150255,,,,,x,1,0.783794445568,2018_Nov_26_1233,59.9831860612,spanish_cond1,001,1051,
images/hairpin.jpg,hair pin,z,sounds/animalfarm_spanish.wav,,,,,,,,,0,1,1,1,0,198,198,28,969.766094777,8.98027792573e-06,971.258329463,1.49224494933,,,,,z,1,1.48380547843,2018_Nov_26_1233,59.9831860612,spanish_cond1,001,1051,
images/bowlingball.jpg,bowling ball,z,sounds/animalfarm_spanish.wav,,,,,,,,,0,1,1,1,0,199,199,20,972.391894657,9.62160993367e-06,973.042107231,0.650222837343,,,,,z,1,0.633583474904,2018_Nov_26_1233,59.9831860612,spanish_cond1,001,1051,
images/lighter02b.jpg,stapler,x,sounds/animalfarm_spanish.wav,,,,,,,,,0,1,1,1,0,200,200,227,974.144971982,8.98016151041e-06,975.009443009,0.864481290337,,,,,x,1,0.850482750335,2018_Nov_26_1233,59.9831860612,spanish_cond1,001,1051,
images/flashlight05.jpg,flash light,z,sounds/animalfarm_spanish.wav,,,,,,,,,0,1,1,1,0,201,201,8,976.113597702,9.62160993367e-06,976.80987361,0.696286170976,,,,,z,1,0.683718691231,2018_Nov_26_1233,59.9831860612,spanish_cond1,001,1051,
images/gps.jpg,gps,z,sounds/animalfarm_spanish.wav,,,,,,,,,0,1,1,1,0,202,202,21,977.930296591,8.98027792573e-06,978.660378169,0.730091521167,,,,,z,1,0.71712891222,2018_Nov_26_1233,59.9831860612,spanish_cond1,001,1051,
images/gorilla.jpg,gorilla,z,sounds/animalfarm_spanish.wav,,,,,,,,,0,1,1,1,0,203,203,80,979.772693947,9.62160993367e-06,980.494152602,0.721468597418,,,,,z,1,0.700429574586,2018_Nov_26_1233,59.9831860612,spanish_cond1,001,1051,
images/weight01.jpg,weight,z,sounds/animalfarm_spanish.wav,,,,,,,,,0,1,1,1,0,204,204,67,981.600708218,8.6595537141e-06,982.194615532,0.593916615006,,,,,z,1,0.58376833878,2018_Nov_26_1233,59.9831860612,spanish_cond1,001,1051,
images/swan.jpg,swan,z,sounds/animalfarm_spanish.wav,,,,,,,,,0,1,1,1,0,205,205,54,983.287929511,9.62160993367e-06,984.011716926,0.723797037033,,,,,z,1,0.700439837761,2018_Nov_26_1233,59.9831860612,spanish_cond1,001,1051,
images/cake.jpg,cake,z,sounds/animalfarm_spanish.wav,,,,,,,,,0,1,1,1,0,206,206,23,985.127158136,8.98016151041e-06,985.745324519,0.618176004267,,,,,z,1,0.600209816243,2018_Nov_26_1233,59.9831860612,spanish_cond1,001,1051,
images/lychee02a.jpg,lychee,z,sounds/animalfarm_spanish.wav,,,,,,,,,0,1,1,1,0,207,207,62,986.94736123,9.30088572204e-06,988.296151211,1.34879992343,,,,,x,0,1.33394954668,2018_Nov_26_1233,59.9831860612,spanish_cond1,001,1051,
images/corkscrew02a.jpg,masquerade mask,x,sounds/animalfarm_spanish.wav,,,,,,,,,0,1,1,1,0,208,208,201,989.401767754,9.30088572204e-06,990.6967525,1.29499500955,,,,,x,1,1.28393395955,2018_Nov_26_1233,59.9831860612,spanish_cond1,001,1051,
images/leek.jpg,donut,x,sounds/animalfarm_spanish.wav,,,,,,,,,0,1,1,1,0,209,209,169,991.798335326,8.6595537141e-06,992.547220177,0.748894793098,,,,,x,1,0.733792970306,2018_Nov_26_1233,59.9831860612,spanish_cond1,001,1051,
images/marker01a.jpg,marker,z,sounds/animalfarm_spanish.wav,,,,,,,,,0,1,1,1,0,210,210,95,993.647296573,9.30100213736e-06,994.414348704,0.767062715255,,,,,z,1,0.750444520265,2018_Nov_26_1233,59.9831860612,spanish_cond1,001,1051,
images/dresser02.jpg,dresser,z,sounds/animalfarm_spanish.wav,,,,,,,,,0,1,1,1,0,211,211,87,995.537817899,9.30088572204e-06,996.248151681,0.710343082319,,,,,z,1,0.700449138647,2018_Nov_26_1233,59.9831860612,spanish_cond1,001,1051,
images/tie01.jpg,bench,x,sounds/animalfarm_spanish.wav,,,,,,,,,0,1,1,1,0,212,212,130,997.347644043,9.30100213736e-06,998.28200995,0.934375849902,,,,,x,1,0.917169451364,2018_Nov_26_1233,59.9831860612,spanish_cond1,001,1051,
images/plate01b.jpg,plate,z,sounds/animalfarm_spanish.wav,,,,,,,,,0,1,1,1,0,213,213,3,999.468281586,9.62160993367e-06,1001.1327079,1.66443626105,,,,,z,1,1.65067024424,2018_Nov_26_1233,59.9831860612,spanish_cond1,001,1051,
images/shotglass.jpg,shot glass,z,sounds/animalfarm_spanish.wav,,,,,,,,,0,1,1,1,0,214,214,86,1002.31508887,9.30088572204e-06,1003.14989025,0.834811325767,,,,,z,1,0.817128014169,2018_Nov_26_1233,59.9831860612,spanish_cond1,001,1051,
images/carrot02.jpg,corkscrew,x,sounds/animalfarm_spanish.wav,,,,,,,,,0,1,1,1,0,215,215,161,1004.25322133,8.98016151041e-06,1007.05087448,2.7976627727,,,,,x,1,2.7842947715,2018_Nov_26_1233,59.9831860612,spanish_cond1,001,1051,
images/acousticguitar02.jpg,acoustic guitar,z,sounds/animalfarm_spanish.wav,,,,,,,,,0,1,1,1,0,216,216,97,1008.1641444,9.30100213736e-06,1009.01805727,0.853922811337,,,,,z,1,0.833806825452,2018_Nov_26_1233,59.9831860612,spanish_cond1,001,1051,
images/panda.jpg,panda,z,sounds/animalfarm_spanish.wav,,,,,,,,,0,1,1,1,0,217,217,83,1010.12897053,9.30088572204e-06,1010.70179681,0.572836218984,,,,,z,1,0.550395321567,2018_Nov_26_1233,59.9831860612,spanish_cond1,001,1051,
images/knife04.jpg,tooth brush,x,sounds/animalfarm_spanish.wav,,,,,,,,,0,1,1,1,0,218,218,233,1011.8868558,9.30100213736e-06,1012.91903349,1.03218795068,,,,,x,1,1.0171829859,2018_Nov_26_1233,59.9831860612,spanish_cond1,001,1051,
