images,name,corrAns,sounds,trials_3.thisRepN,trials_3.thisTrialN,trials_3.thisN,trials_3.thisIndex,trials_4.thisRepN,trials_4.thisTrialN,trials_4.thisN,trials_4.thisIndex,trials_2.thisRepN,trials_2.thisTrialN,trials_2.thisN,trials_2.thisIndex,trials.thisRepN,trials.thisTrialN,trials.thisN,trials.thisIndex,begin_global,begin_routine,end_global,end_routine,key_resp_2.keys,key_resp_2.corr,key_resp_2.rt,begin_book,key_resp_1.keys,key_resp_1.corr,key_resp_1.rt,date,frameRate,expName,session,participant,
images/volleyball.jpg,volley ball,z,,0,0,0,0,,,,,,,,,,,,,,,,,,,,,,,,2018_Nov_27_1533,59.9855326084,spanish_cond2,001,1052,
images/puma.jpg,puma,z,,,,,,0,0,0,0,,,,,,,,,48.1529762142,9.62160993367e-06,49.9459728517,1.79300754203,z,1,1.78402578842,,,,,2018_Nov_27_1533,59.9855326084,spanish_cond2,001,1052,
images/highlighter03b.jpg,coin,x,sounds/greatgatsby_spanish.wav,,,,,,,,,0,0,0,0,0,0,0,156,92.1256970841,9.62160993367e-06,93.6734836696,1.54779716919,,,,81.9454279491,x,1,1.53401167679,2018_Nov_27_1533,59.9855326084,spanish_cond2,001,1052,
images/gamecontroller01.jpg,game controller,z,sounds/greatgatsby_spanish.wav,,,,,,,,,0,0,0,0,0,1,1,112,94.8004661981,9.62160993367e-06,96.0740445441,1.27358892979,,,,,z,1,1.25057569181,2018_Nov_27_1533,59.9855326084,spanish_cond2,001,1052,
images/blueberry02.jpg,blueberry,z,sounds/greatgatsby_spanish.wav,,,,,,,,,0,0,0,0,0,2,2,46,97.1885815468,9.30088572204e-06,98.8913809161,1.70280963241,,,,,z,1,1.68400295312,2018_Nov_27_1533,59.9855326084,spanish_cond2,001,1052,
images/bracelet02a.jpg,chess knight,x,sounds/greatgatsby_spanish.wav,,,,,,,,,0,0,0,0,0,3,3,152,100.001183455,8.98016151041e-06,101.692105614,1.6909321011,,,,,x,1,1.66736594238,2018_Nov_27_1533,59.9855326084,spanish_cond2,001,1052,
images/cigar.jpg,crocodile,x,sounds/greatgatsby_spanish.wav,,,,,,,,,0,0,0,0,0,4,4,162,102.791607601,8.98016151041e-06,104.076013442,1.2844161042,,,,,x,1,1.2672406052,2018_Nov_27_1533,59.9855326084,spanish_cond2,001,1052,
images/swallow.jpg,mattress,x,sounds/greatgatsby_spanish.wav,,,,,,,,,0,0,0,0,0,5,5,202,105.178870156,9.94233414531e-06,106.543279833,1.36442026077,,,,,x,1,1.3505943577,2018_Nov_27_1533,59.9855326084,spanish_cond2,001,1052,
images/hand01a.jpg,cupcake,x,sounds/greatgatsby_spanish.wav,,,,,,,,,0,0,0,0,0,6,6,163,107.655361727,9.30088572204e-06,108.643796256,0.98844479199,,,,,x,1,0.967169854441,2018_Nov_27_1533,59.9855326084,spanish_cond2,001,1052,
images/globe.jpg,cloud,x,sounds/greatgatsby_spanish.wav,,,,,,,,,0,0,0,0,0,7,7,154,109.772313107,8.98016151041e-06,110.760977592,0.988674747874,,,,,x,1,0.967159912107,2018_Nov_27_1533,59.9855326084,spanish_cond2,001,1052,
images/ear.jpg,bullet,x,sounds/greatgatsby_spanish.wav,,,,,,,,,0,0,0,0,0,8,8,139,111.865631619,8.98016151041e-06,113.011746998,1.14612500113,,,,,x,1,1.13407941279,2018_Nov_27_1533,59.9855326084,spanish_cond2,001,1052,
images/desktopcomputer.jpg,desktop computer,z,sounds/greatgatsby_spanish.wav,,,,,,,,,0,0,0,0,0,9,9,16,114.147251689,9.30076930672e-06,115.112069386,0.964827638818,,,,,z,1,0.950475114048,2018_Nov_27_1533,59.9855326084,spanish_cond2,001,1052,
images/pineapple01a.jpg,pineapple,z,sounds/greatgatsby_spanish.wav,,,,,,,,,0,0,0,0,0,10,10,51,116.22556437,8.98016151041e-06,117.262594019,1.03703991161,,,,,z,1,1.01718800713,2018_Nov_27_1533,59.9855326084,spanish_cond2,001,1052,
images/honeycomb.jpg,honey comb,z,sounds/greatgatsby_spanish.wav,,,,,,,,,0,0,0,0,0,11,11,59,118.376416138,8.98016151041e-06,120.196639949,1.82023343258,,,,,z,1,1.80069936125,2018_Nov_27_1533,59.9855326084,spanish_cond2,001,1052,
images/mattress.jpg,cat,x,sounds/greatgatsby_spanish.wav,,,,,,,,,0,0,0,0,0,12,12,147,121.302088398,8.98016151041e-06,122.247165801,0.945087024011,,,,,x,1,0.933837461867,2018_Nov_27_1533,59.9855326084,spanish_cond2,001,1052,
images/graduationcap.jpg,graduation cap,z,sounds/greatgatsby_spanish.wav,,,,,,,,,0,0,0,0,0,13,13,35,123.348738353,9.62160993367e-06,124.764443609,1.41571551911,,,,,z,1,1.40060320951,2018_Nov_27_1533,59.9855326084,spanish_cond2,001,1052,
images/showerhead01.jpg,skateboard,x,sounds/greatgatsby_spanish.wav,,,,,,,,,0,0,0,0,0,14,14,223,125.87259348,9.30076930672e-06,127.215062085,1.34247886774,,,,,x,1,1.33394195221,2018_Nov_27_1533,59.9855326084,spanish_cond2,001,1052,
images/ladybug03.jpg,giraffe,x,sounds/greatgatsby_spanish.wav,,,,,,,,,0,0,0,0,0,15,15,178,128.31886877,9.94221772999e-06,129.482265807,1.16340729978,,,,,x,1,1.15054066922,2018_Nov_27_1533,59.9855326084,spanish_cond2,001,1052,
images/paperclip04.jpg,eye drops,x,sounds/greatgatsby_spanish.wav,,,,,,,,,0,0,0,0,0,16,16,174,130.587667432,8.98016151041e-06,131.799505643,1.21184815327,,,,,x,1,1.20055914263,2018_Nov_27_1533,59.9855326084,spanish_cond2,001,1052,
images/bottleofredwine02.jpg,pipe,x,sounds/greatgatsby_spanish.wav,,,,,,,,,0,0,0,0,0,17,17,213,132.898575941,8.98016151041e-06,133.683311482,0.784745162586,,,,,x,1,0.767121938872,2018_Nov_27_1533,59.9855326084,spanish_cond2,001,1052,
images/coffeepot03b.jpg,coffee pot,z,sounds/greatgatsby_spanish.wav,,,,,,,,,0,0,0,0,0,18,18,107,134.805354607,8.98016151041e-06,135.667136628,0.861791963223,,,,,z,1,0.850471201236,2018_Nov_27_1533,59.9855326084,spanish_cond2,001,1052,
images/ladder.jpg,ladder,z,sounds/greatgatsby_spanish.wav,,,,,,,,,0,0,0,0,0,19,19,113,136.760987214,8.98016151041e-06,137.834321684,1.07334473392,,,,,z,1,1.05051462667,2018_Nov_27_1533,59.9855326084,spanish_cond2,001,1052,
images/mailbox01.jpg,mail box,z,sounds/greatgatsby_spanish.wav,,,,,,,,,0,0,0,0,0,20,20,73,138.954354218,9.30088572204e-06,140.134892116,1.18054816127,,,,,z,1,1.16721135553,2018_Nov_27_1533,59.9855326084,spanish_cond2,001,1052,
images/marker01a.jpg,marker,z,sounds/greatgatsby_spanish.wav,,,,,,,,,0,0,0,0,0,21,21,95,141.233834447,8.98016151041e-06,142.268764665,1.03494016023,,,,,z,1,1.01718640351,2018_Nov_27_1533,59.9855326084,spanish_cond2,001,1052,
images/orange.jpg,bat,x,sounds/greatgatsby_spanish.wav,,,,,,,,,0,0,0,0,0,22,22,128,143.394224096,9.62160993367e-06,145.136127208,1.74191401631,,,,,x,1,1.71734432597,2018_Nov_27_1533,59.9855326084,spanish_cond2,001,1052,
images/candle08a.jpg,screw driver,x,sounds/greatgatsby_spanish.wav,,,,,,,,,0,0,0,0,0,23,23,221,146.250742466,8.98016151041e-06,147.936815344,1.68608249933,,,,,x,1,1.66732841812,2018_Nov_27_1533,59.9855326084,spanish_cond2,001,1052,
images/parkbench03.jpg,park bench,z,sounds/greatgatsby_spanish.wav,,,,,,,,,0,0,0,0,0,24,24,71,149.044936671,9.30088572204e-06,150.204044724,1.1591179953,,,,,z,1,1.15054451779,2018_Nov_27_1533,59.9855326084,spanish_cond2,001,1052,
images/cupcake.jpg,scissors,x,sounds/greatgatsby_spanish.wav,,,,,,,,,0,0,0,0,0,25,25,219,151.323945442,9.30076930672e-06,152.571312333,1.24737715465,,,,,x,1,1.23391270265,2018_Nov_27_1533,59.9855326084,spanish_cond2,001,1052,
images/banana04a.jpg,banana,z,sounds/greatgatsby_spanish.wav,,,,,,,,,0,0,0,0,0,26,26,118,153.677642121,8.98016151041e-06,154.955224331,1.27759183175,,,,,z,1,1.26724701957,2018_Nov_27_1533,59.9855326084,spanish_cond2,001,1052,
images/saltshaker03c.jpg,salt shaker,z,sounds/greatgatsby_spanish.wav,,,,,,,,,0,0,0,0,0,27,27,63,156.067604494,9.30088572204e-06,157.139100279,1.0715060482,,,,,z,1,1.05046074581,2018_Nov_27_1533,59.9855326084,spanish_cond2,001,1052,
images/lightbulb03b.jpg,treadmill,x,sounds/greatgatsby_spanish.wav,,,,,,,,,0,0,0,0,0,28,28,234,158.24238804,9.30088572204e-06,159.17294903,0.930571252946,,,,,x,1,0.917174793547,2018_Nov_27_1533,59.9855326084,spanish_cond2,001,1052,
images/electricguitar02.jpg,electric guitar,z,sounds/greatgatsby_spanish.wav,,,,,,,,,0,0,0,0,0,29,29,100,160.276440448,2.88647133857e-05,161.340146595,1.06371737155,,,,,z,1,1.0505393222,2018_Nov_27_1533,59.9855326084,spanish_cond2,001,1052,
images/broom02.jpg,broom,z,sounds/greatgatsby_spanish.wav,,,,,,,,,0,0,0,0,0,30,30,116,162.434711102,9.30076930672e-06,163.340620618,0.905919458251,,,,,z,1,0.883813215536,2018_Nov_27_1533,59.9855326084,spanish_cond2,001,1052,
images/eraser.jpg,eraser,z,sounds/greatgatsby_spanish.wav,,,,,,,,,0,0,0,0,0,31,31,110,164.448880817,9.30088572204e-06,165.657863019,1.20899246563,,,,,z,1,1.20047383127,2018_Nov_27_1533,59.9855326084,spanish_cond2,001,1052,
images/lychee02a.jpg,lychee,z,sounds/greatgatsby_spanish.wav,,,,,,,,,0,0,0,0,0,32,32,62,166.781202173,9.30088572204e-06,168.325186947,1.54399471707,,,,,x,0,1.53397607687,2018_Nov_27_1533,59.9855326084,spanish_cond2,001,1052,
images/cherry01.jpg,highlighter,x,sounds/greatgatsby_spanish.wav,,,,,,,,,0,0,0,0,0,33,33,187,169.434722327,8.98016151041e-06,170.659101959,1.22438957437,,,,,x,1,1.20056972641,2018_Nov_27_1533,59.9855326084,spanish_cond2,001,1052,
images/lip.jpg,boxing glove,x,sounds/greatgatsby_spanish.wav,,,,,,,,,0,0,0,0,0,34,34,136,171.763179974,8.98016151041e-06,173.343082462,1.57991211,,,,,x,1,1.56730622437,2018_Nov_27_1533,59.9855326084,spanish_cond2,001,1052,
images/safe.jpg,safe,z,sounds/greatgatsby_spanish.wav,,,,,,,,,0,0,0,0,0,35,35,78,174.454794566,8.98016151041e-06,175.510297987,1.05551400455,,,,,z,1,1.03385708993,2018_Nov_27_1533,59.9855326084,spanish_cond2,001,1052,
images/lollipop03b.jpg,lollipop,z,sounds/greatgatsby_spanish.wav,,,,,,,,,0,0,0,0,0,36,36,42,176.603794819,9.30076930672e-06,177.710838207,1.10705365124,,,,,z,1,1.08386273449,2018_Nov_27_1533,59.9855326084,spanish_cond2,001,1052,
images/pepper05a.jpg,lighter,x,sounds/greatgatsby_spanish.wav,,,,,,,,,0,0,0,0,0,37,37,198,178.832772929,8.98016151041e-06,180.028087344,1.19532403594,,,,,x,1,1.1839073787,2018_Nov_27_1533,59.9855326084,spanish_cond2,001,1052,
images/scissors04a.jpg,leek,x,sounds/greatgatsby_spanish.wav,,,,,,,,,0,0,0,0,0,38,38,194,181.123184567,8.98016151041e-06,182.261965088,1.13879046356,,,,,x,1,1.11721597391,2018_Nov_27_1533,59.9855326084,spanish_cond2,001,1052,
images/lock02a.jpg,lock,z,sounds/greatgatsby_spanish.wav,,,,,,,,,0,0,0,0,0,39,39,65,183.373130686,9.30088572204e-06,184.595864384,1.22274396184,,,,,z,1,1.20056716062,2018_Nov_27_1533,59.9855326084,spanish_cond2,001,1052,
images/glasses01b.jpg,calculator,x,sounds/greatgatsby_spanish.wav,,,,,,,,,0,0,0,0,0,40,40,142,185.689761474,8.98016151041e-06,186.746405695,1.05665416282,,,,,x,1,1.03386254213,2018_Nov_27_1533,59.9855326084,spanish_cond2,001,1052,
images/lemon02.jpg,lemon,z,sounds/greatgatsby_spanish.wav,,,,,,,,,0,0,0,0,0,41,41,14,187.859228451,9.62160993367e-06,188.730235011,0.87101714313,,,,,z,1,0.850487237331,2018_Nov_27_1533,59.9855326084,spanish_cond2,001,1052,
images/tissuebox03.jpg,tissue box,z,sounds/greatgatsby_spanish.wav,,,,,,,,,0,0,0,0,0,42,42,58,189.85692376,8.98016151041e-06,190.780717886,0.923803747748,,,,,z,1,0.900480053271,2018_Nov_27_1533,59.9855326084,spanish_cond2,001,1052,
images/birthdaycandle.jpg,birthday candle,z,sounds/greatgatsby_spanish.wav,,,,,,,,,0,0,0,0,0,43,43,55,191.878015887,9.30088572204e-06,193.097789344,1.21978532313,,,,,z,1,1.20038370905,2018_Nov_27_1533,59.9855326084,spanish_cond2,001,1052,
images/corn01.jpg,corn,z,sounds/greatgatsby_spanish.wav,,,,,,,,,0,0,0,0,0,44,44,22,194.198913851,8.98016151041e-06,195.315177608,1.11627369956,,,,,z,1,1.10052732727,2018_Nov_27_1533,59.9855326084,spanish_cond2,001,1052,
images/treadmill.jpg,lily,x,sounds/greatgatsby_spanish.wav,,,,,,,,,0,0,0,0,0,45,45,199,196.422739279,9.62160993367e-06,197.665824564,1.24309586827,,,,,x,1,1.23391430627,2018_Nov_27_1533,59.9855326084,spanish_cond2,001,1052,
images/mitten01.jpg,mitten,z,sounds/greatgatsby_spanish.wav,,,,,,,,,0,0,0,0,0,46,46,102,198.787178783,9.62160993367e-06,199.94965311,1.16248491011,,,,,z,1,1.15054836648,2018_Nov_27_1533,59.9855326084,spanish_cond2,001,1052,
images/wallet01.jpg,lamp,x,sounds/greatgatsby_spanish.wav,,,,,,,,,0,0,0,0,0,47,47,193,201.05628309,8.98016151041e-06,202.800363247,1.74409074057,,,,,x,1,1.73403104825,2018_Nov_27_1533,59.9855326084,spanish_cond2,001,1052,
images/plate01b.jpg,plate,z,sounds/greatgatsby_spanish.wav,,,,,,,,,0,0,0,0,0,48,48,3,203.900045799,9.30088572204e-06,205.167610331,1.26757479506,,,,,z,1,1.25057633314,2018_Nov_27_1533,59.9855326084,spanish_cond2,001,1052,
images/dryingmachine01.jpg,drying machine,z,sounds/greatgatsby_spanish.wav,,,,,,,,,0,0,0,0,0,49,49,18,206.290127159,9.30088572204e-06,207.384821237,1.0947046621,,,,,z,1,1.08386594173,2018_Nov_27_1533,59.9855326084,spanish_cond2,001,1052,
images/icecube02 (2).jpg,aloe,x,sounds/greatgatsby_spanish.wav,,,,,,,,,0,0,0,0,0,50,50,122,208.496444823,9.30076930672e-06,209.95212233,1.45568777039,,,,,x,1,1.43395548675,2018_Nov_27_1533,59.9855326084,spanish_cond2,001,1052,
images/croissant02b.jpg,croissant,z,sounds/greatgatsby_spanish.wav,,,,,,,,,0,0,0,0,0,51,51,39,211.06429595,8.98016151041e-06,212.035967746,0.971681738389,,,,,z,1,0.950468058232,2018_Nov_27_1533,59.9855326084,spanish_cond2,001,1052,
images/teapot.jpg,light switch,x,sounds/greatgatsby_spanish.wav,,,,,,,,,0,0,0,0,0,52,52,197,213.153729585,9.62160993367e-06,214.136318677,0.982599035022,,,,,x,1,0.96699506219,2018_Nov_27_1533,59.9855326084,spanish_cond2,001,1052,
images/pingpongpaddle01c (1).jpg,ping pong paddle,z,sounds/greatgatsby_spanish.wav,,,,,,,,,0,0,0,0,0,53,53,10,215.248825525,8.98016151041e-06,216.270345492,1.02152958896,,,,,z,1,1.00051251007,2018_Nov_27_1533,59.9855326084,spanish_cond2,001,1052,
images/shotglass.jpg,shot glass,z,sounds/greatgatsby_spanish.wav,,,,,,,,,0,0,0,0,0,54,54,86,217.379657972,8.98016151041e-06,218.737609317,1.35796192929,,,,,z,1,1.33391308761,2018_Nov_27_1533,59.9855326084,spanish_cond2,001,1052,
images/nametag01a.jpg,name tag,z,sounds/greatgatsby_spanish.wav,,,,,,,,,0,0,0,0,0,55,55,108,219.857939158,9.62160993367e-06,221.155023047,1.29709383112,,,,,z,1,1.2840540118,2018_Nov_27_1533,59.9855326084,spanish_cond2,001,1052,
images/highheelshoe02a.jpg,high heel shoe,z,sounds/greatgatsby_spanish.wav,,,,,,,,,0,0,0,0,0,56,56,75,222.262580549,9.30088572204e-06,223.53879938,1.27622845245,,,,,z,1,1.26722937997,2018_Nov_27_1533,59.9855326084,spanish_cond2,001,1052,
images/bowlingball.jpg,bowling ball,z,sounds/greatgatsby_spanish.wav,,,,,,,,,0,0,0,0,0,57,57,20,224.672072503,8.98016151041e-06,225.806043192,1.13398095185,,,,,z,1,1.11721982248,2018_Nov_27_1533,59.9855326084,spanish_cond2,001,1052,
images/paintbrush03a.jpg,paint brush,z,sounds/greatgatsby_spanish.wav,,,,,,,,,0,0,0,0,0,58,58,0,226.907684379,9.30088572204e-06,227.839862758,0.932188642211,,,,,z,1,0.9171565125,2018_Nov_27_1533,59.9855326084,spanish_cond2,001,1052,
images/hairdryer03a.jpg,hairdryer,z,sounds/greatgatsby_spanish.wav,,,,,,,,,0,0,0,0,0,59,59,119,228.940076742,8.33871308714e-06,230.290460707,1.35039358714,,,,,z,1,1.33391372906,2018_Nov_27_1533,59.9855326084,spanish_cond2,001,1052,
images/doll.jpg,carrot,x,sounds/greatgatsby_spanish.wav,,,,,,,,,0,0,0,0,0,60,60,146,231.401366843,9.30088572204e-06,232.35764121,0.956284629763,,,,,x,1,0.93382270867,2018_Nov_27_1533,59.9855326084,spanish_cond2,001,1052,
images/triangleruler02.jpg,bottle of red wine,x,sounds/greatgatsby_spanish.wav,,,,,,,,,0,0,0,0,0,61,61,134,233.469925157,8.98016151041e-06,235.174841917,1.7049270235,,,,,x,1,1.68385061144,2018_Nov_27_1533,59.9855326084,spanish_cond2,001,1052,
images/acousticguitar02.jpg,acoustic guitar,z,sounds/greatgatsby_spanish.wav,,,,,,,,,0,0,0,0,0,62,62,97,236.288726897,9.62160993367e-06,237.125488616,0.836771661765,,,,,z,1,0.817131752847,2018_Nov_27_1533,59.9855326084,spanish_cond2,001,1052,
images/tank.jpg,wallet,x,sounds/greatgatsby_spanish.wav,,,,,,,,,0,0,0,0,0,63,63,237,238.231117631,9.30088572204e-06,239.159316521,0.928208832047,,,,,x,1,0.917151701753,2018_Nov_27_1533,59.9855326084,spanish_cond2,001,1052,
images/fork01.jpg,cooking pot,x,sounds/greatgatsby_spanish.wav,,,,,,,,,0,0,0,0,0,64,64,160,240.254760442,8.98016151041e-06,241.809990289,1.55523946858,,,,,x,1,1.53398666065,2018_Nov_27_1533,59.9855326084,spanish_cond2,001,1052,
images/barrel01.jpg,barrel,z,sounds/greatgatsby_spanish.wav,,,,,,,,,0,0,0,0,0,65,65,9,242.940944609,8.98016151041e-06,243.943831407,1.00289641903,,,,,z,1,0.983835730003,2018_Nov_27_1533,59.9855326084,spanish_cond2,001,1052,
images/pen03c.jpg,pepper,x,sounds/greatgatsby_spanish.wav,,,,,,,,,0,0,0,0,0,66,66,211,245.038728821,9.30088572204e-06,247.011264957,1.9725460778,,,,,x,1,1.95074836724,2018_Nov_27_1533,59.9855326084,spanish_cond2,001,1052,
images/bed.jpg,bed,z,sounds/greatgatsby_spanish.wav,,,,,,,,,0,0,0,0,0,67,67,103,248.131944061,8.98016151041e-06,248.995077274,0.863143155235,,,,,z,1,0.850465428317,2018_Nov_27_1533,59.9855326084,spanish_cond2,001,1052,
images/tulip02.jpg,sport shorts,x,sounds/greatgatsby_spanish.wav,,,,,,,,,0,0,0,0,0,68,68,225,250.090503235,9.62160993367e-06,253.029410633,2.93891798169,,,,,x,1,2.91764721344,2018_Nov_27_1533,59.9855326084,spanish_cond2,001,1052,
images/hairband.jpg,hairband,z,sounds/greatgatsby_spanish.wav,,,,,,,,,0,0,0,0,0,69,69,66,254.139533892,8.65943729877e-06,255.096582155,0.957058205502,,,,,z,1,0.933824312291,2018_Nov_27_1533,59.9855326084,spanish_cond2,001,1052,
images/pipe.jpg,icecube,x,sounds/greatgatsby_spanish.wav,,,,,,,,,0,0,0,0,0,70,70,188,256.20642286,9.30088572204e-06,258.130669201,1.92425628321,,,,,x,1,1.9007311766,2018_Nov_27_1533,59.9855326084,spanish_cond2,001,1052,
images/kiwi03.jpg,backpack,x,sounds/greatgatsby_spanish.wav,,,,,,,,,0,0,0,0,0,71,71,125,259.260266877,9.30088572204e-06,260.49791436,1.23765742534,,,,,x,1,1.21722662181,2018_Nov_27_1533,59.9855326084,spanish_cond2,001,1052,
images/battery03b.jpg,battery,z,sounds/greatgatsby_spanish.wav,,,,,,,,,0,0,0,0,0,72,72,34,261.608340699,8.98016151041e-06,263.165239571,1.55691041786,,,,,z,1,1.5339725489,2018_Nov_27_1533,59.9855326084,spanish_cond2,001,1052,
images/beachumbrella01.jpg,beach umbrella,z,sounds/greatgatsby_spanish.wav,,,,,,,,,0,0,0,0,0,73,73,92,264.272079623,8.65943729877e-06,265.632524564,1.36045456235,,,,,z,1,1.35058794334,2018_Nov_27_1533,59.9855326084,spanish_cond2,001,1052,
images/leek.jpg,donut,x,sounds/greatgatsby_spanish.wav,,,,,,,,,0,0,0,0,0,74,74,169,266.734714181,8.98016151041e-06,267.732859139,0.998154579196,,,,,x,1,0.983658692683,2018_Nov_27_1533,59.9855326084,spanish_cond2,001,1052,
images/banjo.jpg,knife,x,sounds/greatgatsby_spanish.wav,,,,,,,,,0,0,0,0,0,75,75,191,268.830606789,8.98016151041e-06,270.383683003,1.55308583623,,,,,x,1,1.53397190757,2018_Nov_27_1533,59.9855326084,spanish_cond2,001,1052,
images/cat.jpg,black olive,x,sounds/greatgatsby_spanish.wav,,,,,,,,,0,0,0,0,0,76,76,133,271.515596917,9.62160993367e-06,272.550894359,1.03530770494,,,,,x,1,1.01718447928,2018_Nov_27_1533,59.9855326084,spanish_cond2,001,1052,
images/leaf01a.jpg,leaf,z,sounds/greatgatsby_spanish.wav,,,,,,,,,0,0,0,0,0,77,77,68,273.655671863,1.41116324812e-05,274.768104945,1.1124475142,,,,,z,1,1.1005318173,2018_Nov_27_1533,59.9855326084,spanish_cond2,001,1052,
images/fireextinguisher02.jpg,fire extinguisher,x,sounds/greatgatsby_spanish.wav,,,,,,,,,0,0,0,0,0,78,78,175,275.879417111,9.30088572204e-06,276.951973837,1.07256698865,,,,,z,0,1.05052136187,2018_Nov_27_1533,59.9855326084,spanish_cond2,001,1052,
images/grasshopper.jpg,cauliflower,x,sounds/greatgatsby_spanish.wav,,,,,,,,,0,0,0,0,0,79,79,148,278.046594791,9.30088572204e-06,281.036151198,2.98956634849,,,,,None,0,,2018_Nov_27_1533,59.9855326084,spanish_cond2,001,1052,
images/raisin.jpg,ruler,x,sounds/greatgatsby_spanish.wav,,,,,,,,,0,0,0,0,0,80,80,218,282.143003116,9.30088572204e-06,283.320221887,1.17722871294,,,,,x,1,1.16722129774,2018_Nov_27_1533,59.9855326084,spanish_cond2,001,1052,
images/camera01a.jpg,bull,x,sounds/greatgatsby_spanish.wav,,,,,,,,,0,0,0,0,0,81,81,138,284.431976326,9.30088572204e-06,285.637447931,1.20548186847,,,,,x,1,1.18388300401,2018_Nov_27_1533,59.9855326084,spanish_cond2,001,1052,
images/ruler02b.jpg,watermelon,x,sounds/greatgatsby_spanish.wav,,,,,,,,,0,0,0,0,0,82,82,238,286.740939991,9.30088572204e-06,287.771346137,1.03041608888,,,,,x,1,1.0172120611,2018_Nov_27_1533,59.9855326084,spanish_cond2,001,1052,
images/cheetah.jpg,cheetah,z,sounds/greatgatsby_spanish.wav,,,,,,,,,0,0,0,0,0,83,83,82,288.874892399,9.30088572204e-06,289.788464228,0.913582092035,,,,,z,1,0.900471393717,2018_Nov_27_1533,59.9855326084,spanish_cond2,001,1052,
images/notebook02b.jpg,notebook,z,sounds/greatgatsby_spanish.wav,,,,,,,,,0,0,0,0,0,84,84,7,290.897279271,8.98016151041e-06,291.838977251,0.941708242637,,,,,z,1,0.917149777408,2018_Nov_27_1533,59.9855326084,spanish_cond2,001,1052,
images/medal01.jpg,medal,z,sounds/greatgatsby_spanish.wav,,,,,,,,,0,0,0,0,0,85,85,115,292.941191563,8.98016151041e-06,294.106224591,1.16504296998,,,,,z,1,1.15056119533,2018_Nov_27_1533,59.9855326084,spanish_cond2,001,1052,
images/gps.jpg,gps,z,sounds/greatgatsby_spanish.wav,,,,,,,,,0,0,0,0,0,86,86,21,295.225398558,8.98016151041e-06,296.173389699,0.948001403478,,,,,z,1,0.933821746614,2018_Nov_27_1533,59.9855326084,spanish_cond2,001,1052,
images/hat05.jpg,hat,z,sounds/greatgatsby_spanish.wav,,,,,,,,,0,0,0,0,0,87,87,15,297.27846034,9.30076930672e-06,298.173878475,0.895428077318,,,,,z,1,0.883813856868,2018_Nov_27_1533,59.9855326084,spanish_cond2,001,1052,
images/squirrel.jpg,binder,x,sounds/greatgatsby_spanish.wav,,,,,,,,,0,0,0,0,0,88,88,132,299.277962584,9.30088572204e-06,300.107692846,0.82974052499,,,,,x,1,0.81713303586,2018_Nov_27_1533,59.9855326084,spanish_cond2,001,1052,
images/table02.jpg,table,z,sounds/greatgatsby_spanish.wav,,,,,,,,,0,0,0,0,0,89,89,49,301.223201308,8.65943729877e-06,302.291552758,1.06836139201,,,,,z,1,1.05051366461,2018_Nov_27_1533,59.9855326084,spanish_cond2,001,1052,
images/puma.jpg,puma,z,sounds/greatgatsby_spanish.wav,,,,,,,,,0,0,0,0,0,90,90,4,303.390534216,9.30088572204e-06,304.175379123,0.784855810925,,,,,z,1,0.767135729897,2018_Nov_27_1533,59.9855326084,spanish_cond2,001,1052,
images/computermouse02a.jpg,world map,x,sounds/greatgatsby_spanish.wav,,,,,,,,,0,0,0,0,0,91,91,239,305.278105945,9.62160993367e-06,306.209215045,0.931120004272,,,,,x,1,0.917178321397,2018_Nov_27_1533,59.9855326084,spanish_cond2,001,1052,
images/djmixer01.jpg,light bulb,x,sounds/greatgatsby_spanish.wav,,,,,,,,,0,0,0,0,0,92,92,196,307.331790886,9.94221772999e-06,308.343044296,1.01126399462,,,,,x,1,1.00050481269,2018_Nov_27_1533,59.9855326084,spanish_cond2,001,1052,
images/lamp04b.jpg,parking meter,x,sounds/greatgatsby_spanish.wav,,,,,,,,,0,0,0,0,0,93,93,209,309.464668241,9.30088572204e-06,310.593605556,1.12894725706,,,,,x,1,1.1172037865,2018_Nov_27_1533,59.9855326084,spanish_cond2,001,1052,
images/nailclipper03a.jpg,aquarium,x,sounds/greatgatsby_spanish.wav,,,,,,,,,0,0,0,0,0,94,94,123,311.694043082,8.98016151041e-06,312.777473486,1.08344034676,,,,,x,1,1.06718338886,2018_Nov_27_1533,59.9855326084,spanish_cond2,001,1052,
images/ostrich.jpg,ostrich,z,sounds/greatgatsby_spanish.wav,,,,,,,,,0,0,0,0,0,95,95,76,313.878931862,9.30088572204e-06,314.694628395,0.815707116271,,,,,z,1,0.800466839573,2018_Nov_27_1533,59.9855326084,spanish_cond2,001,1052,
images/belt02a.jpg,snowman,x,sounds/greatgatsby_spanish.wav,,,,,,,,,0,0,0,0,0,96,96,224,315.799141626,8.98016151041e-06,316.945179071,1.14604770776,,,,,x,1,1.13387639716,2018_Nov_27_1533,59.9855326084,spanish_cond2,001,1052,
images/gorilla.jpg,gorilla,z,sounds/greatgatsby_spanish.wav,,,,,,,,,0,0,0,0,0,97,97,80,318.056995729,9.30088572204e-06,318.878978367,0.821992900572,,,,,z,1,0.800440861261,2018_Nov_27_1533,59.9855326084,spanish_cond2,001,1052,
images/doorhandle.jpg,doll,x,sounds/greatgatsby_spanish.wav,,,,,,,,,0,0,0,0,0,98,98,168,319.98265035,8.98016151041e-06,321.279579973,1.29693956487,,,,,x,1,1.28390840511,2018_Nov_27_1533,59.9855326084,spanish_cond2,001,1052,
images/ceilingfan02.jpg,paper clip,x,sounds/greatgatsby_spanish.wav,,,,,,,,,0,0,0,0,0,99,99,208,322.379228207,9.30088572204e-06,323.380093188,1.00087748887,,,,,x,1,0.983822901151,2018_Nov_27_1533,59.9855326084,spanish_cond2,001,1052,
images/pouch01b.jpg,pouch,z,sounds/greatgatsby_spanish.wav,,,,,,,,,0,0,0,0,0,100,100,25,324.493270019,9.30088572204e-06,325.96405727,1.47079719359,,,,,z,1,1.4506146271,2018_Nov_27_1533,59.9855326084,spanish_cond2,001,1052,
images/flashlight05.jpg,flash light,z,sounds/greatgatsby_spanish.wav,,,,,,,,,0,0,0,0,0,101,101,8,327.067861069,9.62160993367e-06,328.631382802,1.56353199563,,,,,z,1,1.55063810374,2018_Nov_27_1533,59.9855326084,spanish_cond2,001,1052,
images/cockroach02.jpg,belt,x,sounds/greatgatsby_spanish.wav,,,,,,,,,0,0,0,0,0,102,102,129,329.731626292,9.94221772999e-06,331.765501342,2.0338853132,,,,,x,1,2.01742662257,2018_Nov_27_1533,59.9855326084,spanish_cond2,001,1052,
images/eyedrops.jpg,bicycle,x,sounds/greatgatsby_spanish.wav,,,,,,,,,0,0,0,0,0,103,103,131,332.8675306,8.98016151041e-06,334.132744898,1.26522424072,,,,,x,1,1.25057056022,2018_Nov_27_1533,59.9855326084,spanish_cond2,001,1052,
images/key03b.jpg,cigar,x,sounds/greatgatsby_spanish.wav,,,,,,,,,0,0,0,0,0,104,104,153,335.235328038,1.02629419416e-05,336.449980564,1.21466343035,,,,,x,1,1.20054663462,2018_Nov_27_1533,59.9855326084,spanish_cond2,001,1052,
images/thumbtack02a.jpg,thumb tack,z,sounds/greatgatsby_spanish.wav,,,,,,,,,0,0,0,0,0,105,105,60,337.561471693,9.30088572204e-06,339.167353114,1.60589136323,,,,,z,1,1.58401988726,2018_Nov_27_1533,59.9855326084,spanish_cond2,001,1052,
images/electrictoothbrush01a.jpg,banjo,x,sounds/greatgatsby_spanish.wav,,,,,,,,,0,0,0,0,0,106,106,127,340.264035012,8.98016151041e-06,341.584590768,1.32056601893,,,,,x,1,1.30058550579,2018_Nov_27_1533,59.9855326084,spanish_cond2,001,1052,
images/tie01.jpg,bench,x,sounds/greatgatsby_spanish.wav,,,,,,,,,0,0,0,0,0,107,107,130,342.684377874,9.30088572204e-06,343.901820982,1.21745337057,,,,,x,1,1.2005559355,2018_Nov_27_1533,59.9855326084,spanish_cond2,001,1052,
images/chessknight02b (1).jpg,cockroach,x,sounds/greatgatsby_spanish.wav,,,,,,,,,0,0,0,0,0,108,108,155,345.012167783,8.98016151041e-06,346.302431568,1.29027372773,,,,,x,1,1.26726209337,2018_Nov_27_1533,59.9855326084,spanish_cond2,001,1052,
images/parkingmeter.jpg,ear,x,sounds/greatgatsby_spanish.wav,,,,,,,,,0,0,0,0,0,109,109,171,347.405516314,9.30088572204e-06,348.58632073,1.18081467925,,,,,x,1,1.16722193931,2018_Nov_27_1533,59.9855326084,spanish_cond2,001,1052,
images/hairpin.jpg,hair pin,z,sounds/greatgatsby_spanish.wav,,,,,,,,,0,0,0,0,0,110,110,28,349.678259185,9.62160993367e-06,350.736827724,1.05857912218,,,,,z,1,1.05048544123,2018_Nov_27_1533,59.9855326084,spanish_cond2,001,1052,
images/coin01b.jpg,arrow,x,sounds/greatgatsby_spanish.wav,,,,,,,,,0,0,0,0,0,111,111,124,351.840891306,8.98016151041e-06,352.987399567,1.14651788271,,,,,x,1,1.13388152875,2018_Nov_27_1533,59.9855326084,spanish_cond2,001,1052,
images/floorlamp.jpg,floor lamp,z,sounds/greatgatsby_spanish.wav,,,,,,,,,0,0,0,0,0,112,112,26,354.081691783,9.30088572204e-06,355.454669806,1.37298796524,,,,,z,1,1.35058922612,2018_Nov_27_1533,59.9855326084,spanish_cond2,001,1052,
images/masquerademask02b.jpg,mirror,x,sounds/greatgatsby_spanish.wav,,,,,,,,,0,0,0,0,0,113,113,204,356.56069042,9.94233414531e-06,358.455443061,1.89476322557,,,,,x,1,1.88409160008,2018_Nov_27_1533,59.9855326084,spanish_cond2,001,1052,
images/pictureframe04.jpg,picture frame,z,sounds/greatgatsby_spanish.wav,,,,,,,,,0,0,0,0,0,114,114,41,359.577057064,8.98016151041e-06,360.472578791,0.895531028276,,,,,z,1,0.883816422662,2018_Nov_27_1533,59.9855326084,spanish_cond2,001,1052,
images/antelope.jpg,antelope,z,sounds/greatgatsby_spanish.wav,,,,,,,,,0,0,0,0,0,115,115,12,361.577464698,9.62160993367e-06,362.706463912,1.12900947663,,,,,z,1,1.11721789814,2018_Nov_27_1533,59.9855326084,spanish_cond2,001,1052,
images/dresser02.jpg,dresser,z,sounds/greatgatsby_spanish.wav,,,,,,,,,0,0,0,0,0,116,116,87,363.829642385,9.30088572204e-06,364.573595216,0.743962773471,,,,,z,1,0.733784414828,2018_Nov_27_1533,59.9855326084,spanish_cond2,001,1052,
images/boxingglove02a.jpg,bracelet,x,sounds/greatgatsby_spanish.wav,,,,,,,,,0,0,0,0,0,117,117,135,365.685802511,8.98016151041e-06,366.707448842,1.02165659389,,,,,x,1,1.00050866138,2018_Nov_27_1533,59.9855326084,spanish_cond2,001,1052,
images/lantern03.jpg,lantern,z,sounds/greatgatsby_spanish.wav,,,,,,,,,0,0,0,0,0,118,118,5,367.815546115,9.30088572204e-06,368.657929088,0.842393235653,,,,,z,1,0.833805005066,2018_Nov_27_1533,59.9855326084,spanish_cond2,001,1052,
images/drink.jpg,drink,z,sounds/greatgatsby_spanish.wav,,,,,,,,,0,0,0,0,0,119,119,117,369.759090798,8.98016151041e-06,371.308576556,1.54949570051,,,,,z,1,1.53396549309,2018_Nov_27_1533,59.9855326084,spanish_cond2,001,1052,
images/candycane01a.jpg,lip,x,sounds/greatgatsby_spanish.wav,,,,,,,,,0,0,0,0,0,120,120,200,372.402363319,8.98016151041e-06,373.409088489,1.00673575397,,,,,x,1,0.983820656198,2018_Nov_27_1533,59.9855326084,spanish_cond2,001,1052,
images/chameleon.jpg,50 dollar bill,x,sounds/greatgatsby_spanish.wav,,,,,,,,,0,0,0,0,0,121,121,120,374.522282959,9.30088572204e-06,375.959729159,1.43745614158,,,,,x,1,1.41727966885,2018_Nov_27_1533,59.9855326084,spanish_cond2,001,1052,
images/peach01.jpg,peach,z,sounds/greatgatsby_spanish.wav,,,,,,,,,0,0,0,0,0,122,122,106,377.089780012,9.30088572204e-06,378.026902284,0.937132535502,,,,,z,1,0.917151060188,2018_Nov_27_1533,59.9855326084,spanish_cond2,001,1052,
images/remotecontrol01c.jpg,remote control,z,sounds/greatgatsby_spanish.wav,,,,,,,,,0,0,0,0,0,123,123,85,379.138025868,9.62160993367e-06,380.144151934,1.00613600831,,,,,z,1,0.983899232466,2018_Nov_27_1533,59.9855326084,spanish_cond2,001,1052,
images/butterfly.jpg,butterfly,z,sounds/greatgatsby_spanish.wav,,,,,,,,,0,0,0,0,0,124,124,91,381.252854726,8.98016151041e-06,381.961203507,0.708359044394,,,,,z,1,0.700432779035,2018_Nov_27_1533,59.9855326084,spanish_cond2,001,1052,
images/gluestick.jpg,squirrel,x,sounds/greatgatsby_spanish.wav,,,,,,,,,0,0,0,0,0,125,125,226,383.070025927,8.98016151041e-06,384.311783111,1.24176712672,,,,,x,1,1.21721507586,2018_Nov_27_1533,59.9855326084,spanish_cond2,001,1052,
images/microphone01.jpg,diaper,x,sounds/greatgatsby_spanish.wav,,,,,,,,,0,0,0,0,0,126,126,164,385.412253351,8.98016151041e-06,386.362283306,0.950040218304,,,,,x,1,0.933805710636,2018_Nov_27_1533,59.9855326084,spanish_cond2,001,1052,
images/diaper01a.jpg,camera,x,sounds/greatgatsby_spanish.wav,,,,,,,,,0,0,0,0,0,127,127,143,387.483933229,9.30088572204e-06,388.596180935,1.11225764826,,,,,x,1,1.10052828933,2018_Nov_27_1533,59.9855326084,spanish_cond2,001,1052,
images/basketball01.jpg,basket ball,z,sounds/greatgatsby_spanish.wav,,,,,,,,,0,0,0,0,0,128,128,33,389.737027211,8.98016151041e-06,390.996775164,1.25975821586,,,,,z,1,1.25057569169,2018_Nov_27_1533,59.9855326084,spanish_cond2,001,1052,
images/ant.jpg,ant,z,sounds/greatgatsby_spanish.wav,,,,,,,,,0,0,0,0,0,129,129,98,392.092693429,9.30088572204e-06,393.080614486,0.987930999021,,,,,z,1,0.96715862921,2018_Nov_27_1533,59.9855326084,spanish_cond2,001,1052,
images/rubberglove02a.jpg,lady bug,x,sounds/greatgatsby_spanish.wav,,,,,,,,,0,0,0,0,0,130,130,192,394.18608282,8.98016151041e-06,394.981095501,0.795022302773,,,,,x,1,0.783804171137,2018_Nov_27_1533,59.9855326084,spanish_cond2,001,1052,
images/skateboard.jpg,key,x,sounds/greatgatsby_spanish.wav,,,,,,,,,0,0,0,0,0,131,131,189,396.073510546,9.62160993367e-06,396.948236812,0.874736528727,,,,,x,1,0.850468956283,2018_Nov_27_1533,59.9855326084,spanish_cond2,001,1052,
images/bowl02b (1).jpg,bowl,z,sounds/greatgatsby_spanish.wav,,,,,,,,,0,0,0,0,0,132,132,24,398.066864593,8.98016151041e-06,399.165444832,1.0985898599,,,,,z,1,1.0838559994,2018_Nov_27_1533,59.9855326084,spanish_cond2,001,1052,
images/bus.jpg,microphone,x,sounds/greatgatsby_spanish.wav,,,,,,,,,0,0,0,0,0,133,133,203,400.283910971,8.98016151041e-06,401.432774918,1.14887420984,,,,,x,1,1.13396619877,2018_Nov_27_1533,59.9855326084,spanish_cond2,001,1052,
images/crocodile.jpg,triangle ruler,x,sounds/greatgatsby_spanish.wav,,,,,,,,,0,0,0,0,0,134,134,235,402.530119423,9.30076930672e-06,404.350070943,1.81996178301,,,,,x,1,1.80071315216,2018_Nov_27_1533,59.9855326084,spanish_cond2,001,1052,
images/bull.jpg,button,x,sounds/greatgatsby_spanish.wav,,,,,,,,,0,0,0,0,0,135,135,141,405.456007207,8.98016151041e-06,406.28386607,0.827868805151,,,,,x,1,0.817127583548,2018_Nov_27_1533,59.9855326084,spanish_cond2,001,1052,
images/dice05a.jpg,band aid,x,sounds/greatgatsby_spanish.wav,,,,,,,,,0,0,0,0,0,136,136,126,407.396460474,9.30088572204e-06,408.601126431,1.20467622078,,,,,x,1,1.18389615347,2018_Nov_27_1533,59.9855326084,spanish_cond2,001,1052,
images/dreamcatcher.jpg,dream catcher,z,sounds/greatgatsby_spanish.wav,,,,,,,,,0,0,0,0,0,137,137,48,409.700824378,9.30088572204e-06,410.734957928,1.03414349258,,,,,z,1,1.01715721807,2018_Nov_27_1533,59.9855326084,spanish_cond2,001,1052,
images/blackolive.jpg,tank,x,sounds/greatgatsby_spanish.wav,,,,,,,,,0,0,0,0,0,138,138,229,411.849613597,8.98016151041e-06,412.935510977,1.08590796369,,,,,x,1,1.06717954017,2018_Nov_27_1533,59.9855326084,spanish_cond2,001,1052,
images/dragonfly02.jpg,dragon fly,z,sounds/greatgatsby_spanish.wav,,,,,,,,,0,0,0,0,0,139,139,29,414.035138365,9.30088572204e-06,414.902683718,0.86755529535,,,,,z,1,0.850480822846,2018_Nov_27_1533,59.9855326084,spanish_cond2,001,1052,
images/50dollarbill.jpg,cherry,x,sounds/greatgatsby_spanish.wav,,,,,,,,,0,0,0,0,0,140,140,151,416.023467377,9.30088572204e-06,417.053200654,1.0297428983,,,,,x,1,1.01713765413,2018_Nov_27_1533,59.9855326084,spanish_cond2,001,1052,
images/ashtray02b.jpg,ashtray,z,sounds/greatgatsby_spanish.wav,,,,,,,,,0,0,0,0,0,141,141,43,418.167351831,9.30088572204e-06,419.220415217,1.05307364883,,,,,z,1,1.03385644848,2018_Nov_27_1533,59.9855326084,spanish_cond2,001,1052,
images/headphones02b.jpg,headphones,z,sounds/greatgatsby_spanish.wav,,,,,,,,,0,0,0,0,0,142,142,101,420.328075028,8.98016151041e-06,420.970859092,0.64279400697,,,,,z,1,0.633783067809,2018_Nov_27_1533,59.9855326084,spanish_cond2,001,1052,
images/bullet (2).jpg,rubber glove,x,sounds/greatgatsby_spanish.wav,,,,,,,,,0,0,0,0,0,143,143,217,422.075975276,8.98016151041e-06,422.90463241,0.82866675558,,,,,x,1,0.817121810629,2018_Nov_27_1533,59.9855326084,spanish_cond2,001,1052,
images/hanger02a.jpg,hanger,z,sounds/greatgatsby_spanish.wav,,,,,,,,,0,0,0,0,0,144,144,88,423.997569907,8.98016151041e-06,424.905135299,0.907575013116,,,,,z,1,0.883817384718,2018_Nov_27_1533,59.9855326084,spanish_cond2,001,1052,
images/printer03a.jpg,printer,z,sounds/greatgatsby_spanish.wav,,,,,,,,,0,0,0,0,0,145,145,72,426.014201466,8.98016151041e-06,426.922301818,0.908109973534,,,,,z,1,0.883814177592,2018_Nov_27_1533,59.9855326084,spanish_cond2,001,1052,
images/flamingo.jpg,flamingo,z,sounds/greatgatsby_spanish.wav,,,,,,,,,0,0,0,0,0,146,146,52,428.020324645,8.98016151041e-06,429.156173789,1.13585908606,,,,,z,1,1.11719095777,2018_Nov_27_1533,59.9855326084,spanish_cond2,001,1052,
images/tent.jpg,tent,z,sounds/greatgatsby_spanish.wav,,,,,,,,,0,0,0,0,0,147,147,11,430.281957788,9.30088572204e-06,431.090000346,0.808053141925,,,,,z,1,0.783788455883,2018_Nov_27_1533,59.9855326084,spanish_cond2,001,1052,
images/fryingpan01.jpg,frying pan,z,sounds/greatgatsby_spanish.wav,,,,,,,,,0,0,0,0,0,148,148,45,432.190186749,9.30076930672e-06,432.873771163,0.683594677015,,,,,z,1,0.667095255107,2018_Nov_27_1533,59.9855326084,spanish_cond2,001,1052,
images/broadsword.jpg,teapot,x,sounds/greatgatsby_spanish.wav,,,,,,,,,0,0,0,0,0,149,149,231,433.966096085,9.30088572204e-06,434.774230048,0.808144226321,,,,,x,1,0.78378364502,2018_Nov_27_1533,59.9855326084,spanish_cond2,001,1052,
images/sportshorts02.jpg,tape,x,sounds/greatgatsby_spanish.wav,,,,,,,,,0,0,0,0,0,150,150,230,435.88155118,8.65932088345e-06,436.808064688,0.926523450296,,,,,x,1,0.917135665775,2018_Nov_27_1533,59.9855326084,spanish_cond2,001,1052,
images/watermelon01.jpg,orange,x,sounds/greatgatsby_spanish.wav,,,,,,,,,0,0,0,0,0,151,151,207,437.938493028,8.98016151041e-06,439.075286691,1.13680424681,,,,,x,1,1.11719737225,2018_Nov_27_1533,59.9855326084,spanish_cond2,001,1052,
images/flipflop01b.jpg,flip flop,z,sounds/greatgatsby_spanish.wav,,,,,,,,,0,0,0,0,0,152,152,27,440.19223294,8.98016151041e-06,441.225847566,1.03362456814,,,,,z,1,1.01720211888,2018_Nov_27_1533,59.9855326084,spanish_cond2,001,1052,
images/knife04.jpg,tooth brush,x,sounds/greatgatsby_spanish.wav,,,,,,,,,0,0,0,0,0,153,153,233,442.322631774,8.65943729877e-06,443.159650069,0.837027916685,,,,,x,1,0.817137846607,2018_Nov_27_1533,59.9855326084,spanish_cond2,001,1052,
images/cola.jpg,comb,x,sounds/greatgatsby_spanish.wav,,,,,,,,,0,0,0,0,0,154,154,157,444.280584467,8.98016151041e-06,445.376843978,1.09626945318,,,,,x,1,1.0838502266,2018_Nov_27_1533,59.9855326084,spanish_cond2,001,1052,
images/toothbrush03a.jpg,parrot,x,sounds/greatgatsby_spanish.wav,,,,,,,,,0,0,0,0,0,155,155,210,446.469057931,9.30088572204e-06,447.44402448,0.974977774196,,,,,x,1,0.967172420118,2018_Nov_27_1533,59.9855326084,spanish_cond2,001,1052,
images/calculator02b.jpg,dice,x,sounds/greatgatsby_spanish.wav,,,,,,,,,0,0,0,0,0,156,156,165,448.545734621,9.30088572204e-06,449.644566624,1.09884226625,,,,,x,1,1.08385920664,2018_Nov_27_1533,59.9855326084,spanish_cond2,001,1052,
images/bench02.jpg,electric toothbrush,x,sounds/greatgatsby_spanish.wav,,,,,,,,,0,0,0,0,0,157,157,172,450.805896944,8.98016151041e-06,451.761751168,0.955865769763,,,,,x,1,0.933816615026,2018_Nov_27_1533,59.9855326084,spanish_cond2,001,1052,
images/volleyball.jpg,volley ball,z,sounds/greatgatsby_spanish.wav,,,,,,,,,0,0,0,0,0,158,158,2,452.892635571,8.98016151041e-06,453.712239431,0.819613481523,,,,,z,1,0.800467160298,2018_Nov_27_1533,59.9855326084,spanish_cond2,001,1052,
images/aquarium.jpg,computer mouse,x,sounds/greatgatsby_spanish.wav,,,,,,,,,0,0,0,0,0,159,159,159,454.847963174,9.62160993367e-06,456.379568812,1.53161622176,,,,,x,1,1.51730346621,2018_Nov_27_1533,59.9855326084,spanish_cond2,001,1052,
images/parrot01.jpg,chameleon,x,sounds/greatgatsby_spanish.wav,,,,,,,,,0,0,0,0,0,160,160,150,457.492794713,9.62160993367e-06,458.663458936,1.17067480693,,,,,x,1,1.15054580069,2018_Nov_27_1533,59.9855326084,spanish_cond2,001,1052,
images/cauliflower01.jpg,glue stick,x,sounds/greatgatsby_spanish.wav,,,,,,,,,0,0,0,0,0,161,161,181,459.779731994,8.98016151041e-06,461.480815834,1.70109378232,,,,,x,1,1.6840039154,2018_Nov_27_1533,59.9855326084,spanish_cond2,001,1052,
images/lettuce.jpg,mushroom,x,sounds/greatgatsby_spanish.wav,,,,,,,,,0,0,0,0,0,162,162,205,462.604058451,8.98016151041e-06,463.464649639,0.860601131222,,,,,x,1,0.850469918456,2018_Nov_27_1533,59.9855326084,spanish_cond2,001,1052,
images/tape01a.jpg,tie,x,sounds/greatgatsby_spanish.wav,,,,,,,,,0,0,0,0,0,163,163,232,464.589974368,8.65943729877e-06,465.78188274,1.19191863469,,,,,x,1,1.18388653197,2018_Nov_27_1533,59.9855326084,spanish_cond2,001,1052,
images/clothespin02a.jpg,clothes pin,z,sounds/greatgatsby_spanish.wav,,,,,,,,,0,0,0,0,0,164,164,79,466.886277946,8.98016151041e-06,467.915737007,1.02946900378,,,,,z,1,1.01717357477,2018_Nov_27_1533,59.9855326084,spanish_cond2,001,1052,
images/snowman.jpg,globe,x,sounds/greatgatsby_spanish.wav,,,,,,,,,0,0,0,0,0,165,165,180,469.02660626,9.62160993367e-06,469.88288826,0.85629258363,,,,,x,1,0.833788006916,2018_Nov_27_1533,59.9855326084,spanish_cond2,001,1052,
images/bowtie.jpg,bowtie,z,sounds/greatgatsby_spanish.wav,,,,,,,,,0,0,0,0,0,166,166,89,470.993526274,9.62149351835e-06,471.93344458,0.939928889973,,,,,z,1,0.917188584455,2018_Nov_27_1533,59.9855326084,spanish_cond2,001,1052,
images/donut.jpg,rhinoceros,x,sounds/greatgatsby_spanish.wav,,,,,,,,,0,0,0,0,0,167,167,216,473.059210619,8.98016151041e-06,474.767268187,1.708067831,,,,,x,1,1.68383970682,2018_Nov_27_1533,59.9855326084,spanish_cond2,001,1052,
images/lion.jpg,lion,z,sounds/greatgatsby_spanish.wav,,,,,,,,,0,0,0,0,0,168,168,44,475.879428337,8.98016151041e-06,476.867963571,0.988545177272,,,,,z,1,0.967180438107,2018_Nov_27_1533,59.9855326084,spanish_cond2,001,1052,
images/cookingpot.jpg,grasshopper,x,sounds/greatgatsby_spanish.wav,,,,,,,,,0,0,0,0,0,169,169,183,477.981597748,9.30088572204e-06,479.88535716,1.90376935387,,,,,x,1,1.88405535882,2018_Nov_27_1533,59.9855326084,spanish_cond2,001,1052,
images/bat.jpg,hand,x,sounds/greatgatsby_spanish.wav,,,,,,,,,0,0,0,0,0,170,170,185,480.983215779,9.94233414531e-06,481.885863576,0.902659022482,,,,,x,1,0.883818988339,2018_Nov_27_1533,59.9855326084,spanish_cond2,001,1052,
images/panda.jpg,panda,z,sounds/greatgatsby_spanish.wav,,,,,,,,,0,0,0,0,0,171,171,83,482.994824547,8.98016151041e-06,483.88637352,0.891559877666,,,,,z,1,0.867166903801,2018_Nov_27_1533,59.9855326084,spanish_cond2,001,1052,
images/button07.jpg,radish,x,sounds/greatgatsby_spanish.wav,,,,,,,,,0,0,0,0,0,172,172,215,484.998157786,8.98016151041e-06,486.070215152,1.07206762827,,,,,x,1,1.05051334389,2018_Nov_27_1533,59.9855326084,spanish_cond2,001,1052,
images/plant01.jpg,plant,z,sounds/greatgatsby_spanish.wav,,,,,,,,,0,0,0,0,0,173,173,47,487.18195163,8.98016151041e-06,488.104050433,0.92210842378,,,,,z,1,0.900478449534,2018_Nov_27_1533,59.9855326084,spanish_cond2,001,1052,
images/screwdriver02b.jpg,cola,x,sounds/greatgatsby_spanish.wav,,,,,,,,,0,0,0,0,0,174,174,158,489.197787483,8.98016151041e-06,490.754697581,1.55692068092,,,,,x,1,1.53396004089,2018_Nov_27_1533,59.9855326084,spanish_cond2,001,1052,
images/spoon02b.jpg,spoon,z,sounds/greatgatsby_spanish.wav,,,,,,,,,0,0,0,0,0,175,175,38,491.845792222,8.98004509509e-06,492.738526576,0.892744295299,,,,,z,1,0.88381353626,2018_Nov_27_1533,59.9855326084,spanish_cond2,001,1052,
images/comb02a.jpg,diploma,x,sounds/greatgatsby_spanish.wav,,,,,,,,,0,0,0,0,0,176,176,166,493.842601703,8.98016151041e-06,494.605657559,0.76306579751,,,,,x,1,0.750445800368,2018_Nov_27_1533,59.9855326084,spanish_cond2,001,1052,
images/swan.jpg,swan,z,sounds/greatgatsby_spanish.wav,,,,,,,,,0,0,0,0,0,177,177,54,495.697444313,8.98016151041e-06,496.989581422,1.29214673047,,,,,z,1,1.28391321586,2018_Nov_27_1533,59.9855326084,spanish_cond2,001,1052,
images/mushroom01.jpg,shower head,x,sounds/greatgatsby_spanish.wav,,,,,,,,,0,0,0,0,0,178,178,222,498.106404515,9.30088572204e-06,499.156796627,1.05040237494,,,,,x,1,1.03386125923,2018_Nov_27_1533,59.9855326084,spanish_cond2,001,1052,
images/baseball01a.jpg,baseball,z,sounds/greatgatsby_spanish.wav,,,,,,,,,0,0,0,0,0,179,179,74,500.289323756,8.65943729877e-06,501.207288803,0.917974668322,,,,,z,1,0.900488071144,2018_Nov_27_1533,59.9855326084,spanish_cond2,001,1052,
images/cake.jpg,cake,z,sounds/greatgatsby_spanish.wav,,,,,,,,,0,0,0,0,0,180,180,23,502.321214193,9.30088572204e-06,503.524520941,1.20331701078,,,,,z,1,1.18388781487,2018_Nov_27_1533,59.9855326084,spanish_cond2,001,1052,
images/cloud.jpg,ceiling fan,x,sounds/greatgatsby_spanish.wav,,,,,,,,,0,0,0,0,0,181,181,149,504.629977729,8.98016151041e-06,505.658381944,1.02841415687,,,,,x,1,1.01717838552,2018_Nov_27_1533,59.9855326084,spanish_cond2,001,1052,
images/axe01.jpg,axe,z,sounds/greatgatsby_spanish.wav,,,,,,,,,0,0,0,0,0,182,182,104,506.762130258,9.62149351835e-06,507.692214338,0.930094342795,,,,,z,1,0.917151060305,2018_Nov_27_1533,59.9855326084,spanish_cond2,001,1052,
images/elbow.jpg,elbow,z,sounds/greatgatsby_spanish.wav,,,,,,,,,0,0,0,0,0,183,183,105,508.804175,9.30088572204e-06,509.776086374,0.971921636723,,,,,z,1,0.950513921096,2018_Nov_27_1533,59.9855326084,spanish_cond2,001,1052,
images/dolphin01.jpg,dolphin,z,sounds/greatgatsby_spanish.wav,,,,,,,,,0,0,0,0,0,184,184,99,510.876343976,9.30088572204e-06,511.743213572,0.866879538982,,,,,z,1,0.850467994111,2018_Nov_27_1533,59.9855326084,spanish_cond2,001,1052,
images/lighter02b.jpg,stapler,x,sounds/greatgatsby_spanish.wav,,,,,,,,,0,0,0,0,0,185,185,227,512.844490742,9.30088572204e-06,513.677027622,0.832547463244,,,,,x,1,0.817129828618,2018_Nov_27_1533,59.9855326084,spanish_cond2,001,1052,
images/cactus.jpg,cactus,z,sounds/greatgatsby_spanish.wav,,,,,,,,,0,0,0,0,0,186,186,70,514.788791041,8.65932088345e-06,515.777554307,0.98877320881,,,,,z,1,0.967174344463,2018_Nov_27_1533,59.9855326084,spanish_cond2,001,1052,
images/radish01.jpg,raisin,x,sounds/greatgatsby_spanish.wav,,,,,,,,,0,0,0,0,0,187,187,214,516.888219583,9.62160993367e-06,517.744711012,0.856502654846,,,,,x,1,0.833809174364,2018_Nov_27_1533,59.9855326084,spanish_cond2,001,1052,
images/binder03b.jpg,dj mixer,x,sounds/greatgatsby_spanish.wav,,,,,,,,,0,0,0,0,0,188,188,167,518.85789105,8.98016151041e-06,519.811866499,0.953985390603,,,,,x,1,0.933818539488,2018_Nov_27_1533,59.9855326084,spanish_cond2,001,1052,
images/toucan.jpg,toucan,z,sounds/greatgatsby_spanish.wav,,,,,,,,,0,0,0,0,0,189,189,81,520.912531094,9.30088572204e-06,521.962400753,1.04987992265,,,,,z,1,1.03384137468,2018_Nov_27_1533,59.9855326084,spanish_cond2,001,1052,
images/8ball.jpg,nail clipper,x,sounds/greatgatsby_spanish.wav,,,,,,,,,0,0,0,0,0,190,190,206,523.078780611,8.98016151041e-06,524.012909607,0.934139579767,,,,,x,1,0.917149456567,2018_Nov_27_1533,59.9855326084,spanish_cond2,001,1052,
images/corkscrew02a.jpg,masquerade mask,x,sounds/greatgatsby_spanish.wav,,,,,,,,,0,0,0,0,0,191,191,201,525.11702258,8.98016151041e-06,526.546867724,1.42985508603,,,,,x,1,1.41727710306,2018_Nov_27_1533,59.9855326084,spanish_cond2,001,1052,
images/handbag02a.jpg,candle,x,sounds/greatgatsby_spanish.wav,,,,,,,,,0,0,0,0,0,192,192,144,527.662693378,9.62160993367e-06,528.730726032,1.06804323813,,,,,x,1,1.05050436372,2018_Nov_27_1533,59.9855326084,spanish_cond2,001,1052,
images/arrow02.jpg,hammer,x,sounds/greatgatsby_spanish.wav,,,,,,,,,0,0,0,0,0,193,193,184,529.828495171,9.30088572204e-06,530.897949575,1.06946498831,,,,,x,1,1.05052585201,2018_Nov_27_1533,59.9855326084,spanish_cond2,001,1052,
images/atm.jpg,atm,z,sounds/greatgatsby_spanish.wav,,,,,,,,,0,0,0,0,0,194,194,96,532.036452033,9.30088572204e-06,533.131828923,1.095386512,,,,,z,1,1.08386337606,2018_Nov_27_1533,59.9855326084,spanish_cond2,001,1052,
images/handfan01b.jpg,handfan,z,sounds/greatgatsby_spanish.wav,,,,,,,,,0,0,0,0,0,195,195,69,534.246525644,9.30088572204e-06,535.59910686,1.35259115812,,,,,z,1,1.33392463345,2018_Nov_27_1533,59.9855326084,spanish_cond2,001,1052,
images/aloe02.jpg,broad sword,x,sounds/greatgatsby_spanish.wav,,,,,,,,,0,0,0,0,0,196,196,137,536.72047904,9.62160993367e-06,537.666287683,0.945818585576,,,,,x,1,0.933833933901,2018_Nov_27_1533,59.9855326084,spanish_cond2,001,1052,
images/straw.jpg,straw,z,sounds/greatgatsby_spanish.wav,,,,,,,,,0,0,0,0,0,197,197,109,538.757767509,8.98016151041e-06,539.950171072,1.19241350517,,,,,z,1,1.18387787254,2018_Nov_27_1533,59.9855326084,spanish_cond2,001,1052,
images/apple06.jpg,apple,z,sounds/greatgatsby_spanish.wav,,,,,,,,,0,0,0,0,0,198,198,13,541.077533012,8.98004509509e-06,541.967340157,0.889817087096,,,,,z,1,0.867143491283,2018_Nov_27_1533,59.9855326084,spanish_cond2,001,1052,
images/weight01.jpg,weight,z,sounds/greatgatsby_spanish.wav,,,,,,,,,0,0,0,0,0,199,199,67,543.075290861,9.30088572204e-06,543.917824571,0.84254397382,,,,,z,1,0.833781592548,2018_Nov_27_1533,59.9855326084,spanish_cond2,001,1052,
images/magnifyingglass01b.jpg,magnifying glass,z,sounds/greatgatsby_spanish.wav,,,,,,,,,0,0,0,0,0,200,200,64,545.025270784,8.98016151041e-06,545.851629961,0.826369440765,,,,,z,1,0.817130790791,2018_Nov_27_1533,59.9855326084,spanish_cond2,001,1052,
images/egg01b (1).jpg,egg,z,sounds/greatgatsby_spanish.wav,,,,,,,,,0,0,0,0,0,201,201,19,546.964202556,8.98016151041e-06,547.718768321,0.754576990032,,,,,z,1,0.733786018449,2018_Nov_27_1533,59.9855326084,spanish_cond2,001,1052,
images/mirror02.jpg,8 ball,x,sounds/greatgatsby_spanish.wav,,,,,,,,,0,0,0,0,0,202,202,121,548.82118148,9.30088572204e-06,549.602574481,0.78140294319,,,,,x,1,0.767134446884,2018_Nov_27_1533,59.9855326084,spanish_cond2,001,1052,
images/feather03b.jpg,feather,z,sounds/greatgatsby_spanish.wav,,,,,,,,,0,0,0,0,0,203,203,114,550.703417075,9.94233414531e-06,551.453237472,0.749830660061,,,,,z,1,0.73400410777,2018_Nov_27_1533,59.9855326084,spanish_cond2,001,1052,
images/razor04a.jpg,razor,z,sounds/greatgatsby_spanish.wav,,,,,,,,,0,0,0,0,0,204,204,36,552.552818356,3.65620944649e-05,553.470188147,0.917396731558,,,,,z,1,0.900493202615,2018_Nov_27_1533,59.9855326084,spanish_cond2,001,1052,
images/parkfountain.jpg,park fountain,z,sounds/greatgatsby_spanish.wav,,,,,,,,,0,0,0,0,0,205,205,93,554.590778733,8.65943729877e-06,555.520688662,0.929919229937,,,,,z,1,0.917148494511,2018_Nov_27_1533,59.9855326084,spanish_cond2,001,1052,
images/scooter.jpg,pen,x,sounds/greatgatsby_spanish.wav,,,,,,,,,0,0,0,0,0,206,206,212,556.613184528,8.98016151041e-06,557.504497772,0.891323186574,,,,,x,1,0.867137076915,2018_Nov_27_1533,59.9855326084,spanish_cond2,001,1052,
images/charcoalbarbecue.jpg,charcoal barbecue,z,sounds/greatgatsby_spanish.wav,,,,,,,,,0,0,0,0,0,207,207,77,558.62098475,9.62160993367e-06,559.921961213,1.30098704679,,,,,z,1,1.28409634682,2018_Nov_27_1533,59.9855326084,spanish_cond2,001,1052,
images/grandpiano.jpg,tulip,x,sounds/greatgatsby_spanish.wav,,,,,,,,,0,0,0,0,0,208,208,236,561.036251583,8.65943729877e-06,562.239010541,1.20276858029,,,,,x,1,1.18389294634,2018_Nov_27_1533,59.9855326084,spanish_cond2,001,1052,
,,,sounds/greatgatsby_spanish.wav,,,,,,,,,0,0,0,0,,,,,,,,,,,,,,,,2018_Nov_27_1533,59.9855326084,spanish_cond2,001,1052,
images/swan.jpg,swan,z,sounds/animalfarm_english.wav,,,,,,,,,0,1,1,1,0,0,0,54,583.356463848,9.30088572204e-06,584.327803378,0.971349793486,,,,573.241851155,z,1,0.950512317591,2018_Nov_27_1533,59.9855326084,spanish_cond2,001,1052,
images/stapler03a.jpg,candy cane,x,sounds/animalfarm_english.wav,,,,,,,,,0,1,1,1,0,1,1,145,585.437057808,9.30088572204e-06,586.361619095,0.924572512857,,,,,x,1,0.90048550535,2018_Nov_27_1533,59.9855326084,spanish_cond2,001,1052,
images/cake.jpg,cake,z,sounds/animalfarm_english.wav,,,,,,,,,0,1,1,1,0,2,2,23,587.473056022,8.98016151041e-06,588.17875181,0.705706051434,,,,,z,1,0.6837794116,2018_Nov_27_1533,59.9855326084,spanish_cond2,001,1052,
images/bench02.jpg,electric toothbrush,x,sounds/animalfarm_english.wav,,,,,,,,,0,1,1,1,0,3,3,172,589.28518519,9.30088572204e-06,590.712688439,1.42751319113,,,,,x,1,1.41726716072,2018_Nov_27_1533,59.9855326084,spanish_cond2,001,1052,
images/binder03b.jpg,dj mixer,x,sounds/animalfarm_english.wav,,,,,,,,,0,1,1,1,0,4,4,167,591.823452175,9.94233414531e-06,592.913233791,1.08979219932,,,,,x,1,1.06719268963,2018_Nov_27_1533,59.9855326084,spanish_cond2,001,1052,
images/plate01b.jpg,plate,z,sounds/animalfarm_english.wav,,,,,,,,,0,1,1,1,0,5,5,3,594.010418898,9.30088572204e-06,594.897057654,0.886649018503,,,,,z,1,0.867119437316,2018_Nov_27_1533,59.9855326084,spanish_cond2,001,1052,
images/butterfly.jpg,butterfly,z,sounds/animalfarm_english.wav,,,,,,,,,0,1,1,1,0,6,6,91,596.002864347,8.98016151041e-06,596.764186713,0.761332628666,,,,,z,1,0.750446120976,2018_Nov_27_1533,59.9855326084,spanish_cond2,001,1052,
images/razor04a.jpg,razor,z,sounds/animalfarm_english.wav,,,,,,,,,0,1,1,1,0,7,7,36,597.861411911,8.98004509509e-06,598.848025714,0.986623425037,,,,,z,1,0.967149969772,2018_Nov_27_1533,59.9855326084,spanish_cond2,001,1052,
images/parkingmeter.jpg,ear,x,sounds/animalfarm_english.wav,,,,,,,,,0,1,1,1,0,8,8,171,599.947795181,9.62160993367e-06,600.898541624,0.950756385224,,,,,x,1,0.933823670959,2018_Nov_27_1533,59.9855326084,spanish_cond2,001,1052,
images/corn01.jpg,corn,z,sounds/animalfarm_english.wav,,,,,,,,,0,1,1,1,0,9,9,22,601.99602468,9.30088572204e-06,602.982388322,0.986374225933,,,,,z,1,0.967166647199,2018_Nov_27_1533,59.9855326084,spanish_cond2,001,1052,
images/teapot.jpg,light switch,x,sounds/animalfarm_english.wav,,,,,,,,,0,1,1,1,0,10,10,197,604.097010316,8.65943729877e-06,605.266279088,1.16927839373,,,,,x,1,1.15053489618,2018_Nov_27_1533,59.9855326084,spanish_cond2,001,1052,
images/snowman.jpg,globe,x,sounds/animalfarm_english.wav,,,,,,,,,0,1,1,1,0,11,11,180,606.375078737,8.98016151041e-06,607.483506351,1.10843787726,,,,,x,1,1.08387299767,2018_Nov_27_1533,59.9855326084,spanish_cond2,001,1052,
images/cocktailshrimp01.jpg,cocktail shrimp,z,sounds/animalfarm_english.wav,,,,,,,,,0,1,1,1,0,12,12,30,608.59696766,8.98016151041e-06,609.550686212,0.953728494118,,,,,z,1,0.933830726659,2018_Nov_27_1533,59.9855326084,spanish_cond2,001,1052,
images/feather03b.jpg,feather,z,sounds/animalfarm_english.wav,,,,,,,,,0,1,1,1,0,13,13,114,610.649131427,8.98016151041e-06,611.417798593,0.768677429063,,,,,z,1,0.750442272401,2018_Nov_27_1533,59.9855326084,spanish_cond2,001,1052,
images/honeycomb.jpg,honey comb,z,sounds/animalfarm_english.wav,,,,,,,,,0,1,1,1,0,14,14,59,612.529060407,9.30088572204e-06,613.635012707,1.10596224235,,,,,x,0,1.08385984797,2018_Nov_27_1533,59.9855326084,spanish_cond2,001,1052,
images/candy.jpg,candy,z,sounds/animalfarm_english.wav,,,,,,,,,0,1,1,1,0,15,15,31,614.736329325,9.62160993367e-06,615.602162997,0.865843935288,,,,,z,1,0.850466711214,2018_Nov_27_1533,59.9855326084,spanish_cond2,001,1052,
images/pen03c.jpg,pepper,x,sounds/animalfarm_english.wav,,,,,,,,,0,1,1,1,0,16,16,211,616.694047251,9.62160993367e-06,617.686009055,0.991972387303,,,,,x,1,0.983830277692,2018_Nov_27_1533,59.9855326084,spanish_cond2,001,1052,
images/computermouse02a.jpg,world map,x,sounds/animalfarm_english.wav,,,,,,,,,0,1,1,1,0,17,17,239,618.785062675,9.30088572204e-06,619.65317057,0.868117837468,,,,,x,1,0.850467673386,2018_Nov_27_1533,59.9855326084,spanish_cond2,001,1052,
images/basketball01.jpg,basket ball,z,sounds/animalfarm_english.wav,,,,,,,,,0,1,1,1,0,18,18,33,620.790335306,9.30088572204e-06,621.553637153,0.763312110212,,,,,z,1,0.750447083148,2018_Nov_27_1533,59.9855326084,spanish_cond2,001,1052,
images/bullet (2).jpg,rubber glove,x,sounds/animalfarm_english.wav,,,,,,,,,0,1,1,1,0,19,19,217,622.656029786,9.30088572204e-06,623.554124006,0.89810448268,,,,,x,1,0.883801669581,2018_Nov_27_1533,59.9855326084,spanish_cond2,001,1052,
images/ant.jpg,ant,z,sounds/animalfarm_english.wav,,,,,,,,,0,1,1,1,0,20,20,98,624.646608005,8.98016151041e-06,625.454611756,0.808013693546,,,,,z,1,0.783806416206,2018_Nov_27_1533,59.9855326084,spanish_cond2,001,1052,
images/bandaid01.jpg,door handle,x,sounds/animalfarm_english.wav,,,,,,,,,0,1,1,1,0,21,21,170,626.560826084,9.30076930672e-06,627.755170321,1.19435482111,,,,,x,1,1.18389005982,2018_Nov_27_1533,59.9855326084,spanish_cond2,001,1052,
images/nailclipper03a.jpg,aquarium,x,sounds/animalfarm_english.wav,,,,,,,,,0,1,1,1,0,22,22,123,628.852052028,9.30088572204e-06,629.705642228,0.853600142058,,,,,x,1,0.833781913272,2018_Nov_27_1533,59.9855326084,spanish_cond2,001,1052,
images/remotecontrol01c.jpg,remote control,z,sounds/animalfarm_english.wav,,,,,,,,,0,1,1,1,0,23,23,85,630.812661562,9.62160993367e-06,631.50608341,0.693432752159,,,,,z,1,0.683734510792,2018_Nov_27_1533,59.9855326084,spanish_cond2,001,1052,
images/tie01.jpg,bench,x,sounds/animalfarm_english.wav,,,,,,,,,0,1,1,1,0,24,24,130,632.602396802,9.30076930672e-06,633.923357306,1.32097044622,,,,,x,1,1.30058358144,2018_Nov_27_1533,59.9855326084,spanish_cond2,001,1052,
images/flower01.jpg,bus,x,sounds/animalfarm_english.wav,,,,,,,,,0,1,1,1,0,25,25,140,635.037307392,9.30088572204e-06,635.990527225,0.953230095794,,,,,x,1,0.933824312408,2018_Nov_27_1533,59.9855326084,spanish_cond2,001,1052,
images/bracelet02a.jpg,chess knight,x,sounds/animalfarm_english.wav,,,,,,,,,0,1,1,1,0,26,26,152,637.097647906,9.30076930672e-06,638.024380145,0.926742181065,,,,,x,1,0.917133420706,2018_Nov_27_1533,59.9855326084,spanish_cond2,001,1052,
images/hairdryer03a.jpg,hairdryer,z,sounds/animalfarm_english.wav,,,,,,,,,0,1,1,1,0,27,27,119,639.121362879,8.98016151041e-06,639.891496696,0.770143759437,,,,,z,1,0.750452214736,2018_Nov_27_1533,59.9855326084,spanish_cond2,001,1052,
images/giraffe.jpg,lettuce,x,sounds/animalfarm_english.wav,,,,,,,,,0,1,1,1,0,28,28,195,640.991698814,8.98016151041e-06,641.891992849,0.900303978124,,,,,x,1,0.883817384718,2018_Nov_27_1533,59.9855326084,spanish_cond2,001,1052,
images/electrictoothbrush01a.jpg,banjo,x,sounds/animalfarm_english.wav,,,,,,,,,0,1,1,1,0,29,29,127,642.984617965,8.98016151041e-06,643.959156674,0.974548651255,,,,,x,1,0.950488584349,2018_Nov_27_1533,59.9855326084,spanish_cond2,001,1052,
images/belt02a.jpg,snowman,x,sounds/animalfarm_english.wav,,,,,,,,,0,1,1,1,0,30,30,224,645.060026209,9.62149351835e-06,646.259726785,1.19971083908,,,,,x,1,1.18387915543,2018_Nov_27_1533,59.9855326084,spanish_cond2,001,1052,
images/table02.jpg,table,z,sounds/animalfarm_english.wav,,,,,,,,,0,1,1,1,0,31,31,49,647.371687768,9.30088572204e-06,648.376946608,1.00526878238,,,,,z,1,0.983871650533,2018_Nov_27_1533,59.9855326084,spanish_cond2,001,1052,
images/doll.jpg,carrot,x,sounds/animalfarm_english.wav,,,,,,,,,0,1,1,1,0,32,32,146,649.486241127,9.30088572204e-06,650.344056488,0.857825623476,,,,,x,1,0.833783516777,2018_Nov_27_1533,59.9855326084,spanish_cond2,001,1052,
images/blueberry02.jpg,blueberry,z,sounds/animalfarm_english.wav,,,,,,,,,0,1,1,1,0,33,33,46,651.455131322,9.94233414531e-06,652.577967587,1.1228471694,,,,,z,1,1.10054240108,2018_Nov_27_1533,59.9855326084,spanish_cond2,001,1052,
images/lighter02b.jpg,stapler,x,sounds/animalfarm_english.wav,,,,,,,,,0,1,1,1,0,34,34,227,653.677442954,9.94233414531e-06,654.545112425,0.867680696654,,,,,x,1,0.850479540066,2018_Nov_27_1533,59.9855326084,spanish_cond2,001,1052,
images/dragonfly02.jpg,dragon fly,z,sounds/animalfarm_english.wav,,,,,,,,,0,1,1,1,0,35,35,29,655.640439925,9.62160993367e-06,656.412229297,0.771799955633,,,,,z,1,0.750447724597,2018_Nov_27_1533,59.9855326084,spanish_cond2,001,1052,
images/envelope02a.jpg,grand piano,x,sounds/animalfarm_english.wav,,,,,,,,,0,1,1,1,0,36,36,182,657.534431178,8.98016151041e-06,658.462732377,0.928310820949,,,,,x,1,0.917134703486,2018_Nov_27_1533,59.9855326084,spanish_cond2,001,1052,
images/seagull.jpg,seagull,z,sounds/animalfarm_english.wav,,,,,,,,,0,1,1,1,0,37,37,50,659.569489363,9.30088572204e-06,660.346528595,0.77704917395,,,,,z,1,0.767094998504,2018_Nov_27_1533,59.9855326084,spanish_cond2,001,1052,
images/raisin.jpg,ruler,x,sounds/animalfarm_english.wav,,,,,,,,,0,1,1,1,0,38,38,218,661.449899422,8.98016151041e-06,662.347038539,0.89714905899,,,,,x,1,0.883824119926,2018_Nov_27_1533,59.9855326084,spanish_cond2,001,1052,
images/dreamcatcher.jpg,dream catcher,z,sounds/animalfarm_english.wav,,,,,,,,,0,1,1,1,0,39,39,48,663.443493689,9.30088572204e-06,664.180824301,0.737340554246,,,,,z,1,0.717110842001,2018_Nov_27_1533,59.9855326084,spanish_cond2,001,1052,
images/cactus.jpg,cactus,z,sounds/animalfarm_english.wav,,,,,,,,,0,1,1,1,0,40,40,70,665.290498873,9.30088572204e-06,666.064621801,0.774133511703,,,,,z,1,0.750453497632,2018_Nov_27_1533,59.9855326084,spanish_cond2,001,1052,
images/straw.jpg,straw,z,sounds/animalfarm_english.wav,,,,,,,,,0,1,1,1,0,41,41,109,667.153869098,8.98016151041e-06,667.898416864,0.744557387661,,,,,z,1,0.733743041987,2018_Nov_27_1533,59.9855326084,spanish_cond2,001,1052,
images/thumbtack02a.jpg,thumb tack,z,sounds/animalfarm_english.wav,,,,,,,,,0,1,1,1,0,42,42,60,669.006493611,8.98016151041e-06,669.815547398,0.809063408873,,,,,z,1,0.800455935067,2018_Nov_27_1533,59.9855326084,spanish_cond2,001,1052,
images/glasses01b.jpg,calculator,x,sounds/animalfarm_english.wav,,,,,,,,,0,1,1,1,0,43,43,142,670.906272891,8.98016151041e-06,671.849373057,0.943110428867,,,,,x,1,0.933815973694,2018_Nov_27_1533,59.9855326084,spanish_cond2,001,1052,
images/dryingmachine01.jpg,drying machine,z,sounds/animalfarm_english.wav,,,,,,,,,0,1,1,1,0,44,44,18,672.968640675,8.98016151041e-06,673.733176972,0.764545918792,,,,,z,1,0.750438423711,2018_Nov_27_1533,59.9855326084,spanish_cond2,001,1052,
images/umbrella01.jpg,umbrella,z,sounds/animalfarm_english.wav,,,,,,,,,0,1,1,1,0,45,45,53,674.845499085,9.30088572204e-06,675.767005838,0.921517016832,,,,,z,1,0.90048326028,2018_Nov_27_1533,59.9855326084,spanish_cond2,001,1052,
images/broadsword.jpg,teapot,x,sounds/animalfarm_english.wav,,,,,,,,,0,1,1,1,0,46,46,231,676.857529599,9.30076930672e-06,677.750832909,0.893313572626,,,,,x,1,0.883819950628,2018_Nov_27_1533,59.9855326084,spanish_cond2,001,1052,
images/lamp04b.jpg,parking meter,x,sounds/animalfarm_english.wav,,,,,,,,,0,1,1,1,0,47,47,209,678.870321502,8.98016151041e-06,679.818019826,0.947708907188,,,,,x,1,0.9338310475,2018_Nov_27_1533,59.9855326084,spanish_cond2,001,1052,
images/weight01.jpg,weight,z,sounds/animalfarm_english.wav,,,,,,,,,0,1,1,1,0,48,48,67,680.920638566,8.98016151041e-06,681.685143753,0.764514808892,,,,,z,1,0.750447403872,2018_Nov_27_1533,59.9855326084,spanish_cond2,001,1052,
images/parkfountain.jpg,park fountain,z,sounds/animalfarm_english.wav,,,,,,,,,0,1,1,1,0,49,49,93,682.803103796,8.98016151041e-06,683.535589297,0.732496084063,,,,,z,1,0.717106031138,2018_Nov_27_1533,59.9855326084,spanish_cond2,001,1052,
images/aloe02.jpg,broad sword,x,sounds/animalfarm_english.wav,,,,,,,,,0,1,1,1,0,50,50,137,684.655840561,9.62160993367e-06,685.919515405,1.26368510711,,,,,x,1,1.25057280529,2018_Nov_27_1533,59.9855326084,spanish_cond2,001,1052,
images/bicycle.jpg,hand bag,x,sounds/animalfarm_english.wav,,,,,,,,,0,1,1,1,0,51,51,186,687.02919543,8.98004509509e-06,688.420149148,1.39096365985,,,,,x,1,1.36727915565,2018_Nov_27_1533,59.9855326084,spanish_cond2,001,1052,
images/cockroach02.jpg,belt,x,sounds/animalfarm_english.wav,,,,,,,,,0,1,1,1,0,52,52,129,689.517045608,9.62160993367e-06,690.45410983,0.937074164511,,,,,x,1,0.91729859123,2018_Nov_27_1533,59.9855326084,spanish_cond2,001,1052,
images/lemon02.jpg,lemon,z,sounds/animalfarm_english.wav,,,,,,,,,0,1,1,1,0,53,53,14,691.564298836,8.98016151041e-06,692.571158067,1.00686981471,,,,,z,1,0.983848238015,2018_Nov_27_1533,59.9855326084,spanish_cond2,001,1052,
images/lipstick04.jpg,lipstick,z,sounds/animalfarm_english.wav,,,,,,,,,0,1,1,1,0,54,54,56,693.671156528,9.30088572204e-06,694.504953194,0.833806608571,,,,,z,1,0.817123093526,2018_Nov_27_1533,59.9855326084,spanish_cond2,001,1052,
images/nailpolish02b.jpg,nail polish,z,sounds/animalfarm_english.wav,,,,,,,,,0,1,1,1,0,55,55,94,695.612462267,9.30088572204e-06,696.622149925,1.00969759992,,,,,z,1,1.00050417124,2018_Nov_27_1533,59.9855326084,spanish_cond2,001,1052,
images/comb02a.jpg,diploma,x,sounds/animalfarm_english.wav,,,,,,,,,0,1,1,1,0,56,56,166,697.72467726,9.30088572204e-06,698.739511505,1.014844188,,,,,x,1,1.00067671842,2018_Nov_27_1533,59.9855326084,spanish_cond2,001,1052,
images/8ball.jpg,nail clipper,x,sounds/animalfarm_english.wav,,,,,,,,,0,1,1,1,0,57,57,206,699.854135744,9.30088572204e-06,701.023503939,1.16937909962,,,,,x,1,1.15080622514,2018_Nov_27_1533,59.9855326084,spanish_cond2,001,1052,
images/cookingpot.jpg,grasshopper,x,sounds/animalfarm_english.wav,,,,,,,,,0,1,1,1,0,58,58,183,702.135221495,9.30076930672e-06,703.107083478,0.971872566501,,,,,x,1,0.950503337313,2018_Nov_27_1533,59.9855326084,spanish_cond2,001,1052,
images/beachumbrella01.jpg,beach umbrella,z,sounds/animalfarm_english.wav,,,,,,,,,0,1,1,1,0,59,59,92,704.210871241,9.30088572204e-06,705.407645571,1.19678459316,,,,,z,1,1.18387562747,2018_Nov_27_1533,59.9855326084,spanish_cond2,001,1052,
images/antelope.jpg,antelope,z,sounds/animalfarm_english.wav,,,,,,,,,0,1,1,1,0,60,60,12,706.510913448,8.65943729877e-06,707.358129666,0.847226159996,,,,,z,1,0.833797307685,2018_Nov_27_1533,59.9855326084,spanish_cond2,001,1052,
images/button07.jpg,radish,x,sounds/animalfarm_english.wav,,,,,,,,,0,1,1,1,0,61,61,215,708.468107318,9.30076930672e-06,709.291937942,0.823841207777,,,,,x,1,0.800459142309,2018_Nov_27_1533,59.9855326084,spanish_cond2,001,1052,
images/ladder.jpg,ladder,z,sounds/animalfarm_english.wav,,,,,,,,,0,1,1,1,0,62,62,113,710.383077485,8.98016151041e-06,711.259092723,0.876025180332,,,,,z,1,0.867101156269,2018_Nov_27_1533,59.9855326084,spanish_cond2,001,1052,
images/squirrel.jpg,binder,x,sounds/animalfarm_english.wav,,,,,,,,,0,1,1,1,0,63,63,132,712.360232624,9.30088572204e-06,713.55967021,1.19944720762,,,,,x,1,1.18389487057,2018_Nov_27_1533,59.9855326084,spanish_cond2,001,1052,
images/mitten01.jpg,mitten,z,sounds/animalfarm_english.wav,,,,,,,,,0,1,1,1,0,64,64,102,714.678181892,8.98016151041e-06,715.54331415,0.865142521448,,,,,z,1,0.850289994734,2018_Nov_27_1533,59.9855326084,spanish_cond2,001,1052,
images/masquerademask02b.jpg,mirror,x,sounds/animalfarm_english.wav,,,,,,,,,0,1,1,1,0,65,65,204,716.647091009,9.30088572204e-06,717.427288687,0.780207941774,,,,,x,1,0.767125466838,2018_Nov_27_1533,59.9855326084,spanish_cond2,001,1052,
images/toucan.jpg,toucan,z,sounds/animalfarm_english.wav,,,,,,,,,0,1,1,1,0,66,66,81,718.525886565,8.65943729877e-06,719.161038465,0.635162162362,,,,,z,1,0.617077743751,2018_Nov_27_1533,59.9855326084,spanish_cond2,001,1052,
images/hanger02a.jpg,hanger,z,sounds/animalfarm_english.wav,,,,,,,,,0,1,1,1,0,67,67,88,720.253152674,9.62160993367e-06,721.07819626,0.825053848792,,,,,z,1,0.817141374573,2018_Nov_27_1533,59.9855326084,spanish_cond2,001,1052,
images/gluestick.jpg,squirrel,x,sounds/animalfarm_english.wav,,,,,,,,,0,1,1,1,0,68,68,226,722.184152409,8.65943729877e-06,723.162026922,0.977884456282,,,,,x,1,0.967161515728,2018_Nov_27_1533,59.9855326084,spanish_cond2,001,1052,
images/elbow.jpg,elbow,z,sounds/animalfarm_english.wav,,,,,,,,,0,1,1,1,0,69,69,105,724.271982766,8.98016151041e-06,725.062494147,0.790521002607,,,,,z,1,0.767116486677,2018_Nov_27_1533,59.9855326084,spanish_cond2,001,1052,
images/mirror02.jpg,8 ball,x,sounds/animalfarm_english.wav,,,,,,,,,0,1,1,1,0,70,70,121,726.162401202,9.62160993367e-06,727.129683629,0.967293010792,,,,,x,1,0.950499168015,2018_Nov_27_1533,59.9855326084,spanish_cond2,001,1052,
images/scissors04a.jpg,leek,x,sounds/animalfarm_english.wav,,,,,,,,,0,1,1,1,0,71,71,194,728.222196173,9.30088572204e-06,729.180188955,0.958002724918,,,,,x,1,0.933832971728,2018_Nov_27_1533,59.9855326084,spanish_cond2,001,1052,
images/aquarium.jpg,computer mouse,x,sounds/animalfarm_english.wav,,,,,,,,,0,1,1,1,0,72,72,159,730.315340213,9.30088572204e-06,732.164251434,1.84892148396,,,,,x,1,1.83404105471,2018_Nov_27_1533,59.9855326084,spanish_cond2,001,1052,
images/cloud.jpg,ceiling fan,x,sounds/animalfarm_english.wav,,,,,,,,,0,1,1,1,0,73,73,149,733.267644391,8.98016151041e-06,734.11472751,0.847093382035,,,,,x,1,0.83378961042,2018_Nov_27_1533,59.9855326084,spanish_cond2,001,1052,
images/cupcake.jpg,scissors,x,sounds/animalfarm_english.wav,,,,,,,,,0,1,1,1,0,74,74,219,735.231986461,9.30088572204e-06,736.365285562,1.1333093649,,,,,x,1,1.11720186227,2018_Nov_27_1533,59.9855326084,spanish_cond2,001,1052,
images/flamingo.jpg,flamingo,z,sounds/animalfarm_english.wav,,,,,,,,,0,1,1,1,0,75,75,52,737.461738146,9.30088572204e-06,738.315770939,0.854042735184,,,,,z,1,0.833800194203,2018_Nov_27_1533,59.9855326084,spanish_cond2,001,1052,
images/tissuebox03.jpg,tissue box,z,sounds/animalfarm_english.wav,,,,,,,,,0,1,1,1,0,76,76,58,739.439883669,9.30088572204e-06,740.382951763,0.943078356911,,,,,z,1,0.933834896074,2018_Nov_27_1533,59.9855326084,spanish_cond2,001,1052,
images/fork01.jpg,cooking pot,x,sounds/animalfarm_english.wav,,,,,,,,,0,1,1,1,0,77,77,160,741.475041597,9.62160993367e-06,742.750204298,1.27517328481,,,,,x,1,1.26724445377,2018_Nov_27_1533,59.9855326084,spanish_cond2,001,1052,
images/scooter.jpg,pen,x,sounds/animalfarm_english.wav,,,,,,,,,0,1,1,1,0,78,78,212,743.84078194,9.30076930672e-06,745.267486276,1.42671459925,,,,,x,1,1.41726780229,2018_Nov_27_1533,59.9855326084,spanish_cond2,001,1052,
images/lock02a.jpg,lock,z,sounds/animalfarm_english.wav,,,,,,,,,0,1,1,1,0,79,79,65,746.375902345,9.62160993367e-06,748.46829526,2.09240349859,,,,,z,1,2.08413310128,2018_Nov_27_1533,59.9855326084,spanish_cond2,001,1052,
images/peach01.jpg,peach,z,sounds/animalfarm_english.wav,,,,,,,,,0,1,1,1,0,80,80,106,749.594994593,9.30088572204e-06,750.235369411,0.640384440194,,,,,z,1,0.617054331233,2018_Nov_27_1533,59.9855326084,spanish_cond2,001,1052,
images/wallet01.jpg,lamp,x,sounds/animalfarm_english.wav,,,,,,,,,0,1,1,1,0,81,81,193,751.338381033,9.30088572204e-06,752.135836315,0.797465224401,,,,,x,1,0.783775627031,2018_Nov_27_1533,59.9855326084,spanish_cond2,001,1052,
images/parkbench03.jpg,park bench,z,sounds/animalfarm_english.wav,,,,,,,,,0,1,1,1,0,82,82,71,753.240413369,8.98016151041e-06,753.986300781,0.745897354325,,,,,z,1,0.733776717563,2018_Nov_27_1533,59.9855326084,spanish_cond2,001,1052,
images/bowlingball.jpg,bowling ball,z,sounds/animalfarm_english.wav,,,,,,,,,0,1,1,1,0,83,83,20,755.116796152,9.30088572204e-06,756.070164157,0.953377947561,,,,,z,1,0.933838103199,2018_Nov_27_1533,59.9855326084,spanish_cond2,001,1052,
images/rhinoceros01.jpg,envelope,x,sounds/animalfarm_english.wav,,,,,,,,,0,1,1,1,0,84,84,173,757.182051695,8.65943729877e-06,758.670798284,1.48875717283,,,,,x,1,1.46729750081,2018_Nov_27_1533,59.9855326084,spanish_cond2,001,1052,
images/printer03a.jpg,printer,z,sounds/animalfarm_english.wav,,,,,,,,,0,1,1,1,0,85,85,72,759.777981506,8.98016151041e-06,760.587920159,0.809948595124,,,,,z,1,0.800454331446,2018_Nov_27_1533,59.9855326084,spanish_cond2,001,1052,
images/eyedrops.jpg,bicycle,x,sounds/animalfarm_english.wav,,,,,,,,,0,1,1,1,0,86,86,131,761.686721052,8.98016151041e-06,762.605093413,0.918382302858,,,,,x,1,0.9004819775,2018_Nov_27_1533,59.9855326084,spanish_cond2,001,1052,
images/acousticguitar02.jpg,acoustic guitar,z,sounds/animalfarm_english.wav,,,,,,,,,0,1,1,1,0,87,87,97,763.717578131,8.65943729877e-06,764.738959547,1.02139103808,,,,,z,1,1.00050256762,2018_Nov_27_1533,59.9855326084,spanish_cond2,001,1052,
images/apple06.jpg,apple,z,sounds/animalfarm_english.wav,,,,,,,,,0,1,1,1,0,88,88,13,765.864065545,9.30088572204e-06,766.522734212,0.658679571585,,,,,z,1,0.650430983049,2018_Nov_27_1533,59.9855326084,spanish_cond2,001,1052,
images/medal01.jpg,medal,z,sounds/animalfarm_english.wav,,,,,,,,,0,1,1,1,0,89,89,115,767.622154736,9.62160993367e-06,768.3398371,0.717692627455,,,,,z,1,0.700428289012,2018_Nov_27_1533,59.9855326084,spanish_cond2,001,1052,
images/plant01.jpg,plant,z,sounds/animalfarm_english.wav,,,,,,,,,0,1,1,1,0,90,90,47,769.449744515,8.65943729877e-06,770.123621066,0.673886814155,,,,,z,1,0.650427775923,2018_Nov_27_1533,59.9855326084,spanish_cond2,001,1052,
images/hammer02a.jpg,flower,x,sounds/animalfarm_english.wav,,,,,,,,,0,1,1,1,0,91,91,176,771.218596736,8.98016151041e-06,772.224155128,1.00556865509,,,,,x,1,0.983867481234,2018_Nov_27_1533,59.9855326084,spanish_cond2,001,1052,
images/cheetah.jpg,cheetah,z,sounds/animalfarm_english.wav,,,,,,,,,0,1,1,1,0,92,92,82,773.324824214,9.30088572204e-06,774.141261608,0.816447337158,,,,,z,1,0.800449841423,2018_Nov_27_1533,59.9855326084,spanish_cond2,001,1052,
images/saltshaker03c.jpg,salt shaker,z,sounds/animalfarm_english.wav,,,,,,,,,0,1,1,1,0,93,93,63,775.251538813,9.30088572204e-06,776.008398044,0.7568694941,,,,,z,1,0.733777679736,2018_Nov_27_1533,59.9855326084,spanish_cond2,001,1052,
images/gorilla.jpg,gorilla,z,sounds/animalfarm_english.wav,,,,,,,,,0,1,1,1,0,94,94,80,777.117628099,9.62160993367e-06,778.275634159,1.15801664407,,,,,z,1,1.13389179169,2018_Nov_27_1533,59.9855326084,spanish_cond2,001,1052,
images/knife04.jpg,tooth brush,x,sounds/animalfarm_english.wav,,,,,,,,,0,1,1,1,0,95,95,233,779.370978336,8.98016151041e-06,780.826251737,1.45528334298,,,,,x,1,1.43394522369,2018_Nov_27_1533,59.9855326084,spanish_cond2,001,1052,
images/chameleon.jpg,50 dollar bill,x,sounds/animalfarm_english.wav,,,,,,,,,0,1,1,1,0,96,96,120,781.934376912,8.98016151041e-06,784.427162003,2.49279535399,,,,,x,1,2.48423213954,2018_Nov_27_1533,59.9855326084,spanish_cond2,001,1052,
images/highheelshoe02a.jpg,high heel shoe,z,sounds/animalfarm_english.wav,,,,,,,,,0,1,1,1,0,97,97,75,785.531739378,9.30088572204e-06,787.027794206,1.49606573221,,,,,z,1,1.48397652584,2018_Nov_27_1533,59.9855326084,spanish_cond2,001,1052,
images/mattress.jpg,cat,x,sounds/animalfarm_english.wav,,,,,,,,,0,1,1,1,0,98,98,147,788.13001365,9.30088572204e-06,789.111663996,0.981661250698,,,,,x,1,0.967203209293,2018_Nov_27_1533,59.9855326084,spanish_cond2,001,1052,
images/charcoalbarbecue.jpg,charcoal barbecue,z,sounds/animalfarm_english.wav,,,,,,,,,0,1,1,1,0,99,99,77,790.227552511,8.98016151041e-06,791.178638596,0.951096347999,,,,,z,1,0.933659141767,2018_Nov_27_1533,59.9855326084,spanish_cond2,001,1052,
images/camera01a.jpg,bull,x,sounds/animalfarm_english.wav,,,,,,,,,0,1,1,1,0,100,100,138,792.288354862,9.30088572204e-06,793.112629683,0.824285404524,,,,,x,1,0.800471971044,2018_Nov_27_1533,59.9855326084,spanish_cond2,001,1052,
images/floorlamp.jpg,floor lamp,z,sounds/animalfarm_english.wav,,,,,,,,,0,1,1,1,0,101,101,26,794.20359315,8.98016151041e-06,795.113122629,0.909538779524,,,,,z,1,0.900488712592,2018_Nov_27_1533,59.9855326084,spanish_cond2,001,1052,
images/ladybug03.jpg,giraffe,x,sounds/animalfarm_english.wav,,,,,,,,,0,1,1,1,0,102,102,178,796.214475489,9.62160993367e-06,797.080278693,0.865814108285,,,,,x,1,0.850480822846,2018_Nov_27_1533,59.9855326084,spanish_cond2,001,1052,
images/tape01a.jpg,tie,x,sounds/animalfarm_english.wav,,,,,,,,,0,1,1,1,0,103,103,232,798.204558517,9.30088572204e-06,799.113934691,0.90938675846,,,,,x,1,0.900317769032,2018_Nov_27_1533,59.9855326084,spanish_cond2,001,1052,
images/hat05.jpg,hat,z,sounds/animalfarm_english.wav,,,,,,,,,0,1,1,1,0,104,104,15,800.216330852,9.62160993367e-06,800.964555669,0.748235400533,,,,,z,1,0.733760040021,2018_Nov_27_1533,59.9855326084,spanish_cond2,001,1052,
images/blackolive.jpg,tank,x,sounds/animalfarm_english.wav,,,,,,,,,0,1,1,1,0,105,105,229,802.077813,9.62160993367e-06,803.048393066,0.97059065022,,,,,x,1,0.950491791475,2018_Nov_27_1533,59.9855326084,spanish_cond2,001,1052,
images/leaf01a.jpg,leaf,z,sounds/animalfarm_english.wav,,,,,,,,,0,1,1,1,0,106,106,68,804.149713854,9.62160993367e-06,804.8656855,0.715982550289,,,,,z,1,0.700603401987,2018_Nov_27_1533,59.9855326084,spanish_cond2,001,1052,
images/handbag02a.jpg,candle,x,sounds/animalfarm_english.wav,,,,,,,,,0,1,1,1,0,107,107,144,805.98001179,9.62160993367e-06,806.749307566,0.769306360395,,,,,x,1,0.750434254413,2018_Nov_27_1533,59.9855326084,spanish_cond2,001,1052,
images/lantern03.jpg,lantern,z,sounds/animalfarm_english.wav,,,,,,,,,0,1,1,1,0,108,108,5,807.854190908,9.30088572204e-06,808.599767222,0.745586576988,,,,,z,1,0.733733741217,2018_Nov_27_1533,59.9855326084,spanish_cond2,001,1052,
images/watermelon01.jpg,orange,x,sounds/animalfarm_english.wav,,,,,,,,,0,1,1,1,0,109,109,207,809.727468162,9.30088572204e-06,810.967025851,1.23956795223,,,,,x,1,1.21723399835,2018_Nov_27_1533,59.9855326084,spanish_cond2,001,1052,
images/lion.jpg,lion,z,sounds/animalfarm_english.wav,,,,,,,,,0,1,1,1,0,110,110,44,812.077805944,9.30088572204e-06,812.834142081,0.756346400362,,,,,z,1,0.733772868873,2018_Nov_27_1533,59.9855326084,spanish_cond2,001,1052,
images/desktopcomputer.jpg,desktop computer,z,sounds/animalfarm_english.wav,,,,,,,,,0,1,1,1,0,111,111,16,813.968665049,9.30088572204e-06,814.784638684,0.815983897308,,,,,z,1,0.800471329596,2018_Nov_27_1533,59.9855326084,spanish_cond2,001,1052,
images/worldmap.jpg,scooter,x,sounds/animalfarm_english.wav,,,,,,,,,0,1,1,1,0,112,112,220,815.91506959,8.98016151041e-06,816.851802829,0.936743502505,,,,,x,1,0.917135024327,2018_Nov_27_1533,59.9855326084,spanish_cond2,001,1052,
images/candycane01a.jpg,lip,x,sounds/animalfarm_english.wav,,,,,,,,,0,1,1,1,0,113,113,200,817.944034101,9.94233414531e-06,818.952312196,1.0082889992,,,,,x,1,0.983827070449,2018_Nov_27_1533,59.9855326084,spanish_cond2,001,1052,
images/donut.jpg,rhinoceros,x,sounds/animalfarm_english.wav,,,,,,,,,0,1,1,1,0,114,114,216,820.07679247,8.98016151041e-06,821.336252737,1.25946988899,,,,,x,1,1.25056414586,2018_Nov_27_1533,59.9855326084,spanish_cond2,001,1052,
images/flashlight05.jpg,flash light,z,sounds/animalfarm_english.wav,,,,,,,,,0,1,1,1,0,115,115,8,822.437010983,9.30088572204e-06,823.186691225,0.74969050556,,,,,z,1,0.733769661631,2018_Nov_27_1533,59.9855326084,spanish_cond2,001,1052,
images/birthdaycandle.jpg,birthday candle,z,sounds/animalfarm_english.wav,,,,,,,,,0,1,1,1,0,116,116,55,824.281191268,9.30088572204e-06,825.553954345,1.27277333976,,,,,z,1,1.25057376747,2018_Nov_27_1533,59.9855326084,spanish_cond2,001,1052,
images/axe01.jpg,axe,z,sounds/animalfarm_english.wav,,,,,,,,,0,1,1,1,0,117,117,104,826.656070197,9.30088572204e-06,827.421080197,0.765019942308,,,,,z,1,0.75043329224,2018_Nov_27_1533,59.9855326084,spanish_cond2,001,1052,
images/screw03c.jpg,screw,z,sounds/animalfarm_english.wav,,,,,,,,,0,1,1,1,0,118,118,84,828.514526996,9.94233414531e-06,829.438242225,0.92372517148,,,,,z,1,0.90048422257,2018_Nov_27_1533,59.9855326084,spanish_cond2,001,1052,
images/sunglasses03a.jpg,sun glasses,z,sounds/animalfarm_english.wav,,,,,,,,,0,1,1,1,0,119,119,17,830.545758675,9.30088572204e-06,832.172259483,1.62651139137,,,,,z,1,1.61731924559,2018_Nov_27_1533,59.9855326084,spanish_cond2,001,1052,
images/diploma01.jpg,glasses,x,sounds/animalfarm_english.wav,,,,,,,,,0,1,1,1,0,120,120,179,833.302597701,8.98016151041e-06,834.339445822,1.03685838438,,,,,x,1,1.01717036753,2018_Nov_27_1533,59.9855326084,spanish_cond2,001,1052,
images/lettuce.jpg,mushroom,x,sounds/animalfarm_english.wav,,,,,,,,,0,1,1,1,0,121,121,205,835.461058221,8.98016151041e-06,836.690033765,1.22898580751,,,,,x,1,1.21722822543,2018_Nov_27_1533,59.9855326084,spanish_cond2,001,1052,
images/microphone01.jpg,diaper,x,sounds/animalfarm_english.wav,,,,,,,,,0,1,1,1,0,122,122,164,837.788601816,9.62160993367e-06,838.724050574,0.935459020315,,,,,x,1,0.91733707767,2018_Nov_27_1533,59.9855326084,spanish_cond2,001,1052,
images/ashtray02b.jpg,ashtray,z,sounds/animalfarm_english.wav,,,,,,,,,0,1,1,1,0,123,123,43,839.83630277,9.62149351835e-06,840.891060517,1.05476801062,,,,,z,1,1.03384618543,2018_Nov_27_1533,59.9855326084,spanish_cond2,001,1052,
images/radio03a.jpg,radio,z,sounds/animalfarm_english.wav,,,,,,,,,0,1,1,1,0,124,124,37,842.004707523,1.09043903649e-05,842.991575978,0.986880321521,,,,,z,1,0.967160874163,2018_Nov_27_1533,59.9855326084,spanish_cond2,001,1052,
images/computerkeyboard01a.jpg,computer keyboard,z,sounds/animalfarm_english.wav,,,,,,,,,0,1,1,1,0,125,125,61,844.108054297,9.62160993367e-06,844.858711772,0.750668059103,,,,,z,1,0.733767416677,2018_Nov_27_1533,59.9855326084,spanish_cond2,001,1052,
images/candle08a.jpg,screw driver,x,sounds/animalfarm_english.wav,,,,,,,,,0,1,1,1,0,126,126,221,845.970680772,9.30088572204e-06,846.792515558,0.821845048806,,,,,x,1,0.800454972894,2018_Nov_27_1533,59.9855326084,spanish_cond2,001,1052,
images/lychee02a.jpg,lychee,z,sounds/animalfarm_english.wav,,,,,,,,,0,1,1,1,0,127,127,62,847.914609678,9.30088572204e-06,848.976394072,1.06179497798,,,,,z,1,1.05052360683,2018_Nov_27_1533,59.9855326084,spanish_cond2,001,1052,
images/ostrich.jpg,ostrich,z,sounds/animalfarm_english.wav,,,,,,,,,0,1,1,1,0,128,128,76,850.07561126,8.65943729877e-06,850.793518128,0.717916168971,,,,,z,1,0.700443362934,2018_Nov_27_1533,59.9855326084,spanish_cond2,001,1052,
images/licenseplate.jpg,license plate,z,sounds/animalfarm_english.wav,,,,,,,,,0,1,1,1,0,129,129,40,851.909770339,9.30088572204e-06,852.860681953,0.950921876589,,,,,z,1,0.933810200659,2018_Nov_27_1533,59.9855326084,spanish_cond2,001,1052,
images/orange.jpg,bat,x,sounds/animalfarm_english.wav,,,,,,,,,0,1,1,1,0,130,130,128,853.983737269,9.62160993367e-06,854.894521403,0.910795038333,,,,,x,1,0.900483581121,2018_Nov_27_1533,59.9855326084,spanish_cond2,001,1052,
images/swallow.jpg,mattress,x,sounds/animalfarm_english.wav,,,,,,,,,0,1,1,1,0,131,131,202,855.994708447,8.98016151041e-06,857.12841358,1.13371507521,,,,,x,1,1.11718839209,2018_Nov_27_1533,59.9855326084,spanish_cond2,001,1052,
images/shotglass.jpg,shot glass,z,sounds/animalfarm_english.wav,,,,,,,,,0,1,1,1,0,132,132,86,858.235321945,9.94233414531e-06,858.945511657,0.7102002959,,,,,z,1,0.700418988126,2018_Nov_27_1533,59.9855326084,spanish_cond2,001,1052,
images/atm.jpg,atm,z,sounds/animalfarm_english.wav,,,,,,,,,0,1,1,1,0,133,133,96,860.082827452,9.62160993367e-06,860.77931121,0.696494021104,,,,,z,1,0.683769148658,2018_Nov_27_1533,59.9855326084,spanish_cond2,001,1052,
images/battery03b.jpg,battery,z,sounds/animalfarm_english.wav,,,,,,,,,0,1,1,1,0,134,134,34,861.886920989,9.62149351835e-06,862.496387414,0.609476367361,,,,,z,1,0.600406095269,2018_Nov_27_1533,59.9855326084,spanish_cond2,001,1052,
images/handfan01b.jpg,handfan,z,sounds/animalfarm_english.wav,,,,,,,,,0,1,1,1,0,135,135,69,863.608985666,9.30088572204e-06,864.313506659,0.704531576135,,,,,z,1,0.683757281979,2018_Nov_27_1533,59.9855326084,spanish_cond2,001,1052,
images/cherry01.jpg,highlighter,x,sounds/animalfarm_english.wav,,,,,,,,,0,1,1,1,0,136,136,187,865.420724518,9.30088572204e-06,866.230650022,0.809935445548,,,,,x,1,0.800463311607,2018_Nov_27_1533,59.9855326084,spanish_cond2,001,1052,
images/beermug01b.jpg,beer mug,z,sounds/animalfarm_english.wav,,,,,,,,,0,1,1,1,0,137,137,111,867.346958359,9.30088572204e-06,868.581226419,1.23427800229,,,,,z,1,1.21722405602,2018_Nov_27_1533,59.9855326084,spanish_cond2,001,1052,
images/pictureframe04.jpg,picture frame,z,sounds/animalfarm_english.wav,,,,,,,,,0,1,1,1,0,138,138,41,869.701151512,8.98016151041e-06,870.815135594,1.11399402434,,,,,z,1,1.10053470382,2018_Nov_27_1533,59.9855326084,spanish_cond2,001,1052,
images/grandpiano.jpg,tulip,x,sounds/animalfarm_english.wav,,,,,,,,,0,1,1,1,0,139,139,236,871.928219737,8.98016151041e-06,872.8489465,0.920736385044,,,,,x,1,0.900432265946,2018_Nov_27_1533,59.9855326084,spanish_cond2,001,1052,
images/ruler02b.jpg,watermelon,x,sounds/animalfarm_english.wav,,,,,,,,,0,1,1,1,0,140,140,238,873.949579986,9.30088572204e-06,875.249544578,1.29997517634,,,,,x,1,1.28390359425,2018_Nov_27_1533,59.9855326084,spanish_cond2,001,1052,
images/lightbulb03b.jpg,treadmill,x,sounds/animalfarm_english.wav,,,,,,,,,0,1,1,1,0,141,141,234,876.350348686,9.30088572204e-06,877.233356575,0.883018151508,,,,,x,1,0.867134511122,2018_Nov_27_1533,59.9855326084,spanish_cond2,001,1052,
images/redfox.jpg,red fox,z,sounds/animalfarm_english.wav,,,,,,,,,0,1,1,1,0,142,142,1,878.345596263,8.65943729877e-06,879.167182491,0.821596491034,,,,,z,1,0.800470688147,2018_Nov_27_1533,59.9855326084,spanish_cond2,001,1052,
images/calculator02b.jpg,dice,x,sounds/animalfarm_english.wav,,,,,,,,,0,1,1,1,0,143,143,165,880.266939129,8.98016151041e-06,881.467747791,1.20081860479,,,,,x,1,1.18389583286,2018_Nov_27_1533,59.9855326084,spanish_cond2,001,1052,
images/treadmill.jpg,lily,x,sounds/animalfarm_english.wav,,,,,,,,,0,1,1,1,0,144,144,199,882.572004126,8.98016151041e-06,883.534917389,0.962923526298,,,,,x,1,0.950494998717,2018_Nov_27_1533,59.9855326084,spanish_cond2,001,1052,
images/triangleruler02.jpg,bottle of red wine,x,sounds/animalfarm_english.wav,,,,,,,,,0,1,1,1,0,145,145,134,884.644352063,9.62160993367e-06,885.518739649,0.874398490414,,,,,x,1,0.850464786869,2018_Nov_27_1533,59.9855326084,spanish_cond2,001,1052,
images/highlighter03b.jpg,coin,x,sounds/animalfarm_english.wav,,,,,,,,,0,1,1,1,0,146,146,156,886.619035737,9.30088572204e-06,887.435876277,0.816850802512,,,,,x,1,0.800455614342,2018_Nov_27_1533,59.9855326084,spanish_cond2,001,1052,
images/hairband.jpg,hairband,z,sounds/animalfarm_english.wav,,,,,,,,,0,1,1,1,0,147,147,66,888.544044108,8.98016151041e-06,889.353016112,0.808981946087,,,,,z,1,0.800458821468,2018_Nov_27_1533,59.9855326084,spanish_cond2,001,1052,
images/eraser.jpg,eraser,z,sounds/animalfarm_english.wav,,,,,,,,,0,1,1,1,0,148,148,110,890.458158274,8.65943729877e-06,891.220161848,0.762013195665,,,,,z,1,0.750463119242,2018_Nov_27_1533,59.9855326084,spanish_cond2,001,1052,
images/crocodile.jpg,triangle ruler,x,sounds/animalfarm_english.wav,,,,,,,,,0,1,1,1,0,149,149,235,892.316037778,8.98016151041e-06,893.170668713,0.85464087734,,,,,x,1,0.833838359802,2018_Nov_27_1533,59.9855326084,spanish_cond2,001,1052,
images/sock03.jpg,sock,z,sounds/animalfarm_english.wav,,,,,,,,,0,1,1,1,0,150,150,90,894.276108183,9.30088572204e-06,895.254477567,0.97837964748,,,,,x,0,0.967165685026,2018_Nov_27_1533,59.9855326084,spanish_cond2,001,1052,
images/doorhandle.jpg,doll,x,sounds/animalfarm_english.wav,,,,,,,,,0,1,1,1,0,151,151,168,896.356061986,8.98016151041e-06,897.455013618,1.09896157391,,,,,x,1,1.08385054721,2018_Nov_27_1533,59.9855326084,spanish_cond2,001,1052,
images/corkscrew02a.jpg,masquerade mask,x,sounds/animalfarm_english.wav,,,,,,,,,0,1,1,1,0,152,152,201,898.557270907,9.62149351835e-06,899.655564422,1.09830409859,,,,,x,1,1.08386337594,2018_Nov_27_1533,59.9855326084,spanish_cond2,001,1052,
images/bat.jpg,hand,x,sounds/animalfarm_english.wav,,,,,,,,,0,1,1,1,0,153,153,185,900.751651706,9.30076930672e-06,902.222868401,1.47122695786,,,,,x,1,1.45062777656,2018_Nov_27_1533,59.9855326084,spanish_cond2,001,1052,
images/rubberglove02a.jpg,lady bug,x,sounds/animalfarm_english.wav,,,,,,,,,0,1,1,1,0,154,154,192,903.325585923,9.30088572204e-06,904.306708365,0.981132704765,,,,,x,1,0.967159912107,2018_Nov_27_1533,59.9855326084,spanish_cond2,001,1052,
images/bottleofredwine02.jpg,pipe,x,sounds/animalfarm_english.wav,,,,,,,,,0,1,1,1,0,155,155,213,905.404139464,9.62160993367e-06,906.273867635,0.869738433859,,,,,x,1,0.850478577893,2018_Nov_27_1533,59.9855326084,spanish_cond2,001,1052,
images/bull.jpg,button,x,sounds/animalfarm_english.wav,,,,,,,,,0,1,1,1,0,156,156,141,907.377979967,9.62149351835e-06,908.224340183,0.846370800631,,,,,x,1,0.833803722169,2018_Nov_27_1533,59.9855326084,spanish_cond2,001,1052,
images/pingpongpaddle01c (1).jpg,ping pong paddle,z,sounds/animalfarm_english.wav,,,,,,,,,0,1,1,1,0,157,157,10,909.333705261,9.62160993367e-06,910.058115682,0.724420684157,,,,,z,1,0.700427647564,2018_Nov_27_1533,59.9855326084,spanish_cond2,001,1052,
images/backpack01b.jpg,swallow,x,sounds/animalfarm_english.wav,,,,,,,,,0,1,1,1,0,158,158,228,911.190097589,9.62149351835e-06,912.275365075,1.08527742885,,,,,x,1,1.0672096879,2018_Nov_27_1533,59.9855326084,spanish_cond2,001,1052,
images/mushroom01.jpg,shower head,x,sounds/animalfarm_english.wav,,,,,,,,,0,1,1,1,0,159,159,222,913.390190405,9.30076930672e-06,914.392525565,1.00234542275,,,,,x,1,0.983772548148,2018_Nov_27_1533,59.9855326084,spanish_cond2,001,1052,
images/tulip02.jpg,sport shorts,x,sounds/animalfarm_english.wav,,,,,,,,,0,1,1,1,0,160,160,225,915.48514587,9.30088572204e-06,916.626422873,1.14128726604,,,,,x,1,1.1172105216,2018_Nov_27_1533,59.9855326084,spanish_cond2,001,1052,
images/marker01a.jpg,marker,z,sounds/animalfarm_english.wav,,,,,,,,,0,1,1,1,0,161,161,95,917.72320644,8.98016151041e-06,918.6602697,0.937073523062,,,,,z,1,0.917179925018,2018_Nov_27_1533,59.9855326084,spanish_cond2,001,1052,
images/apricot.jpg,apricot,z,sounds/animalfarm_english.wav,,,,,,,,,0,1,1,1,0,162,162,32,919.776682912,8.98016151041e-06,920.577388367,0.800715397228,,,,,z,1,0.783781079343,2018_Nov_27_1533,59.9855326084,spanish_cond2,001,1052,
images/coin01b.jpg,arrow,x,sounds/animalfarm_english.wav,,,,,,,,,0,1,1,1,0,163,163,124,921.67885412,9.94233414531e-06,922.711246483,1.03240294708,,,,,x,1,1.0171767819,2018_Nov_27_1533,59.9855326084,spanish_cond2,001,1052,
images/gamecontroller01.jpg,game controller,z,sounds/animalfarm_english.wav,,,,,,,,,0,1,1,1,0,164,164,112,923.829851173,8.98016151041e-06,924.645057325,0.815216094488,,,,,z,1,0.800456576399,2018_Nov_27_1533,59.9855326084,spanish_cond2,001,1052,
images/hairpin.jpg,hair pin,z,sounds/animalfarm_english.wav,,,,,,,,,0,1,1,1,0,165,165,28,925.734293718,8.98016151041e-06,926.495513132,0.761229677591,,,,,z,1,0.750445800368,2018_Nov_27_1533,59.9855326084,spanish_cond2,001,1052,
images/carrot02.jpg,corkscrew,x,sounds/animalfarm_english.wav,,,,,,,,,0,1,1,1,0,166,166,161,927.597263043,8.98016151041e-06,928.429328464,0.832075043232,,,,,x,1,0.817133035744,2018_Nov_27_1533,59.9855326084,spanish_cond2,001,1052,
images/flipflop01b.jpg,flip flop,z,sounds/animalfarm_english.wav,,,,,,,,,0,1,1,1,0,167,167,27,929.545144176,3.62412538379e-05,930.513179012,0.968064020737,,,,,z,1,0.95050109236,2018_Nov_27_1533,59.9855326084,spanish_cond2,001,1052,
images/clothespin02a.jpg,clothes pin,z,sounds/animalfarm_english.wav,,,,,,,,,0,1,1,1,0,168,168,79,931.616140922,9.30088572204e-06,932.497177026,0.881087739952,,,,,z,1,0.867261516047,2018_Nov_27_1533,59.9855326084,spanish_cond2,001,1052,
images/lily.jpg,kiwi,x,sounds/animalfarm_english.wav,,,,,,,,,0,1,1,1,0,169,169,190,933.596416022,8.98016151041e-06,934.430844185,0.834439067752,,,,,x,1,0.817165749148,2018_Nov_27_1533,59.9855326084,spanish_cond2,001,1052,
images/key03b.jpg,cigar,x,sounds/animalfarm_english.wav,,,,,,,,,0,1,1,1,0,170,170,153,935.530457462,8.98016151041e-06,936.4312964,0.900848880759,,,,,x,1,0.883811291074,2018_Nov_27_1533,59.9855326084,spanish_cond2,001,1052,
images/pipe.jpg,icecube,x,sounds/animalfarm_english.wav,,,,,,,,,0,1,1,1,0,171,171,188,937.538186805,9.62149351835e-06,938.465146755,0.926970533561,,,,,x,1,0.917153625982,2018_Nov_27_1533,59.9855326084,spanish_cond2,001,1052,
images/lollipop03b.jpg,lollipop,z,sounds/animalfarm_english.wav,,,,,,,,,0,1,1,1,0,172,172,42,939.556151595,8.98004509509e-06,940.398937712,0.842796380166,,,,,z,1,0.833791214158,2018_Nov_27_1533,59.9855326084,spanish_cond2,001,1052,
images/toothbrush03a.jpg,parrot,x,sounds/animalfarm_english.wav,,,,,,,,,0,1,1,1,0,173,173,210,941.490090404,9.30088572204e-06,942.632652852,1.14257303113,,,,,x,1,1.1337000014,2018_Nov_27_1533,59.9855326084,spanish_cond2,001,1052,
images/egg01b (1).jpg,egg,z,sounds/animalfarm_english.wav,,,,,,,,,0,1,1,1,0,174,174,19,943.74384539,9.62149351835e-06,944.449937909,0.706103102304,,,,,z,1,0.683755357633,2018_Nov_27_1533,59.9855326084,spanish_cond2,001,1052,
images/drink.jpg,drink,z,sounds/animalfarm_english.wav,,,,,,,,,0,1,1,1,0,175,175,117,945.548171128,8.98016151041e-06,946.31710353,0.768942664261,,,,,z,1,0.750469854334,2018_Nov_27_1533,59.9855326084,spanish_cond2,001,1052,
images/screwdriver02b.jpg,cola,x,sounds/animalfarm_english.wav,,,,,,,,,0,1,1,1,0,176,176,158,947.409060907,9.30088572204e-06,948.184014499,0.774964175536,,,,,x,1,0.766912188265,2018_Nov_27_1533,59.9855326084,spanish_cond2,001,1052,
images/cauliflower01.jpg,glue stick,x,sounds/animalfarm_english.wav,,,,,,,,,0,1,1,1,0,177,177,181,949.29891616,8.98016151041e-06,950.101337786,0.802431247314,,,,,x,1,0.783790380228,2018_Nov_27_1533,59.9855326084,spanish_cond2,001,1052,
images/pepper05a.jpg,lighter,x,sounds/animalfarm_english.wav,,,,,,,,,0,1,1,1,0,178,178,198,951.220864865,9.30088572204e-06,952.051813862,0.830959259649,,,,,x,1,0.817129187053,2018_Nov_27_1533,59.9855326084,spanish_cond2,001,1052,
images/graduationcap.jpg,graduation cap,z,sounds/animalfarm_english.wav,,,,,,,,,0,1,1,1,0,179,179,35,953.152658381,9.30088572204e-06,954.135501484,0.982854007161,,,,,z,1,0.966997627984,2018_Nov_27_1533,59.9855326084,spanish_cond2,001,1052,
images/dice05a.jpg,band aid,x,sounds/animalfarm_english.wav,,,,,,,,,0,1,1,1,0,180,180,126,955.247070547,9.30088572204e-06,956.8029986,1.55593831663,,,,,x,1,1.53397639759,2018_Nov_27_1533,59.9855326084,spanish_cond2,001,1052,
images/leek.jpg,donut,x,sounds/animalfarm_english.wav,,,,,,,,,0,1,1,1,0,181,181,169,957.902198469,9.30088572204e-06,958.970191996,1.06800378964,,,,,x,1,1.05051847536,2018_Nov_27_1533,59.9855326084,spanish_cond2,001,1052,
images/globe.jpg,cloud,x,sounds/animalfarm_english.wav,,,,,,,,,0,1,1,1,0,182,182,154,960.096663618,9.62160993367e-06,961.287428624,1.1907755899,,,,,x,1,1.16720494104,2018_Nov_27_1533,59.9855326084,spanish_cond2,001,1052,
images/pouch01b.jpg,pouch,z,sounds/animalfarm_english.wav,,,,,,,,,0,1,1,1,0,183,183,25,962.397737259,9.30088572204e-06,963.371273077,0.973546723137,,,,,z,1,0.950495960773,2018_Nov_27_1533,59.9855326084,spanish_cond2,001,1052,
images/cigar.jpg,crocodile,x,sounds/animalfarm_english.wav,,,,,,,,,0,1,1,1,0,184,184,162,964.468251321,9.62160993367e-06,965.871913554,1.40367313789,,,,,x,1,1.38395208702,2018_Nov_27_1533,59.9855326084,spanish_cond2,001,1052,
images/dresser02.jpg,dresser,z,sounds/animalfarm_english.wav,,,,,,,,,0,1,1,1,0,185,185,87,966.992701383,9.30076930672e-06,967.87239303,0.879701910308,,,,,z,1,0.867058821255,2018_Nov_27_1533,59.9855326084,spanish_cond2,001,1052,
images/cat.jpg,black olive,x,sounds/animalfarm_english.wav,,,,,,,,,0,1,1,1,0,186,186,133,969.001840289,9.30088572204e-06,970.056251018,1.05442067131,,,,,x,1,1.03384073323,2018_Nov_27_1533,59.9855326084,spanish_cond2,001,1052,
images/headphones02b.jpg,headphones,z,sounds/animalfarm_english.wav,,,,,,,,,0,1,1,1,0,187,187,101,971.162442254,8.98016151041e-06,971.856710481,0.694278169191,,,,,z,1,0.683765941416,2018_Nov_27_1533,59.9855326084,spanish_cond2,001,1052,
images/diaper01a.jpg,camera,x,sounds/animalfarm_english.wav,,,,,,,,,0,1,1,1,0,188,188,143,972.975446346,9.30088572204e-06,973.89052684,0.915090436465,,,,,x,1,0.900475242408,2018_Nov_27_1533,59.9855326084,spanish_cond2,001,1052,
images/skateboard.jpg,key,x,sounds/animalfarm_english.wav,,,,,,,,,0,1,1,1,0,189,189,189,974.980097743,8.98004509509e-06,975.824554809,0.84446732956,,,,,x,1,0.834011227707,2018_Nov_27_1533,59.9855326084,spanish_cond2,001,1052,
images/notebook02b.jpg,notebook,z,sounds/animalfarm_english.wav,,,,,,,,,0,1,1,1,0,190,190,7,976.930421156,8.98016151041e-06,977.708139031,0.777727816836,,,,,z,1,0.767111996538,2018_Nov_27_1533,59.9855326084,spanish_cond2,001,1052,
images/electricguitar02.jpg,electric guitar,z,sounds/animalfarm_english.wav,,,,,,,,,0,1,1,1,0,191,191,100,978.808709334,8.98016151041e-06,979.558597083,0.749897690373,,,,,z,1,0.733773189597,2018_Nov_27_1533,59.9855326084,spanish_cond2,001,1052,
images/puma.jpg,puma,z,sounds/animalfarm_english.wav,,,,,,,,,0,1,1,1,0,192,192,4,980.655846334,9.30088572204e-06,981.39238092,0.736544848769,,,,,z,1,0.717086788034,2018_Nov_27_1533,59.9855326084,spanish_cond2,001,1052,
images/arrow02.jpg,hammer,x,sounds/animalfarm_english.wav,,,,,,,,,0,1,1,1,0,193,193,184,982.489165449,8.98016151041e-06,983.292851352,0.803695844952,,,,,x,1,0.783778834273,2018_Nov_27_1533,59.9855326084,spanish_cond2,001,1052,
images/safe.jpg,safe,z,sounds/animalfarm_english.wav,,,,,,,,,0,1,1,1,0,194,194,78,984.402270952,9.62149351835e-06,985.076650391,0.674391626846,,,,,z,1,0.650416550692,2018_Nov_27_1533,59.9855326084,spanish_cond2,001,1052,
images/bed.jpg,bed,z,sounds/animalfarm_english.wav,,,,,,,,,0,1,1,1,0,195,195,103,986.194524161,9.62160993367e-06,987.010448725,0.815935147926,,,,,z,1,0.800461707986,2018_Nov_27_1533,59.9855326084,spanish_cond2,001,1052,
images/fireextinguisher02.jpg,fire extinguisher,x,sounds/animalfarm_english.wav,,,,,,,,,0,1,1,1,0,196,196,175,988.120128429,9.30088572204e-06,990.061210306,1.94109246088,,,,,z,0,1.91738294053,2018_Nov_27_1533,59.9855326084,spanish_cond2,001,1052,
images/cola.jpg,comb,x,sounds/animalfarm_english.wav,,,,,,,,,0,1,1,1,0,197,197,157,991.180897104,9.30088572204e-06,993.278651489,2.09776496899,,,,,x,1,2.0841023121,2018_Nov_27_1533,59.9855326084,spanish_cond2,001,1052,
images/volleyball.jpg,volley ball,z,sounds/animalfarm_english.wav,,,,,,,,,0,1,1,1,0,198,198,2,994.409451864,8.98016151041e-06,995.162452838,0.75301027461,,,,,z,1,0.733774472494,2018_Nov_27_1533,59.9855326084,spanish_cond2,001,1052,
images/bowtie.jpg,bowtie,z,sounds/animalfarm_english.wav,,,,,,,,,0,1,1,1,0,199,199,89,996.271456786,9.94233414531e-06,997.0462513,0.774804778048,,,,,z,1,0.750450931839,2018_Nov_27_1533,59.9855326084,spanish_cond2,001,1052,
images/hand01a.jpg,cupcake,x,sounds/animalfarm_english.wav,,,,,,,,,0,1,1,1,0,200,200,163,998.156651982,9.30076930672e-06,999.096770738,0.940128698363,,,,,x,1,0.917168058339,2018_Nov_27_1533,59.9855326084,spanish_cond2,001,1052,
images/banjo.jpg,knife,x,sounds/animalfarm_english.wav,,,,,,,,,0,1,1,1,0,201,201,191,1000.19202864,9.30088572204e-06,1001.58070814,1.38868975767,,,,,x,1,1.36726536462,2018_Nov_27_1533,59.9855326084,spanish_cond2,001,1052,
images/sportshorts02.jpg,tape,x,sounds/animalfarm_english.wav,,,,,,,,,0,1,1,1,0,202,202,230,1002.68714921,8.98016151041e-06,1003.76442116,1.07728220895,,,,,x,1,1.06703938567,2018_Nov_27_1533,59.9855326084,spanish_cond2,001,1052,
images/paperclip04.jpg,eye drops,x,sounds/animalfarm_english.wav,,,,,,,,,0,1,1,1,0,203,203,174,1004.87013581,9.30088572204e-06,1006.49858338,1.6284578389,,,,,x,1,1.61733367795,2018_Nov_27_1533,59.9855326084,spanish_cond2,001,1052,
images/panda.jpg,panda,z,sounds/animalfarm_english.wav,,,,,,,,,0,1,1,1,0,204,204,83,1007.60641959,8.65943729877e-06,1008.36574323,0.759333903785,,,,,z,1,0.750485248864,2018_Nov_27_1533,59.9855326084,spanish_cond2,001,1052,
images/lip.jpg,boxing glove,x,sounds/animalfarm_english.wav,,,,,,,,,0,1,1,1,0,205,205,136,1009.4678331,8.98016151041e-06,1010.61626825,1.14844444557,,,,,x,1,1.1337705598,2018_Nov_27_1533,59.9855326084,spanish_cond2,001,1052,
images/banana04a.jpg,banana,z,sounds/animalfarm_english.wav,,,,,,,,,0,1,1,1,0,206,206,118,1011.72240913,9.62160993367e-06,1012.66676235,0.94436348055,,,,,z,1,0.933801220614,2018_Nov_27_1533,59.9855326084,spanish_cond2,001,1052,
images/dolphin01.jpg,dolphin,z,sounds/animalfarm_english.wav,,,,,,,,,0,1,1,1,0,207,207,99,1013.76558377,8.98016151041e-06,1014.53389044,0.768317581736,,,,,z,1,0.750444517354,2018_Nov_27_1533,59.9855326084,spanish_cond2,001,1052,
images/icecube02 (2).jpg,aloe,x,sounds/animalfarm_english.wav,,,,,,,,,0,1,1,1,0,208,208,122,1015.64342582,9.30088572204e-06,1016.6844247,1.04100913787,,,,,x,1,1.01717806479,2018_Nov_27_1533,59.9855326084,spanish_cond2,001,1052,
images/lightswitch02a.jpg,fork,x,sounds/animalfarm_english.wav,,,,,,,,,0,1,1,1,0,209,209,177,1017.79614418,9.30088572204e-06,1018.81828666,1.02215242654,,,,,x,1,1.00050801993,2018_Nov_27_1533,59.9855326084,spanish_cond2,001,1052,
images/nametag01a.jpg,name tag,z,sounds/animalfarm_english.wav,,,,,,,,,0,1,1,1,0,210,210,108,1019.9377945,9.62160993367e-06,1020.75230469,0.814520774293,,,,,z,1,0.800655102008,2018_Nov_27_1533,59.9855326084,spanish_cond2,001,1052,
images/pineapple01a.jpg,pineapple,z,sounds/animalfarm_english.wav,,,,,,,,,0,1,1,1,0,211,211,51,1021.86370441,9.62160993367e-06,1022.75261002,0.888915544259,,,,,z,1,0.867163696676,2018_Nov_27_1533,59.9855326084,spanish_cond2,001,1052,
images/spoon02b.jpg,spoon,z,sounds/animalfarm_english.wav,,,,,,,,,0,1,1,1,0,212,212,38,1023.84330857,8.98016151041e-06,1024.60305299,0.759754367289,,,,,z,1,0.750453497632,2018_Nov_27_1533,59.9855326084,spanish_cond2,001,1052,
images/kiwi03.jpg,backpack,x,sounds/animalfarm_english.wav,,,,,,,,,0,1,1,1,0,213,213,125,1025.73000538,9.30088572204e-06,1026.58686659,0.856871482451,,,,,x,1,0.83379794925,2018_Nov_27_1533,59.9855326084,spanish_cond2,001,1052,
images/gps.jpg,gps,z,sounds/animalfarm_english.wav,,,,,,,,,0,1,1,1,0,214,214,21,1027.70351105,8.98016151041e-06,1028.57069334,0.867192561389,,,,,z,1,0.8504760121,2018_Nov_27_1533,59.9855326084,spanish_cond2,001,1052,
images/fryingpan01.jpg,frying pan,z,sounds/animalfarm_english.wav,,,,,,,,,0,1,1,1,0,215,215,45,1029.6696748,8.98016151041e-06,1030.55452106,0.884856195771,,,,,z,1,0.867147981306,2018_Nov_27_1533,59.9855326084,spanish_cond2,001,1052,
images/chessknight02b (1).jpg,cockroach,x,sounds/animalfarm_english.wav,,,,,,,,,0,1,1,1,0,216,216,155,1031.66185213,8.98016151041e-06,1032.52168257,0.859840705059,,,,,x,1,0.850460296846,2018_Nov_27_1533,59.9855326084,spanish_cond2,001,1052,
images/daisy.jpg,daisy,z,sounds/animalfarm_english.wav,,,,,,,,,0,1,1,1,0,217,217,6,1033.62349534,8.98016151041e-06,1034.45548155,0.83199614624,,,,,z,1,0.817134318757,2018_Nov_27_1533,59.9855326084,spanish_cond2,001,1052,
images/tank.jpg,wallet,x,sounds/animalfarm_english.wav,,,,,,,,,0,1,1,1,0,218,218,237,1035.55874109,8.65943729877e-06,1036.33927424,0.780543414527,,,,,x,1,0.767117448733,2018_Nov_27_1533,59.9855326084,spanish_cond2,001,1052,
images/baseball01a.jpg,baseball,z,sounds/animalfarm_english.wav,,,,,,,,,0,1,1,1,0,219,219,74,1037.47007622,8.98016151041e-06,1038.18972203,0.719656073023,,,,,z,1,0.700428289012,2018_Nov_27_1533,59.9855326084,spanish_cond2,001,1052,
images/bowl02b (1).jpg,bowl,z,sounds/animalfarm_english.wav,,,,,,,,,0,1,1,1,0,220,220,24,1039.30567789,8.65943729877e-06,1040.05686327,0.75119532214,,,,,z,1,0.733783452655,2018_Nov_27_1533,59.9855326084,spanish_cond2,001,1052,
images/radish01.jpg,raisin,x,sounds/animalfarm_english.wav,,,,,,,,,0,1,1,1,0,221,221,214,1041.16598396,9.30088572204e-06,1042.25740285,1.09142947313,,,,,x,1,1.06717537076,2018_Nov_27_1533,59.9855326084,spanish_cond2,001,1052,
images/showerhead01.jpg,skateboard,x,sounds/animalfarm_english.wav,,,,,,,,,0,1,1,1,0,222,222,223,1043.36336638,8.98016151041e-06,1044.17454493,0.811188817956,,,,,x,1,0.80046812247,2018_Nov_27_1533,59.9855326084,spanish_cond2,001,1052,
images/paintbrush03a.jpg,paint brush,z,sounds/animalfarm_english.wav,,,,,,,,,0,1,1,1,0,223,223,0,1045.27317103,8.65943729877e-06,1046.00833743,0.735176337999,,,,,z,1,0.717110521276,2018_Nov_27_1533,59.9855326084,spanish_cond2,001,1052,
