images,name,corrAns,sounds,trials_3.thisRepN,trials_3.thisTrialN,trials_3.thisN,trials_3.thisIndex,trials_4.thisRepN,trials_4.thisTrialN,trials_4.thisN,trials_4.thisIndex,trials_2.thisRepN,trials_2.thisTrialN,trials_2.thisN,trials_2.thisIndex,trials.thisRepN,trials.thisTrialN,trials.thisN,trials.thisIndex,begin_global,begin_routine,end_global,end_routine,key_resp_2.keys,key_resp_2.corr,key_resp_2.rt,begin_book,key_resp_1.keys,key_resp_1.corr,key_resp_1.rt,date,frameRate,expName,session,participant,
images/volleyball.jpg,volley ball,z,,0,0,0,0,,,,,,,,,,,,,,,,,,,,,,,,2018_Nov_27_1533,59.9890718773,spanish_cond2,001,1054,
images/puma.jpg,puma,z,,,,,,0,0,0,0,,,,,,,,,48.1524648188,9.94221772999e-06,49.7787439248,1.62629033113,z,1,1.61728262808,,,,,2018_Nov_27_1533,59.9890718773,spanish_cond2,001,1054,
images/key03b.jpg,cigar,x,sounds/greatgatsby_spanish.wav,,,,,,,,,0,0,0,0,0,0,0,153,91.9580407043,9.62160993367e-06,93.5894057661,1.63137500407,,,,81.7778760602,x,1,1.61728936329,2018_Nov_27_1533,59.9890718773,spanish_cond2,001,1054,
images/gluestick.jpg,squirrel,x,sounds/greatgatsby_spanish.wav,,,,,,,,,0,0,0,0,0,1,1,226,94.7040479179,9.30088572204e-06,95.7065809536,1.00254297792,,,,,x,1,0.983732189634,2018_Nov_27_1533,59.9890718773,spanish_cond2,001,1054,
images/lantern03.jpg,lantern,z,sounds/greatgatsby_spanish.wav,,,,,,,,,0,0,0,0,0,2,2,5,96.8157083488,8.98004509509e-06,97.7070703701,0.891371322214,,,,,z,1,0.867102223914,2018_Nov_27_1533,59.9890718773,spanish_cond2,001,1054,
images/hand01a.jpg,cupcake,x,sounds/greatgatsby_spanish.wav,,,,,,,,,0,0,0,0,0,3,3,163,98.8196817316,8.98016151041e-06,99.8575983692,1.03792657983,,,,,x,1,1.01714016485,2018_Nov_27_1533,59.9890718773,spanish_cond2,001,1054,
images/handbag02a.jpg,candle,x,sounds/greatgatsby_spanish.wav,,,,,,,,,0,0,0,0,0,4,4,144,100.975112877,8.65943729877e-06,102.724955885,1.74985230912,,,,,x,1,1.73398186918,2018_Nov_27_1533,59.9890718773,spanish_cond2,001,1054,
images/lighter02b.jpg,stapler,x,sounds/greatgatsby_spanish.wav,,,,,,,,,0,0,0,0,0,5,5,227,103.827712526,9.30088572204e-06,105.008849268,1.18114700529,,,,,x,1,1.16717425734,2018_Nov_27_1533,59.9890718773,spanish_cond2,001,1054,
images/ladder.jpg,ladder,z,sounds/greatgatsby_spanish.wav,,,,,,,,,0,0,0,0,0,6,6,113,106.102472484,8.65943729877e-06,108.176290042,2.07382685947,,,,,z,1,2.05072934623,2018_Nov_27_1533,59.9890718773,spanish_cond2,001,1054,
images/carrot02.jpg,corkscrew,x,sounds/greatgatsby_spanish.wav,,,,,,,,,0,0,0,0,0,7,7,161,109.279356497,8.98004509509e-06,110.426836707,1.14748951083,,,,,x,1,1.133837161,2018_Nov_27_1533,59.9890718773,spanish_cond2,001,1054,
images/leaf01a.jpg,leaf,z,sounds/greatgatsby_spanish.wav,,,,,,,,,0,0,0,0,0,8,8,68,111.530262367,9.30088572204e-06,112.5440321,1.01377967536,,,,,z,1,1.00048043649,2018_Nov_27_1533,59.9890718773,spanish_cond2,001,1054,
images/doorhandle.jpg,doll,x,sounds/greatgatsby_spanish.wav,,,,,,,,,0,0,0,0,0,9,9,168,113.647756349,8.98016151041e-06,115.428059928,1.78031384246,,,,,x,1,1.76732730423,2018_Nov_27_1533,59.9890718773,spanish_cond2,001,1054,
images/cigar.jpg,crocodile,x,sounds/greatgatsby_spanish.wav,,,,,,,,,0,0,0,0,0,10,10,162,116.527034334,9.62160993367e-06,118.4788005,1.95177674911,,,,,x,1,1.93403042597,2018_Nov_27_1533,59.9890718773,spanish_cond2,001,1054,
images/battery03b.jpg,battery,z,sounds/greatgatsby_spanish.wav,,,,,,,,,0,0,0,0,0,11,11,34,119.588422122,8.98016151041e-06,120.67933719,1.09092436882,,,,,z,1,1.06714917708,2018_Nov_27_1533,59.9890718773,spanish_cond2,001,1054,
images/lily.jpg,kiwi,x,sounds/greatgatsby_spanish.wav,,,,,,,,,0,0,0,0,0,12,12,190,121.780433791,9.30088572204e-06,122.913210977,1.13278712821,,,,,x,1,1.11716556584,2018_Nov_27_1533,59.9890718773,spanish_cond2,001,1054,
images/saltshaker03c.jpg,salt shaker,z,sounds/greatgatsby_spanish.wav,,,,,,,,,0,0,0,0,0,13,13,63,124.025529843,8.98004509509e-06,125.830833759,1.80531353771,,,,,z,1,1.78424136247,2018_Nov_27_1533,59.9890718773,spanish_cond2,001,1054,
images/mitten01.jpg,mitten,z,sounds/greatgatsby_spanish.wav,,,,,,,,,0,0,0,0,0,14,14,102,126.951990348,9.62160993367e-06,129.464806905,2.51282649965,,,,,z,1,2.50083739636,2018_Nov_27_1533,59.9890718773,spanish_cond2,001,1054,
images/radish01.jpg,raisin,x,sounds/greatgatsby_spanish.wav,,,,,,,,,0,0,0,0,0,15,15,214,130.576239946,8.98016151041e-06,133.365746546,2.78951686306,,,,,x,1,2.76754411007,2018_Nov_27_1533,59.9890718773,spanish_cond2,001,1054,
images/dice05a.jpg,band aid,x,sounds/greatgatsby_spanish.wav,,,,,,,,,0,0,0,0,0,16,16,126,134.479226414,9.30076930672e-06,135.349567896,0.870351424208,,,,,x,1,0.85042934597,2018_Nov_27_1533,59.9890718773,spanish_cond2,001,1054,
images/ear.jpg,bullet,x,sounds/greatgatsby_spanish.wav,,,,,,,,,0,0,0,0,0,17,17,139,136.454426205,9.62160993367e-06,137.700138679,1.24572305696,,,,,x,1,1.2338397908,2018_Nov_27_1533,59.9890718773,spanish_cond2,001,1054,
images/parkfountain.jpg,park fountain,z,sounds/greatgatsby_spanish.wav,,,,,,,,,0,0,0,0,0,18,18,93,138.821026826,8.65943729877e-06,140.584192164,1.76317496039,,,,,z,1,1.75066533079,2018_Nov_27_1533,59.9890718773,spanish_cond2,001,1054,
images/computerkeyboard01a.jpg,computer keyboard,z,sounds/greatgatsby_spanish.wav,,,,,,,,,0,0,0,0,0,19,19,61,141.702474152,9.30088572204e-06,142.701357089,0.998892879346,,,,,z,1,0.983794409083,2018_Nov_27_1533,59.9890718773,spanish_cond2,001,1054,
images/nailpolish02b.jpg,nail polish,z,sounds/greatgatsby_spanish.wav,,,,,,,,,0,0,0,0,0,20,20,94,143.8108578,8.98004509509e-06,145.552055838,1.74120765948,,,,,z,1,1.71730642545,2018_Nov_27_1533,59.9890718773,spanish_cond2,001,1054,
images/aloe02.jpg,broad sword,x,sounds/greatgatsby_spanish.wav,,,,,,,,,0,0,0,0,0,21,21,137,146.673124871,8.65932088345e-06,149.219625862,2.5465102928,,,,,x,1,2.53418411431,2018_Nov_27_1533,59.9890718773,spanish_cond2,001,1054,
images/kiwi03.jpg,backpack,x,sounds/greatgatsby_spanish.wav,,,,,,,,,0,0,0,0,0,22,22,125,150.348200352,9.30088572204e-06,152.803816423,2.45562601392,,,,,x,1,2.43413465947,2018_Nov_27_1533,59.9890718773,spanish_cond2,001,1054,
images/redfox.jpg,red fox,z,sounds/greatgatsby_spanish.wav,,,,,,,,,0,0,0,0,0,23,23,1,153.91711316,8.98016151041e-06,156.921354343,3.00425144599,,,,,None,0,,2018_Nov_27_1533,59.9890718773,spanish_cond2,001,1054,
images/comb02a.jpg,diploma,x,sounds/greatgatsby_spanish.wav,,,,,,,,,0,0,0,0,0,24,24,166,158.026760761,9.30088572204e-06,158.788745855,0.761994395172,,,,,x,1,0.750510423677,2018_Nov_27_1533,59.9890718773,spanish_cond2,001,1054,
images/grasshopper.jpg,cauliflower,x,sounds/greatgatsby_spanish.wav,,,,,,,,,0,0,0,0,0,25,25,148,159.883222504,9.62160993367e-06,160.822444723,0.939232481876,,,,,x,1,0.917125347769,2018_Nov_27_1533,59.9890718773,spanish_cond2,001,1054,
images/squirrel.jpg,binder,x,sounds/greatgatsby_spanish.wav,,,,,,,,,0,0,0,0,0,26,26,132,161.926569228,8.65932088345e-06,163.00629731,1.07973738271,,,,,x,1,1.06711550162,2018_Nov_27_1533,59.9890718773,spanish_cond2,001,1054,
images/50dollarbill.jpg,cherry,x,sounds/greatgatsby_spanish.wav,,,,,,,,,0,0,0,0,0,27,27,151,164.126760505,9.30088572204e-06,165.923681478,1.79693091533,,,,,x,1,1.78399248491,2018_Nov_27_1533,59.9890718773,spanish_cond2,001,1054,
images/rhinoceros01.jpg,envelope,x,sounds/greatgatsby_spanish.wav,,,,,,,,,0,0,0,0,0,28,28,173,167.037125745,8.98016151041e-06,168.974425256,1.9373088117,,,,,z,0,1.91735786875,2018_Nov_27_1533,59.9890718773,spanish_cond2,001,1054,
images/straw.jpg,straw,z,sounds/greatgatsby_spanish.wav,,,,,,,,,0,0,0,0,0,29,29,109,170.066714924,9.30088572204e-06,170.974902165,0.908197503653,,,,,z,1,0.883764197351,2018_Nov_27_1533,59.9890718773,spanish_cond2,001,1054,
images/showerhead01.jpg,skateboard,x,sounds/greatgatsby_spanish.wav,,,,,,,,,0,0,0,0,0,30,30,223,172.083199219,9.94233414531e-06,173.042079244,0.958890608745,,,,,x,1,0.950453784782,2018_Nov_27_1533,59.9890718773,spanish_cond2,001,1054,
images/calculator02b.jpg,dice,x,sounds/greatgatsby_spanish.wav,,,,,,,,,0,0,0,0,0,31,31,165,174.144480208,8.65943729877e-06,175.109249268,0.964778361027,,,,,x,1,0.950448653195,2018_Nov_27_1533,59.9890718773,spanish_cond2,001,1054,
images/candle08a.jpg,screw driver,x,sounds/greatgatsby_spanish.wav,,,,,,,,,0,0,0,0,0,32,32,221,176.224212139,9.30076930672e-06,178.210012643,1.98580980487,,,,,x,1,1.96737201244,2018_Nov_27_1533,59.9890718773,spanish_cond2,001,1054,
images/raisin.jpg,ruler,x,sounds/greatgatsby_spanish.wav,,,,,,,,,0,0,0,0,0,33,33,218,179.315786604,9.30076930672e-06,180.760611777,1.44483511534,,,,,x,1,1.4338761603,2018_Nov_27_1533,59.9890718773,spanish_cond2,001,1054,
images/feather03b.jpg,feather,z,sounds/greatgatsby_spanish.wav,,,,,,,,,0,0,0,0,0,34,34,114,181.861754241,8.98016151041e-06,183.094532453,1.23278847523,,,,,x,0,1.21717910015,2018_Nov_27_1533,59.9890718773,spanish_cond2,001,1054,
images/chessknight02b (1).jpg,cockroach,x,sounds/greatgatsby_spanish.wav,,,,,,,,,0,0,0,0,0,35,35,155,184.204361901,8.98016151041e-06,185.228398479,1.02404651965,,,,,x,1,1.00047273922,2018_Nov_27_1533,59.9890718773,spanish_cond2,001,1054,
images/panda.jpg,panda,z,sounds/greatgatsby_spanish.wav,,,,,,,,,0,0,0,0,0,36,36,83,186.338603168,9.62149351835e-06,187.445590087,1.1069968614,,,,,z,1,1.08382173441,2018_Nov_27_1533,59.9890718773,spanish_cond2,001,1054,
images/coffeepot03b.jpg,coffee pot,z,sounds/greatgatsby_spanish.wav,,,,,,,,,0,0,0,0,0,37,37,107,188.567866945,9.30076930672e-06,190.613033427,2.04517610336,,,,,z,1,2.03405358177,2018_Nov_27_1533,59.9890718773,spanish_cond2,001,1054,
images/envelope02a.jpg,grand piano,x,sounds/greatgatsby_spanish.wav,,,,,,,,,0,0,0,0,0,38,38,182,191.736473532,9.62149351835e-06,193.613751516,1.87728824711,,,,,x,1,1.86731678469,2018_Nov_27_1533,59.9890718773,spanish_cond2,001,1054,
images/baseball01a.jpg,baseball,z,sounds/greatgatsby_spanish.wav,,,,,,,,,0,0,0,0,0,39,39,74,194.746800671,9.30076930672e-06,196.631167178,1.88437612844,,,,,z,1,1.86735270522,2018_Nov_27_1533,59.9890718773,spanish_cond2,001,1054,
images/electrictoothbrush01a.jpg,banjo,x,sounds/greatgatsby_spanish.wav,,,,,,,,,0,0,0,0,0,40,40,127,197.726851011,8.98016151041e-06,198.798351378,1.07150998816,,,,,x,1,1.05047180911,2018_Nov_27_1533,59.9890718773,spanish_cond2,001,1054,
images/icecube02 (2).jpg,aloe,x,sounds/greatgatsby_spanish.wav,,,,,,,,,0,0,0,0,0,41,41,122,199.909940609,8.98016151041e-06,201.51567833,1.60574702104,,,,,x,1,1.58394521102,2018_Nov_27_1533,59.9890718773,spanish_cond2,001,1054,
images/ceilingfan02.jpg,paper clip,x,sounds/greatgatsby_spanish.wav,,,,,,,,,0,0,0,0,0,42,42,208,202.614483075,8.98004509509e-06,203.682875037,1.06840158335,,,,,x,1,1.05047886493,2018_Nov_27_1533,59.9890718773,spanish_cond2,001,1054,
images/nailclipper03a.jpg,aquarium,x,sounds/greatgatsby_spanish.wav,,,,,,,,,0,0,0,0,0,43,43,123,204.782601207,8.98016151041e-06,205.900083002,1.11749173666,,,,,x,1,1.10050006444,2018_Nov_27_1533,59.9890718773,spanish_cond2,001,1054,
images/microphone01.jpg,diaper,x,sounds/greatgatsby_spanish.wav,,,,,,,,,0,0,0,0,0,44,44,164,207.000107761,8.98016151041e-06,208.734162434,1.73406429391,,,,,x,1,1.7173715313,2018_Nov_27_1533,59.9890718773,spanish_cond2,001,1054,
images/watermelon01.jpg,orange,x,sounds/greatgatsby_spanish.wav,,,,,,,,,0,0,0,0,0,45,45,207,209.863730188,9.30088572204e-06,211.784854577,1.92113433045,,,,,x,1,1.90069012227,2018_Nov_27_1533,59.9890718773,spanish_cond2,001,1054,
images/bandaid01.jpg,door handle,x,sounds/greatgatsby_spanish.wav,,,,,,,,,0,0,0,0,0,46,46,170,212.892827705,8.98004509509e-06,214.568861815,1.67604565492,,,,,x,1,1.66729645105,2018_Nov_27_1533,59.9890718773,spanish_cond2,001,1054,
images/fork01.jpg,cooking pot,x,sounds/greatgatsby_spanish.wav,,,,,,,,,0,0,0,0,0,47,47,160,215.663916077,8.98016151041e-06,217.319530032,1.65562421782,,,,,x,1,1.63394716743,2018_Nov_27_1533,59.9890718773,spanish_cond2,001,1054,
images/honeycomb.jpg,honey comb,z,sounds/greatgatsby_spanish.wav,,,,,,,,,0,0,0,0,0,48,48,59,218.432814902,8.98004509509e-06,219.336697458,0.9038918562,,,,,z,1,0.883782157674,2018_Nov_27_1533,59.9890718773,spanish_cond2,001,1054,
images/bottleofredwine02.jpg,pipe,x,sounds/greatgatsby_spanish.wav,,,,,,,,,0,0,0,0,0,49,49,213,220.435821319,9.62149351835e-06,221.753947886,1.31813683012,,,,,x,1,1.30054797977,2018_Nov_27_1533,59.9890718773,spanish_cond2,001,1054,
images/pineapple01a.jpg,pineapple,z,sounds/greatgatsby_spanish.wav,,,,,,,,,0,0,0,0,0,50,50,51,222.867612167,9.30088572204e-06,224.337901756,1.47029921121,,,,,z,1,1.45057277137,2018_Nov_27_1533,59.9890718773,spanish_cond2,001,1054,
images/dragonfly02.jpg,dragon fly,z,sounds/greatgatsby_spanish.wav,,,,,,,,,0,0,0,0,0,51,51,29,225.436238253,8.98016151041e-06,227.105245096,1.66901646508,,,,,z,1,1.65061715886,2018_Nov_27_1533,59.9890718773,spanish_cond2,001,1054,
images/broom02.jpg,broom,z,sounds/greatgatsby_spanish.wav,,,,,,,,,0,0,0,0,0,52,52,116,228.20030449,8.98016151041e-06,229.839239474,1.63894396345,,,,,z,1,1.61729064607,2018_Nov_27_1533,59.9890718773,spanish_cond2,001,1054,
images/volleyball.jpg,volley ball,z,sounds/greatgatsby_spanish.wav,,,,,,,,,0,0,0,0,0,53,53,2,230.971335132,9.94233414531e-06,231.923082696,0.951757506002,,,,,z,1,0.933779623942,2018_Nov_27_1533,59.9890718773,spanish_cond2,001,1054,
images/daisy.jpg,daisy,z,sounds/greatgatsby_spanish.wav,,,,,,,,,0,0,0,0,0,54,54,6,233.026288343,9.94233414531e-06,234.006916938,0.980638858629,,,,,z,1,0.967114154715,2018_Nov_27_1533,59.9890718773,spanish_cond2,001,1054,
images/pictureframe04.jpg,picture frame,z,sounds/greatgatsby_spanish.wav,,,,,,,,,0,0,0,0,0,55,55,41,235.129326574,8.98004509509e-06,235.907382237,0.778065604856,,,,,z,1,0.767078747391,2018_Nov_27_1533,59.9890718773,spanish_cond2,001,1054,
images/cupcake.jpg,scissors,x,sounds/greatgatsby_spanish.wav,,,,,,,,,0,0,0,0,0,56,56,219,237.027239915,8.98016151041e-06,237.791179789,0.763950137305,,,,,x,1,0.750418056734,2018_Nov_27_1533,59.9890718773,spanish_cond2,001,1054,
images/basketball01.jpg,basket ball,z,sounds/greatgatsby_spanish.wav,,,,,,,,,0,0,0,0,0,57,57,33,238.931160315,8.98004509509e-06,239.891677288,0.960526914918,,,,,z,1,0.950440635323,2018_Nov_27_1533,59.9890718773,spanish_cond2,001,1054,
images/charcoalbarbecue.jpg,charcoal barbecue,z,sounds/greatgatsby_spanish.wav,,,,,,,,,0,0,0,0,0,58,58,77,241.009349589,9.30088572204e-06,243.342744287,2.33341426135,,,,,z,1,2.31762817048,2018_Nov_27_1533,59.9890718773,spanish_cond2,001,1054,
images/lightswitch02a.jpg,fork,x,sounds/greatgatsby_spanish.wav,,,,,,,,,0,0,0,0,0,59,59,177,244.455057701,9.62160993367e-06,246.126544661,1.67149690283,,,,,x,1,1.65063127049,2018_Nov_27_1533,59.9890718773,spanish_cond2,001,1054,
images/lamp04b.jpg,parking meter,x,sounds/greatgatsby_spanish.wav,,,,,,,,,0,0,0,0,0,60,60,209,247.247659877,9.30088572204e-06,248.593810516,1.34616058122,,,,,x,1,1.33389181143,2018_Nov_27_1533,59.9890718773,spanish_cond2,001,1054,
images/8ball.jpg,nail clipper,x,sounds/greatgatsby_spanish.wav,,,,,,,,,0,0,0,0,0,61,61,206,249.710469987,9.30076930672e-06,250.527620287,0.817160562612,,,,,x,1,0.800428993185,2018_Nov_27_1533,59.9890718773,spanish_cond2,001,1054,
images/bracelet02a.jpg,chess knight,x,sounds/greatgatsby_spanish.wav,,,,,,,,,0,0,0,0,0,62,62,152,251.637630621,9.30088572204e-06,252.644790664,1.0071696646,,,,,x,1,0.983796654153,2018_Nov_27_1533,59.9890718773,spanish_cond2,001,1054,
images/triangleruler02.jpg,bottle of red wine,x,sounds/greatgatsby_spanish.wav,,,,,,,,,0,0,0,0,0,63,63,134,253.757022615,8.98016151041e-06,255.162352894,1.40533990087,,,,,x,1,1.38417760364,2018_Nov_27_1533,59.9890718773,spanish_cond2,001,1054,
images/banjo.jpg,knife,x,sounds/greatgatsby_spanish.wav,,,,,,,,,0,0,0,0,0,64,64,191,256.259718255,9.62160993367e-06,258.012773902,1.75306558888,,,,,x,1,1.73398700065,2018_Nov_27_1533,59.9890718773,spanish_cond2,001,1054,
images/cloud.jpg,ceiling fan,x,sounds/greatgatsby_spanish.wav,,,,,,,,,0,0,0,0,0,65,65,149,259.119171019,9.62160993367e-06,261.980405696,2.86124493985,,,,,x,1,2.85092774278,2018_Nov_27_1533,59.9890718773,spanish_cond2,001,1054,
images/doll.jpg,carrot,x,sounds/greatgatsby_spanish.wav,,,,,,,,,0,0,0,0,0,66,66,146,263.092200829,9.62149351835e-06,264.297616612,1.20542540436,,,,,x,1,1.18383719295,2018_Nov_27_1533,59.9890718773,spanish_cond2,001,1054,
images/blueberry02.jpg,blueberry,z,sounds/greatgatsby_spanish.wav,,,,,,,,,0,0,0,0,0,67,67,46,265.411078519,8.98004509509e-06,266.798232391,1.38716413546,,,,,z,1,1.36717021628,2018_Nov_27_1533,59.9890718773,spanish_cond2,001,1054,
images/magnifyingglass01b.jpg,magnifying glass,z,sounds/greatgatsby_spanish.wav,,,,,,,,,0,0,0,0,0,68,68,64,267.90674112,9.30088572204e-06,268.982097166,1.07536566735,,,,,z,1,1.06715270504,2018_Nov_27_1533,59.9890718773,spanish_cond2,001,1054,
images/puma.jpg,puma,z,sounds/greatgatsby_spanish.wav,,,,,,,,,0,0,0,0,0,69,69,4,270.080645658,9.30088572204e-06,271.749463919,1.66882852395,,,,,z,1,1.65064634418,2018_Nov_27_1533,59.9890718773,spanish_cond2,001,1054,
images/stapler03a.jpg,candy cane,x,sounds/greatgatsby_spanish.wav,,,,,,,,,0,0,0,0,0,70,70,145,272.86154385,8.98016151041e-06,273.716433429,0.854899522034,,,,,x,1,0.833600598853,2018_Nov_27_1533,59.9890718773,spanish_cond2,001,1054,
images/bus.jpg,microphone,x,sounds/greatgatsby_spanish.wav,,,,,,,,,0,0,0,0,0,71,71,203,274.836386361,9.30088572204e-06,276.567280672,1.73090393259,,,,,x,1,1.71730706689,2018_Nov_27_1533,59.9890718773,spanish_cond2,001,1054,
images/camera01a.jpg,bull,x,sounds/greatgatsby_spanish.wav,,,,,,,,,0,0,0,0,0,72,72,138,277.678722693,8.98016151041e-06,278.48442398,0.805710587418,,,,,x,1,0.783715383965,2018_Nov_27_1533,59.9890718773,spanish_cond2,001,1054,
images/barrel01.jpg,barrel,z,sounds/greatgatsby_spanish.wav,,,,,,,,,0,0,0,0,0,73,73,9,279.615705975,9.62149351835e-06,282.135311825,2.51961547113,,,,,z,1,2.50083643419,2018_Nov_27_1533,59.9890718773,spanish_cond2,001,1054,
images/tent.jpg,tent,z,sounds/greatgatsby_spanish.wav,,,,,,,,,0,0,0,0,0,74,74,11,283.262477077,9.94221772999e-06,285.486140145,2.22367429361,,,,,z,1,2.20078204025,2018_Nov_27_1533,59.9890718773,spanish_cond2,001,1054,
images/bench02.jpg,electric toothbrush,x,sounds/greatgatsby_spanish.wav,,,,,,,,,0,0,0,0,0,75,75,172,286.595919882,9.30088572204e-06,288.220363836,1.6244535757,,,,,x,1,1.60077395814,2018_Nov_27_1533,59.9890718773,spanish_cond2,001,1054,
images/toothbrush03a.jpg,parrot,x,sounds/greatgatsby_spanish.wav,,,,,,,,,0,0,0,0,0,76,76,210,289.3138748,9.62149351835e-06,291.787657337,2.47379279905,,,,,x,1,2.45082293183,2018_Nov_27_1533,59.9890718773,spanish_cond2,001,1054,
images/hanger02a.jpg,hanger,z,sounds/greatgatsby_spanish.wav,,,,,,,,,0,0,0,0,0,77,77,88,292.881685941,9.62149351835e-06,293.771481893,0.889805894694,,,,,x,0,0.867107996834,2018_Nov_27_1533,59.9890718773,spanish_cond2,001,1054,
images/arrow02.jpg,hammer,x,sounds/greatgatsby_spanish.wav,,,,,,,,,0,0,0,0,0,78,78,184,294.869049948,8.98004509509e-06,295.588570936,0.719530609087,,,,,x,1,0.70038338704,2018_Nov_27_1533,59.9890718773,spanish_cond2,001,1054,
images/grandpiano.jpg,tulip,x,sounds/greatgatsby_spanish.wav,,,,,,,,,0,0,0,0,0,79,79,236,296.703932139,9.30076930672e-06,297.889136876,1.18521500006,,,,,x,1,1.16717169166,2018_Nov_27_1533,59.9890718773,spanish_cond2,001,1054,
images/candycane01a.jpg,lip,x,sounds/greatgatsby_spanish.wav,,,,,,,,,0,0,0,0,0,80,80,200,298.985269715,8.98004509509e-06,299.772927051,0.787666958058,,,,,x,1,0.767075540149,2018_Nov_27_1533,59.9890718773,spanish_cond2,001,1054,
images/donut.jpg,rhinoceros,x,sounds/greatgatsby_spanish.wav,,,,,,,,,0,0,0,0,0,81,81,216,300.899714817,9.30088572204e-06,302.140188672,1.2404834769,,,,,x,1,1.21719545685,2018_Nov_27_1533,59.9890718773,spanish_cond2,001,1054,
images/clothespin02a.jpg,clothes pin,z,sounds/greatgatsby_spanish.wav,,,,,,,,,0,0,0,0,0,82,82,79,303.246177515,9.62160993367e-06,304.440737614,1.1945703621,,,,,z,1,1.18384617311,2018_Nov_27_1533,59.9890718773,spanish_cond2,001,1054,
images/knife04.jpg,tooth brush,x,sounds/greatgatsby_spanish.wav,,,,,,,,,0,0,0,0,0,83,83,233,305.54033678,9.30088572204e-06,308.00837717,2.46805033227,,,,,x,1,2.45092556183,2018_Nov_27_1533,59.9890718773,spanish_cond2,001,1054,
images/banana04a.jpg,banana,z,sounds/greatgatsby_spanish.wav,,,,,,,,,0,0,0,0,0,84,84,118,309.114370182,9.30076930672e-06,310.35884853,1.24448861089,,,,,z,1,1.23386833479,2018_Nov_27_1533,59.9890718773,spanish_cond2,001,1054,
images/crocodile.jpg,triangle ruler,x,sounds/greatgatsby_spanish.wav,,,,,,,,,0,0,0,0,0,85,85,235,311.457220306,8.98016151041e-06,312.792775364,1.33556435897,,,,,x,1,1.31721348118,2018_Nov_27_1533,59.9890718773,spanish_cond2,001,1054,
images/glasses01b.jpg,calculator,x,sounds/greatgatsby_spanish.wav,,,,,,,,,0,0,0,0,0,86,86,142,313.886676964,8.65943729877e-06,314.793249386,0.906581723364,,,,,x,1,0.883769970387,2018_Nov_27_1533,59.9890718773,spanish_cond2,001,1054,
images/cauliflower01.jpg,glue stick,x,sounds/greatgatsby_spanish.wav,,,,,,,,,0,0,0,0,0,87,87,181,315.911629834,8.98016151041e-06,316.710386601,0.7987667087,,,,,x,1,0.783747135196,2018_Nov_27_1533,59.9890718773,spanish_cond2,001,1054,
images/highlighter03b.jpg,coin,x,sounds/greatgatsby_spanish.wav,,,,,,,,,0,0,0,0,0,88,88,156,317.813915852,9.30088572204e-06,318.744222735,0.930316825164,,,,,x,1,0.917122781975,2018_Nov_27_1533,59.9890718773,spanish_cond2,001,1054,
images/umbrella01.jpg,umbrella,z,sounds/greatgatsby_spanish.wav,,,,,,,,,0,0,0,0,0,89,89,53,319.85818336,9.94221772999e-06,321.378210313,1.52003785758,,,,,z,1,1.50059589522,2018_Nov_27_1533,59.9890718773,spanish_cond2,001,1054,
images/ruler02b.jpg,watermelon,x,sounds/greatgatsby_spanish.wav,,,,,,,,,0,0,0,0,0,90,90,238,322.481687609,9.30076930672e-06,323.16196707,0.680289403652,,,,,x,1,0.667066175141,2018_Nov_27_1533,59.9890718773,spanish_cond2,001,1054,
images/axe01.jpg,axe,z,sounds/greatgatsby_spanish.wav,,,,,,,,,0,0,0,0,0,91,91,104,324.265461684,8.98016151041e-06,325.979310763,1.71385870036,,,,,z,1,1.70063354762,2018_Nov_27_1533,59.9890718773,spanish_cond2,001,1054,
images/hammer02a.jpg,flower,x,sounds/greatgatsby_spanish.wav,,,,,,,,,0,0,0,0,0,92,92,176,327.075981126,9.94233414531e-06,330.080167787,3.00419724453,,,,,None,0,,2018_Nov_27_1533,59.9890718773,spanish_cond2,001,1054,
images/atm.jpg,atm,z,sounds/greatgatsby_spanish.wav,,,,,,,,,0,0,0,0,0,93,93,96,331.218444014,8.98016151041e-06,333.897912378,2.67947766487,,,,,z,1,2.66753474507,2018_Nov_27_1533,59.9890718773,spanish_cond2,001,1054,
images/bull.jpg,button,x,sounds/greatgatsby_spanish.wav,,,,,,,,,0,0,0,0,0,94,94,141,335.005696283,9.30076930672e-06,336.415177944,1.40949160326,,,,,x,1,1.40056600422,2018_Nov_27_1533,59.9890718773,spanish_cond2,001,1054,
images/headphones02b.jpg,headphones,z,sounds/greatgatsby_spanish.wav,,,,,,,,,0,0,0,0,0,95,95,101,337.524242799,9.30076930672e-06,340.099410583,2.57517804694,,,,,z,1,2.55084672919,2018_Nov_27_1533,59.9890718773,spanish_cond2,001,1054,
images/elbow.jpg,elbow,z,sounds/greatgatsby_spanish.wav,,,,,,,,,0,0,0,0,0,96,96,105,341.212336891,9.62149351835e-06,342.066568997,0.854243011097,,,,,z,1,0.833756788867,2018_Nov_27_1533,59.9890718773,spanish_cond2,001,1054,
images/lip.jpg,boxing glove,x,sounds/greatgatsby_spanish.wav,,,,,,,,,0,0,0,0,0,97,97,136,343.171533785,9.94233414531e-06,345.384048996,2.21252547309,,,,,x,1,2.20077241864,2018_Nov_27_1533,59.9890718773,spanish_cond2,001,1054,
images/screwdriver02b.jpg,cola,x,sounds/greatgatsby_spanish.wav,,,,,,,,,0,0,0,0,0,98,98,158,346.479693701,9.30076930672e-06,348.351427102,1.8717439844,,,,,x,1,1.85067629931,2018_Nov_27_1533,59.9890718773,spanish_cond2,001,1054,
images/lock02a.jpg,lock,z,sounds/greatgatsby_spanish.wav,,,,,,,,,0,0,0,0,0,99,99,65,349.46306861,9.30076930672e-06,350.568635387,1.10557671939,,,,,z,1,1.08382013068,2018_Nov_27_1533,59.9890718773,spanish_cond2,001,1054,
images/lemon02.jpg,lemon,z,sounds/greatgatsby_spanish.wav,,,,,,,,,0,0,0,0,0,100,100,14,351.681919616,9.30088572204e-06,353.169276568,1.48736657307,,,,,z,1,1.46726649592,2018_Nov_27_1533,59.9890718773,spanish_cond2,001,1054,
images/pouch01b.jpg,pouch,z,sounds/greatgatsby_spanish.wav,,,,,,,,,0,0,0,0,0,101,101,25,354.282840143,9.30088572204e-06,356.886842775,2.60401225404,,,,,z,1,2.5841953716,2018_Nov_27_1533,59.9890718773,spanish_cond2,001,1054,
images/lipstick04.jpg,lipstick,z,sounds/greatgatsby_spanish.wav,,,,,,,,,0,0,0,0,0,102,102,56,357.988325201,8.65932088345e-06,359.020695652,1.03237975133,,,,,z,1,1.01714946574,2018_Nov_27_1533,59.9890718773,spanish_cond2,001,1054,
images/medal01.jpg,medal,z,sounds/greatgatsby_spanish.wav,,,,,,,,,0,0,0,0,0,103,103,115,360.122638308,9.62160993367e-06,360.987826804,0.865198759013,,,,,z,1,0.850422610878,2018_Nov_27_1533,59.9890718773,spanish_cond2,001,1054,
images/sportshorts02.jpg,tape,x,sounds/greatgatsby_spanish.wav,,,,,,,,,0,0,0,0,0,104,104,230,362.096828478,9.30088572204e-06,363.955223191,1.8584043351,,,,,x,1,1.83400534571,2018_Nov_27_1533,59.9890718773,spanish_cond2,001,1054,
images/flamingo.jpg,flamingo,z,sounds/greatgatsby_spanish.wav,,,,,,,,,0,0,0,0,0,105,105,52,365.054805038,8.98016151041e-06,368.056076046,3.00128062943,,,,,None,0,,2018_Nov_27_1533,59.9890718773,spanish_cond2,001,1054,
images/paperclip04.jpg,eye drops,x,sounds/greatgatsby_spanish.wav,,,,,,,,,0,0,0,0,0,106,106,174,369.161898436,9.62160993367e-06,370.206739709,1.04485121544,,,,,x,1,1.03378738544,2018_Nov_27_1533,59.9890718773,spanish_cond2,001,1054,
images/table02.jpg,table,z,sounds/greatgatsby_spanish.wav,,,,,,,,,0,0,0,0,0,107,107,49,371.322975191,8.98016151041e-06,372.12387981,0.800914881984,,,,,z,1,0.783748738701,2018_Nov_27_1533,59.9890718773,spanish_cond2,001,1054,
images/plate01b.jpg,plate,z,sounds/greatgatsby_spanish.wav,,,,,,,,,0,0,0,0,0,108,108,3,373.224944019,9.94233414531e-06,374.7245521,1.49961770338,,,,,z,1,1.48395444779,2018_Nov_27_1533,59.9890718773,spanish_cond2,001,1054,
images/coin01b.jpg,arrow,x,sounds/greatgatsby_spanish.wav,,,,,,,,,0,0,0,0,0,109,109,124,375.828668909,8.98004509509e-06,378.175355789,2.34669682279,,,,,x,1,2.33412978449,2018_Nov_27_1533,59.9890718773,spanish_cond2,001,1054,
images/bowlingball.jpg,bowling ball,z,sounds/greatgatsby_spanish.wav,,,,,,,,,0,0,0,0,0,110,110,20,379.308418735,9.30088572204e-06,380.075808259,0.767398824566,,,,,z,1,0.750395927113,2018_Nov_27_1533,59.9890718773,spanish_cond2,001,1054,
images/ashtray02b.jpg,ashtray,z,sounds/greatgatsby_spanish.wav,,,,,,,,,0,0,0,0,0,111,111,43,381.189573566,9.30088572204e-06,382.476401845,1.28683822113,,,,,z,1,1.26720511052,2018_Nov_27_1533,59.9890718773,spanish_cond2,001,1054,
images/swallow.jpg,mattress,x,sounds/greatgatsby_spanish.wav,,,,,,,,,0,0,0,0,0,112,112,202,383.579073495,9.94221772999e-06,385.1937304,1.61466716777,,,,,x,1,1.6005542659,2018_Nov_27_1533,59.9890718773,spanish_cond2,001,1054,
images/snowman.jpg,globe,x,sounds/greatgatsby_spanish.wav,,,,,,,,,0,0,0,0,0,113,113,180,386.307050229,9.62160993367e-06,388.344480978,2.03744069114,,,,,x,1,2.01735825359,2018_Nov_27_1533,59.9890718773,spanish_cond2,001,1054,
images/spoon02b.jpg,spoon,z,sounds/greatgatsby_spanish.wav,,,,,,,,,0,0,0,0,0,114,114,38,389.437194956,8.98016151041e-06,390.178279781,0.74109444581,,,,,z,1,0.717068772996,2018_Nov_27_1533,59.9890718773,spanish_cond2,001,1054,
images/cockroach02.jpg,belt,x,sounds/greatgatsby_spanish.wav,,,,,,,,,0,0,0,0,0,115,115,129,391.278917434,9.30088572204e-06,393.762752574,2.48384476197,,,,,x,1,2.46776649624,2018_Nov_27_1533,59.9890718773,spanish_cond2,001,1054,
images/orange.jpg,bat,x,sounds/greatgatsby_spanish.wav,,,,,,,,,0,0,0,0,0,116,116,128,394.888486458,9.30088572204e-06,395.56293301,0.674456494278,,,,,x,1,0.65039073152,2018_Nov_27_1533,59.9890718773,spanish_cond2,001,1054,
images/handfan01b.jpg,handfan,z,sounds/greatgatsby_spanish.wav,,,,,,,,,0,0,0,0,0,117,117,69,396.677272724,9.62149351835e-06,397.79679461,1.11953214847,,,,,z,1,1.10048723582,2018_Nov_27_1533,59.9890718773,spanish_cond2,001,1054,
images/paintbrush03a.jpg,paint brush,z,sounds/greatgatsby_spanish.wav,,,,,,,,,0,0,0,0,0,118,118,0,398.897564078,9.30076930672e-06,401.297641307,2.40008717123,,,,,z,1,2.38412885449,2018_Nov_27_1533,59.9890718773,spanish_cond2,001,1054,
images/mattress.jpg,cat,x,sounds/greatgatsby_spanish.wav,,,,,,,,,0,0,0,0,0,119,119,147,402.401574985,9.30088572204e-06,405.398501538,2.99693617516,,,,,None,0,,2018_Nov_27_1533,59.9890718773,spanish_cond2,001,1054,
images/skateboard.jpg,key,x,sounds/greatgatsby_spanish.wav,,,,,,,,,0,0,0,0,0,120,120,189,406.489619621,9.94221772999e-06,407.299108595,0.809499236289,,,,,x,1,0.800418730243,2018_Nov_27_1533,59.9890718773,spanish_cond2,001,1054,
images/bowtie.jpg,bowtie,z,sounds/greatgatsby_spanish.wav,,,,,,,,,0,0,0,0,0,121,121,89,408.409424573,9.62149351835e-06,409.316265116,0.90685048548,,,,,z,1,0.883769970387,2018_Nov_27_1533,59.9890718773,spanish_cond2,001,1054,
images/corn01.jpg,corn,z,sounds/greatgatsby_spanish.wav,,,,,,,,,0,0,0,0,0,122,122,22,410.416074353,9.30088572204e-06,411.750156992,1.33409258118,,,,,z,1,1.31718044716,2018_Nov_27_1533,59.9890718773,spanish_cond2,001,1054,
images/ostrich.jpg,ostrich,z,sounds/greatgatsby_spanish.wav,,,,,,,,,0,0,0,0,0,123,123,76,412.849864881,8.98004509509e-06,413.767358735,0.917503795703,,,,,x,0,0.90040756925,2018_Nov_27_1533,59.9890718773,spanish_cond2,001,1054,
images/dryingmachine01.jpg,drying machine,z,sounds/greatgatsby_spanish.wav,,,,,,,,,0,0,0,0,0,124,124,18,414.8877286,9.30076930672e-06,416.151261483,1.26354250382,,,,,x,0,1.25051651732,2018_Nov_27_1533,59.9890718773,spanish_cond2,001,1054,
images/tie01.jpg,bench,x,sounds/greatgatsby_spanish.wav,,,,,,,,,0,0,0,0,0,125,125,130,417.249501443,8.65943729877e-06,418.451811707,1.20231988595,,,,,x,1,1.1838310993,2018_Nov_27_1533,59.9890718773,spanish_cond2,001,1054,
images/mirror02.jpg,8 ball,x,sounds/greatgatsby_spanish.wav,,,,,,,,,0,0,0,0,0,126,126,121,419.55435924,9.30088572204e-06,420.652358019,1.0980087223,,,,,x,1,1.0838204514,2018_Nov_27_1533,59.9890718773,spanish_cond2,001,1054,
images/lettuce.jpg,mushroom,x,sounds/greatgatsby_spanish.wav,,,,,,,,,0,0,0,0,0,127,127,205,421.775265731,9.30076930672e-06,422.836221191,1.06096508075,,,,,x,1,1.05048527941,2018_Nov_27_1533,59.9890718773,spanish_cond2,001,1054,
images/blackolive.jpg,tank,x,sounds/greatgatsby_spanish.wav,,,,,,,,,0,0,0,0,0,128,128,229,423.95066129,9.30088572204e-06,424.886720902,0.936069554882,,,,,x,1,0.917106104665,2018_Nov_27_1533,59.9890718773,spanish_cond2,001,1054,
images/tape01a.jpg,tie,x,sounds/greatgatsby_spanish.wav,,,,,,,,,0,0,0,0,0,129,129,232,426.012014761,8.98004509509e-06,426.753813505,0.741808686173,,,,,x,1,0.733696750249,2018_Nov_27_1533,59.9890718773,spanish_cond2,001,1054,
images/parkingmeter.jpg,ear,x,sounds/greatgatsby_spanish.wav,,,,,,,,,0,0,0,0,0,130,130,171,427.855445064,9.30088572204e-06,428.654303819,0.798868697137,,,,,x,1,0.783737513702,2018_Nov_27_1533,59.9890718773,spanish_cond2,001,1054,
images/cocktailshrimp01.jpg,cocktail shrimp,z,sounds/greatgatsby_spanish.wav,,,,,,,,,0,0,0,0,0,131,131,30,429.768898825,8.98016151041e-06,430.588113591,0.819224386942,,,,,z,1,0.800419371692,2018_Nov_27_1533,59.9890718773,spanish_cond2,001,1054,
images/parkbench03.jpg,park bench,z,sounds/greatgatsby_spanish.wav,,,,,,,,,0,0,0,0,0,132,132,71,431.69385997,9.30088572204e-06,432.571925639,0.878075290704,,,,,z,1,0.867106072605,2018_Nov_27_1533,59.9890718773,spanish_cond2,001,1054,
images/mailbox01.jpg,mail box,z,sounds/greatgatsby_spanish.wav,,,,,,,,,0,0,0,0,0,133,133,73,433.692910002,9.30076930672e-06,434.7724758,1.07957541989,,,,,z,1,1.06716489233,2018_Nov_27_1533,59.9890718773,spanish_cond2,001,1054,
images/worldmap.jpg,scooter,x,sounds/greatgatsby_spanish.wav,,,,,,,,,0,0,0,0,0,134,134,220,435.904373896,9.62149351835e-06,436.639587325,0.735224012285,,,,,x,1,0.717068452272,2018_Nov_27_1533,59.9890718773,spanish_cond2,001,1054,
images/eyedrops.jpg,bicycle,x,sounds/greatgatsby_spanish.wav,,,,,,,,,0,0,0,0,0,135,135,131,437.741722734,9.62149351835e-06,439.723693857,1.98198106606,,,,,x,1,1.96738868975,2018_Nov_27_1533,59.9890718773,spanish_cond2,001,1054,
images/swan.jpg,swan,z,sounds/greatgatsby_spanish.wav,,,,,,,,,0,0,0,0,0,136,136,54,440.817023616,8.65943729877e-06,442.591074786,1.77406079159,,,,,z,1,1.75068713969,2018_Nov_27_1533,59.9890718773,spanish_cond2,001,1054,
images/pen03c.jpg,pepper,x,sounds/greatgatsby_spanish.wav,,,,,,,,,0,0,0,0,0,137,137,211,443.686426034,8.98004509509e-06,446.008531436,2.32211534446,,,,,x,1,2.30078819813,2018_Nov_27_1533,59.9890718773,spanish_cond2,001,1054,
images/croissant02b.jpg,croissant,z,sounds/greatgatsby_spanish.wav,,,,,,,,,0,0,0,0,0,138,138,39,447.121015151,9.30076930672e-06,448.192392041,1.07138683216,,,,,z,1,1.05047886493,2018_Nov_27_1533,59.9890718773,spanish_cond2,001,1054,
images/graduationcap.jpg,graduation cap,z,sounds/greatgatsby_spanish.wav,,,,,,,,,0,0,0,0,0,139,139,35,449.295719882,9.30076930672e-06,450.226219196,0.930508935475,,,,,z,1,0.917085257941,2018_Nov_27_1533,59.9890718773,spanish_cond2,001,1054,
images/apple06.jpg,apple,z,sounds/greatgatsby_spanish.wav,,,,,,,,,0,0,0,0,0,140,140,13,451.354616328,9.62160993367e-06,452.443429406,1.08882334118,,,,,z,1,1.06715013925,2018_Nov_27_1533,59.9890718773,spanish_cond2,001,1054,
images/antelope.jpg,antelope,z,sounds/greatgatsby_spanish.wav,,,,,,,,,0,0,0,0,0,141,141,12,453.548069947,9.94233414531e-06,456.32772343,2.7796640665,,,,,x,0,2.76757425768,2018_Nov_27_1533,59.9890718773,spanish_cond2,001,1054,
images/tissuebox03.jpg,tissue box,z,sounds/greatgatsby_spanish.wav,,,,,,,,,0,0,0,0,0,142,142,58,457.45443262,8.98016151041e-06,458.311605716,0.857183038606,,,,,z,1,0.833827667637,2018_Nov_27_1533,59.9890718773,spanish_cond2,001,1054,
images/button07.jpg,radish,x,sounds/greatgatsby_spanish.wav,,,,,,,,,0,0,0,0,0,143,143,215,459.425169612,8.98004509509e-06,460.695431171,1.27027214249,,,,,x,1,1.25052485603,2018_Nov_27_1533,59.9890718773,spanish_cond2,001,1054,
images/hairpin.jpg,hair pin,z,sounds/greatgatsby_spanish.wav,,,,,,,,,0,0,0,0,0,144,144,28,461.787673372,9.30088572204e-06,463.846235629,2.05857251992,,,,,z,1,2.03418571793,2018_Nov_27_1533,59.9890718773,spanish_cond2,001,1054,
images/mushroom01.jpg,shower head,x,sounds/greatgatsby_spanish.wav,,,,,,,,,0,0,0,0,0,145,145,222,464.964829355,9.62149351835e-06,465.946704263,0.981884529698,,,,,x,1,0.96711351315,2018_Nov_27_1533,59.9890718773,spanish_cond2,001,1054,
images/parrot01.jpg,chameleon,x,sounds/greatgatsby_spanish.wav,,,,,,,,,0,0,0,0,0,146,146,150,467.11465049,8.65932088345e-06,468.263938271,1.14929804311,,,,,x,1,1.1338249736,2018_Nov_27_1533,59.9890718773,spanish_cond2,001,1054,
images/hairdryer03a.jpg,hairdryer,z,sounds/greatgatsby_spanish.wav,,,,,,,,,0,0,0,0,0,147,147,119,469.364159631,9.30076930672e-06,470.847914591,1.48376682727,,,,,z,1,1.46724853583,2018_Nov_27_1533,59.9890718773,spanish_cond2,001,1054,
images/djmixer01.jpg,light bulb,x,sounds/greatgatsby_spanish.wav,,,,,,,,,0,0,0,0,0,148,148,196,471.970520828,8.98016151041e-06,473.281852009,1.31134112342,,,,,x,1,1.30055567715,2018_Nov_27_1533,59.9890718773,spanish_cond2,001,1054,
images/tank.jpg,wallet,x,sounds/greatgatsby_spanish.wav,,,,,,,,,0,0,0,0,0,149,149,237,474.388220262,8.98016151041e-06,475.33233793,0.944127289345,,,,,x,1,0.933784434805,2018_Nov_27_1533,59.9890718773,spanish_cond2,001,1054,
images/lightbulb03b.jpg,treadmill,x,sounds/greatgatsby_spanish.wav,,,,,,,,,0,0,0,0,0,150,150,234,476.436208747,8.98004509509e-06,478.983229944,2.54703178129,,,,,x,1,2.53417898272,2018_Nov_27_1533,59.9890718773,spanish_cond2,001,1054,
images/rubberglove02a.jpg,lady bug,x,sounds/greatgatsby_spanish.wav,,,,,,,,,0,0,0,0,0,151,151,192,480.089313078,8.65932088345e-06,481.283789149,1.19448569242,,,,,x,1,1.18385354965,2018_Nov_27_1533,59.9890718773,spanish_cond2,001,1054,
images/scissors04a.jpg,leek,x,sounds/greatgatsby_spanish.wav,,,,,,,,,0,0,0,0,0,152,152,194,482.37911025,8.98004509509e-06,484.317861012,1.93876102543,,,,,x,1,1.91736171744,2018_Nov_27_1533,59.9890718773,spanish_cond2,001,1054,
images/tulip02.jpg,sport shorts,x,sounds/greatgatsby_spanish.wav,,,,,,,,,0,0,0,0,0,153,153,225,485.413434518,9.30076930672e-06,487.38526933,1.97184475418,,,,,x,1,1.95069881377,2018_Nov_27_1533,59.9890718773,spanish_cond2,001,1054,
images/apricot.jpg,apricot,z,sounds/greatgatsby_spanish.wav,,,,,,,,,0,0,0,0,0,154,154,32,488.503278065,8.98016151041e-06,489.485783506,0.982515062555,,,,,z,1,0.967129549128,2018_Nov_27_1533,59.9890718773,spanish_cond2,001,1054,
images/broadsword.jpg,teapot,x,sounds/greatgatsby_spanish.wav,,,,,,,,,0,0,0,0,0,155,155,231,490.580124811,8.98016151041e-06,491.853017224,1.272902356,,,,,x,1,1.25051940384,2018_Nov_27_1533,59.9890718773,spanish_cond2,001,1054,
images/chameleon.jpg,50 dollar bill,x,sounds/greatgatsby_spanish.wav,,,,,,,,,0,0,0,0,0,156,156,120,492.966434873,9.30088572204e-06,493.68680384,0.720378589118,,,,,x,1,0.700378576294,2018_Nov_27_1533,59.9890718773,spanish_cond2,001,1054,
images/thumbtack02a.jpg,thumb tack,z,sounds/greatgatsby_spanish.wav,,,,,,,,,0,0,0,0,0,157,157,60,494.798856189,8.65932088345e-06,495.870666049,1.07181884011,,,,,z,1,1.05046250822,2018_Nov_27_1533,59.9890718773,spanish_cond2,001,1054,
images/shotglass.jpg,shot glass,z,sounds/greatgatsby_spanish.wav,,,,,,,,,0,0,0,0,0,158,158,86,496.981337384,9.30088572204e-06,497.871161559,0.889834438683,,,,,x,0,0.867090036627,2018_Nov_27_1533,59.9890718773,spanish_cond2,001,1054,
images/electricguitar02.jpg,electric guitar,z,sounds/greatgatsby_spanish.wav,,,,,,,,,0,0,0,0,0,159,159,100,498.975174776,8.98016151041e-06,499.671595363,0.696430209326,,,,,z,1,0.683717885637,2018_Nov_27_1533,59.9890718773,spanish_cond2,001,1054,
images/radio03a.jpg,radio,z,sounds/greatgatsby_spanish.wav,,,,,,,,,0,0,0,0,0,160,160,37,500.787312243,9.30088572204e-06,502.705671075,1.91836877377,,,,,z,1,1.90065484331,2018_Nov_27_1533,59.9890718773,spanish_cond2,001,1054,
images/belt02a.jpg,snowman,x,sounds/greatgatsby_spanish.wav,,,,,,,,,0,0,0,0,0,161,161,224,503.810657993,9.30076930672e-06,504.489425587,0.678777536028,,,,,x,1,0.667045007693,2018_Nov_27_1533,59.9890718773,spanish_cond2,001,1054,
images/cola.jpg,comb,x,sounds/greatgatsby_spanish.wav,,,,,,,,,0,0,0,0,0,162,162,157,505.612482112,9.30076930672e-06,506.789982546,1.17750973534,,,,,x,1,1.16715918365,2018_Nov_27_1533,59.9890718773,spanish_cond2,001,1054,
images/cake.jpg,cake,z,sounds/greatgatsby_spanish.wav,,,,,,,,,0,0,0,0,0,163,163,23,507.904452152,4.13727248088e-05,509.273934749,1.3695037649,,,,,z,1,1.35055218125,2018_Nov_27_1533,59.9890718773,spanish_cond2,001,1054,
images/fireextinguisher02.jpg,fire extinguisher,z,sounds/greatgatsby_spanish.wav,,,,,,,,,0,0,0,0,0,164,164,175,510.386905636,8.65943729877e-06,511.674528656,1.28763199982,,,,,z,1,1.26720318617,2018_Nov_27_1533,59.9890718773,spanish_cond2,001,1054,
images/pingpongpaddle01c (1).jpg,ping pong paddle,z,sounds/greatgatsby_spanish.wav,,,,,,,,,0,0,0,0,0,165,165,10,512.788166317,8.98016151041e-06,514.091771387,1.30361501197,,,,,z,1,1.28386804613,2018_Nov_27_1533,59.9890718773,spanish_cond2,001,1054,
images/bullet (2).jpg,rubber glove,x,sounds/greatgatsby_spanish.wav,,,,,,,,,0,0,0,0,0,166,166,217,515.197114623,9.30076930672e-06,516.909152604,1.71204792301,,,,,x,1,1.7006595257,2018_Nov_27_1533,59.9890718773,spanish_cond2,001,1054,
images/boxingglove02a.jpg,bracelet,x,sounds/greatgatsby_spanish.wav,,,,,,,,,0,0,0,0,0,167,167,135,518.022280964,9.30076930672e-06,520.059886825,2.03761580342,,,,,x,1,2.0173774967,2018_Nov_27_1533,59.9890718773,spanish_cond2,001,1054,
images/beermug01b.jpg,beer mug,z,sounds/greatgatsby_spanish.wav,,,,,,,,,0,0,0,0,0,168,168,111,521.178976702,8.98016151041e-06,522.66052576,1.48155867972,,,,,x,0,1.46725334658,2018_Nov_27_1533,59.9890718773,spanish_cond2,001,1054,
images/remotecontrol01c.jpg,remote control,z,sounds/greatgatsby_spanish.wav,,,,,,,,,0,0,0,0,0,169,169,85,523.772434107,8.98016151041e-06,525.194481844,1.42205735866,,,,,z,1,1.40056696639,2018_Nov_27_1533,59.9890718773,spanish_cond2,001,1054,
images/plant01.jpg,plant,z,sounds/greatgatsby_spanish.wav,,,,,,,,,0,0,0,0,0,170,170,47,526.308488652,9.62149351835e-06,528.128519967,1.82004093647,,,,,z,1,1.80065734487,2018_Nov_27_1533,59.9890718773,spanish_cond2,001,1054,
images/flipflop01b.jpg,flip flop,z,sounds/greatgatsby_spanish.wav,,,,,,,,,0,0,0,0,0,171,171,27,529.247557888,9.30088572204e-06,530.712504626,1.46495668055,,,,,z,1,1.45060035319,2018_Nov_27_1533,59.9890718773,spanish_cond2,001,1054,
images/safe.jpg,safe,z,sounds/greatgatsby_spanish.wav,,,,,,,,,0,0,0,0,0,172,172,78,531.825666662,8.98004509509e-06,533.129737735,1.30408069538,,,,,z,1,1.28386997047,2018_Nov_27_1533,59.9890718773,spanish_cond2,001,1054,
images/desktopcomputer.jpg,desktop computer,z,sounds/greatgatsby_spanish.wav,,,,,,,,,0,0,0,0,0,173,173,16,534.266208317,8.98004509509e-06,536.230492771,1.96429439657,,,,,z,1,1.9506991345,2018_Nov_27_1533,59.9890718773,spanish_cond2,001,1054,
images/toucan.jpg,toucan,z,sounds/greatgatsby_spanish.wav,,,,,,,,,0,0,0,0,0,174,174,81,537.331556659,8.98016151041e-06,538.864465275,1.53291823796,,,,,z,1,1.51725818939,2018_Nov_27_1533,59.9890718773,spanish_cond2,001,1054,
images/cactus.jpg,cactus,z,sounds/greatgatsby_spanish.wav,,,,,,,,,0,0,0,0,0,175,175,70,539.978341551,8.98016151041e-06,542.331975518,2.3536432673,,,,,z,1,2.33411503152,2018_Nov_27_1533,59.9890718773,spanish_cond2,001,1054,
images/gamecontroller01.jpg,game controller,z,sounds/greatgatsby_spanish.wav,,,,,,,,,0,0,0,0,0,176,176,112,543.453508309,9.30076930672e-06,545.632790977,2.17929261015,,,,,z,1,2.16742634214,2018_Nov_27_1533,59.9890718773,spanish_cond2,001,1054,
images/cheetah.jpg,cheetah,z,sounds/greatgatsby_spanish.wav,,,,,,,,,0,0,0,0,0,177,177,82,546.737319267,9.30088572204e-06,548.750201572,2.01289256755,,,,,z,1,2.00069531798,2018_Nov_27_1533,59.9890718773,spanish_cond2,001,1054,
images/gps.jpg,gps,z,sounds/greatgatsby_spanish.wav,,,,,,,,,0,0,0,0,0,178,178,21,549.870765151,8.33859667182e-06,551.150788102,1.2800325721,,,,,z,1,1.26719388529,2018_Nov_27_1533,59.9890718773,spanish_cond2,001,1054,
images/butterfly.jpg,butterfly,z,sounds/greatgatsby_spanish.wav,,,,,,,,,0,0,0,0,0,179,179,91,552.259818319,9.30088572204e-06,555.251636467,2.9918280897,,,,,None,0,,2018_Nov_27_1533,59.9890718773,spanish_cond2,001,1054,
images/sock03.jpg,sock,z,sounds/greatgatsby_spanish.wav,,,,,,,,,0,0,0,0,0,180,180,90,556.359690417,9.62149351835e-06,557.285605379,0.925924583687,,,,,z,1,0.917087823735,2018_Nov_27_1533,59.9890718773,spanish_cond2,001,1054,
images/bowl02b (1).jpg,bowl,z,sounds/greatgatsby_spanish.wav,,,,,,,,,0,0,0,0,0,181,181,24,558.40537069,9.62160993367e-06,559.619518678,1.21415825153,,,,,z,1,1.20051199524,2018_Nov_27_1533,59.9890718773,spanish_cond2,001,1054,
images/dreamcatcher.jpg,dream catcher,z,sounds/greatgatsby_spanish.wav,,,,,,,,,0,0,0,0,0,182,182,48,560.720150879,9.30088572204e-06,561.636671031,0.916530093993,,,,,z,1,0.900431943825,2018_Nov_27_1533,59.9890718773,spanish_cond2,001,1054,
,,,sounds/greatgatsby_spanish.wav,,,,,,,,,0,0,0,0,,,,,,,,,,,,,,,,2018_Nov_27_1533,59.9890718773,spanish_cond2,001,1054,
images/ruler02b.jpg,watermelon,x,sounds/animalfarm_english.wav,,,,,,,,,0,1,1,1,0,0,0,238,582.766512037,8.98016151041e-06,585.759116908,2.99261449173,,,,572.639561667,None,0,,2018_Nov_27_1533,59.9890718773,spanish_cond2,001,1054,
images/bull.jpg,button,x,sounds/animalfarm_english.wav,,,,,,,,,0,1,1,1,0,1,1,141,586.865273486,8.98004509509e-06,587.743041529,0.877777343034,,,,,x,1,0.867113128304,2018_Nov_27_1533,59.9890718773,spanish_cond2,001,1054,
images/radio03a.jpg,radio,z,sounds/animalfarm_english.wav,,,,,,,,,0,1,1,1,0,2,2,37,588.856424218,9.30088572204e-06,589.726852936,0.870438980404,,,,,z,1,0.850439288304,2018_Nov_27_1533,59.9890718773,spanish_cond2,001,1054,
images/cake.jpg,cake,z,sounds/animalfarm_english.wav,,,,,,,,,0,1,1,1,0,3,3,23,590.84020644,8.98016151041e-06,591.527284815,0.687088638311,,,,,z,1,0.667051422177,2018_Nov_27_1533,59.9890718773,spanish_cond2,001,1054,
images/screw03c.jpg,screw,z,sounds/animalfarm_english.wav,,,,,,,,,0,1,1,1,0,4,4,84,592.62157256,9.30088572204e-06,594.961463413,2.33990079537,,,,,z,1,2.31746203813,2018_Nov_27_1533,59.9890718773,spanish_cond2,001,1054,
images/electricguitar02.jpg,electric guitar,z,sounds/animalfarm_english.wav,,,,,,,,,0,1,1,1,0,5,5,100,596.06306226,9.30076930672e-06,597.428734399,1.36568176118,,,,,z,1,1.35056084068,2018_Nov_27_1533,59.9890718773,spanish_cond2,001,1054,
images/umbrella01.jpg,umbrella,z,sounds/animalfarm_english.wav,,,,,,,,,0,1,1,1,0,6,6,53,598.541750187,8.65943729877e-06,601.529576029,2.98783610517,,,,,None,0,,2018_Nov_27_1533,59.9890718773,spanish_cond2,001,1054,
images/croissant02b.jpg,croissant,z,sounds/animalfarm_english.wav,,,,,,,,,0,1,1,1,0,7,7,39,602.640975074,8.98004509509e-06,603.380174715,0.73921086546,,,,,z,1,0.717071338673,2018_Nov_27_1533,59.9890718773,spanish_cond2,001,1054,
images/licenseplate.jpg,license plate,z,sounds/animalfarm_english.wav,,,,,,,,,0,1,1,1,0,8,8,40,604.498390634,9.30076930672e-06,605.680739372,1.18235868018,,,,,z,1,1.16718804825,2018_Nov_27_1533,59.9890718773,spanish_cond2,001,1054,
images/doorhandle.jpg,doll,x,sounds/animalfarm_english.wav,,,,,,,,,0,1,1,1,0,9,9,168,606.782985428,9.62149351835e-06,608.798184284,2.01520847669,,,,,x,1,2.00072001328,2018_Nov_27_1533,59.9890718773,spanish_cond2,001,1054,
images/lychee02a.jpg,lychee,z,sounds/animalfarm_english.wav,,,,,,,,,0,1,1,1,0,10,10,62,609.923443504,8.98016151041e-06,610.748638389,0.825204506284,,,,,z,1,0.817094815313,2018_Nov_27_1533,59.9890718773,spanish_cond2,001,1054,
images/corkscrew02a.jpg,masquerade mask,x,sounds/animalfarm_english.wav,,,,,,,,,0,1,1,1,0,11,11,201,611.853810041,8.65943729877e-06,613.099206606,1.24540554546,,,,,x,1,1.23386769334,2018_Nov_27_1533,59.9890718773,spanish_cond2,001,1054,
images/baseball01a.jpg,baseball,z,sounds/animalfarm_english.wav,,,,,,,,,0,1,1,1,0,12,12,74,614.231488923,9.62149351835e-06,614.916347605,0.684868624085,,,,,z,1,0.667085097521,2018_Nov_27_1533,59.9890718773,spanish_cond2,001,1054,
images/sunglasses03a.jpg,sun glasses,z,sounds/animalfarm_english.wav,,,,,,,,,0,1,1,1,0,13,13,17,616.025731896,9.30088572204e-06,617.700350674,1.67462839943,,,,,z,1,1.65065468301,2018_Nov_27_1533,59.9890718773,spanish_cond2,001,1054,
images/lamp04b.jpg,parking meter,x,sounds/animalfarm_english.wav,,,,,,,,,0,1,1,1,0,14,14,209,618.819977114,9.30076930672e-06,621.417893789,2.59792629757,,,,,x,1,2.58418863639,2018_Nov_27_1533,59.9890718773,spanish_cond2,001,1054,
images/blueberry02.jpg,blueberry,z,sounds/animalfarm_english.wav,,,,,,,,,0,1,1,1,0,15,15,46,622.530847358,8.65932088345e-06,623.268420634,0.737582576927,,,,,z,1,0.717139331042,2018_Nov_27_1533,59.9890718773,spanish_cond2,001,1054,
images/eyedrops.jpg,bicycle,x,sounds/animalfarm_english.wav,,,,,,,,,0,1,1,1,0,16,16,131,624.368587151,9.62160993367e-06,625.085453551,0.716876983293,,,,,x,1,0.700394612155,2018_Nov_27_1533,59.9890718773,spanish_cond2,001,1054,
images/candle08a.jpg,screw driver,x,sounds/animalfarm_english.wav,,,,,,,,,0,1,1,1,0,17,17,221,626.198954265,9.30076930672e-06,627.102623863,0.903680181946,,,,,x,1,0.883783119847,2018_Nov_27_1533,59.9890718773,spanish_cond2,001,1054,
images/treadmill.jpg,lily,x,sounds/animalfarm_english.wav,,,,,,,,,0,1,1,1,0,18,18,199,628.209599236,8.65943729877e-06,630.820191674,2.61060173868,,,,,x,1,2.60086536291,2018_Nov_27_1533,59.9890718773,spanish_cond2,001,1054,
images/mirror02.jpg,8 ball,x,sounds/animalfarm_english.wav,,,,,,,,,0,1,1,1,0,19,19,121,631.919582373,8.65943729877e-06,633.037385848,1.11781309673,,,,,x,1,1.10047440697,2018_Nov_27_1533,59.9890718773,spanish_cond2,001,1054,
images/straw.jpg,straw,z,sounds/animalfarm_english.wav,,,,,,,,,0,1,1,1,0,20,20,109,634.127355117,9.30088572204e-06,637.121582182,2.99423732795,,,,,None,0,,2018_Nov_27_1533,59.9890718773,spanish_cond2,001,1054,
images/flower01.jpg,bus,x,sounds/animalfarm_english.wav,,,,,,,,,0,1,1,1,0,21,21,140,638.235936008,8.98016151041e-06,639.172215633,0.936289247125,,,,,x,1,0.917107708286,2018_Nov_27_1533,59.9890718773,spanish_cond2,001,1054,
images/hanger02a.jpg,hanger,z,sounds/animalfarm_english.wav,,,,,,,,,0,1,1,1,0,22,22,88,640.263779515,8.98004509509e-06,641.156046284,0.892276390106,,,,,z,1,0.883786647697,2018_Nov_27_1533,59.9890718773,spanish_cond2,001,1054,
images/gluestick.jpg,squirrel,x,sounds/animalfarm_english.wav,,,,,,,,,0,1,1,1,0,23,23,226,642.261617871,9.30076930672e-06,643.089840661,0.828232410597,,,,,x,1,0.817097060382,2018_Nov_27_1533,59.9890718773,spanish_cond2,001,1054,
images/handbag02a.jpg,candle,x,sounds/animalfarm_english.wav,,,,,,,,,0,1,1,1,0,24,24,144,644.204061067,8.98016151041e-06,645.807181403,1.60312963638,,,,,x,1,1.58395451191,2018_Nov_27_1533,59.9890718773,spanish_cond2,001,1054,
images/dryingmachine01.jpg,drying machine,z,sounds/animalfarm_english.wav,,,,,,,,,0,1,1,1,0,25,25,18,646.926854988,8.98016151041e-06,647.974600369,1.04776077473,,,,,z,1,1.03401862341,2018_Nov_27_1533,59.9890718773,spanish_cond2,001,1054,
images/cat.jpg,black olive,x,sounds/animalfarm_english.wav,,,,,,,,,0,1,1,1,0,26,26,133,649.10422489,9.30076930672e-06,650.341597076,1.23738244851,,,,,x,1,1.21717621374,2018_Nov_27_1533,59.9890718773,spanish_cond2,001,1054,
images/diploma01.jpg,glasses,x,sounds/animalfarm_english.wav,,,,,,,,,0,1,1,1,0,27,27,179,651.472160021,8.98004509509e-06,652.825543506,1.35339310672,,,,,x,1,1.33387705823,2018_Nov_27_1533,59.9890718773,spanish_cond2,001,1054,
images/showerhead01.jpg,skateboard,x,sounds/animalfarm_english.wav,,,,,,,,,0,1,1,1,0,28,28,223,653.931267114,9.30076930672e-06,655.826279876,1.89502270357,,,,,x,1,1.88403071463,2018_Nov_27_1533,59.9890718773,spanish_cond2,001,1054,
images/ashtray02b.jpg,ashtray,z,sounds/animalfarm_english.wav,,,,,,,,,0,1,1,1,0,29,29,43,656.939112854,8.65943729877e-06,658.143506506,1.2044029535,,,,,z,1,1.18384938024,2018_Nov_27_1533,59.9890718773,spanish_cond2,001,1054,
images/magnifyingglass01b.jpg,magnifying glass,z,sounds/animalfarm_english.wav,,,,,,,,,0,1,1,1,0,30,30,64,659.249362892,8.98004509509e-06,660.327371602,1.07801801024,,,,,z,1,1.06715911941,2018_Nov_27_1533,59.9890718773,spanish_cond2,001,1054,
images/raisin.jpg,ruler,x,sounds/animalfarm_english.wav,,,,,,,,,0,1,1,1,0,31,31,218,661.430871668,9.30076930672e-06,662.377876124,0.947014077567,,,,,x,1,0.933787000598,2018_Nov_27_1533,59.9890718773,spanish_cond2,001,1054,
images/bowl02b (1).jpg,bowl,z,sounds/animalfarm_english.wav,,,,,,,,,0,1,1,1,0,32,32,24,663.493520201,9.30088572204e-06,664.561572201,1.06806194235,,,,,z,1,1.05032299564,2018_Nov_27_1533,59.9890718773,spanish_cond2,001,1054,
images/handfan01b.jpg,handfan,z,sounds/animalfarm_english.wav,,,,,,,,,0,1,1,1,0,33,33,69,665.674760535,9.30088572204e-06,667.129026061,1.45427514706,,,,,z,1,1.43390951504,2018_Nov_27_1533,59.9890718773,spanish_cond2,001,1054,
images/bed.jpg,bed,z,sounds/animalfarm_english.wav,,,,,,,,,0,1,1,1,0,34,34,103,668.248089319,8.98004509509e-06,670.313152542,2.06507316546,,,,,z,1,2.05074794788,2018_Nov_27_1533,59.9890718773,spanish_cond2,001,1054,
images/donut.jpg,rhinoceros,x,sounds/animalfarm_english.wav,,,,,,,,,0,1,1,1,0,35,35,216,671.437371352,8.65943729877e-06,672.446978157,1.00961642701,,,,,x,1,1.00046568341,2018_Nov_27_1533,59.9890718773,spanish_cond2,001,1054,
images/watermelon01.jpg,orange,x,sounds/animalfarm_english.wav,,,,,,,,,0,1,1,1,0,36,36,207,673.574860535,8.65943729877e-06,675.731133246,2.15628201177,,,,,x,1,2.13408700062,2018_Nov_27_1533,59.9890718773,spanish_cond2,001,1054,
images/cocktailshrimp01.jpg,cocktail shrimp,z,sounds/animalfarm_english.wav,,,,,,,,,0,1,1,1,0,37,37,30,676.843713177,8.65932088345e-06,677.664927303,0.821223105304,,,,,z,1,0.800427389564,2018_Nov_27_1533,59.9890718773,spanish_cond2,001,1054,
images/barrel01.jpg,barrel,z,sounds/animalfarm_english.wav,,,,,,,,,0,1,1,1,0,38,38,9,678.793743614,9.30088572204e-06,680.28224072,1.48850672774,,,,,z,1,1.46726489242,2018_Nov_27_1533,59.9890718773,spanish_cond2,001,1054,
images/toucan.jpg,toucan,z,sounds/animalfarm_english.wav,,,,,,,,,0,1,1,1,0,39,39,81,681.380781194,8.98016151041e-06,683.116257291,1.73548507725,,,,,z,1,1.71730706689,2018_Nov_27_1533,59.9890718773,spanish_cond2,001,1054,
images/apple06.jpg,apple,z,sounds/animalfarm_english.wav,,,,,,,,,0,1,1,1,0,40,40,13,684.241555639,8.65943729877e-06,685.700284926,1.45873858803,,,,,z,1,1.45065166813,2018_Nov_27_1533,59.9890718773,spanish_cond2,001,1054,
images/leek.jpg,donut,x,sounds/animalfarm_english.wav,,,,,,,,,0,1,1,1,0,41,41,169,686.800979988,9.30088572204e-06,687.834064358,1.03309399181,,,,,x,1,1.01712669479,2018_Nov_27_1533,59.9890718773,spanish_cond2,001,1054,
images/orange.jpg,bat,x,sounds/animalfarm_english.wav,,,,,,,,,0,1,1,1,0,42,42,128,688.957161294,9.30088572204e-06,689.651174568,0.694023536867,,,,,x,1,0.683729110868,2018_Nov_27_1533,59.9890718773,spanish_cond2,001,1054,
images/arrow02.jpg,hammer,x,sounds/animalfarm_english.wav,,,,,,,,,0,1,1,1,0,43,43,184,690.747610165,9.62160993367e-06,691.818377369,1.07077714615,,,,,x,1,1.05048335495,2018_Nov_27_1533,59.9890718773,spanish_cond2,001,1054,
images/puma.jpg,puma,z,sounds/animalfarm_english.wav,,,,,,,,,0,1,1,1,0,44,44,4,692.915379676,8.33871308714e-06,693.635474109,0.720103733242,,,,,z,1,0.700390763581,2018_Nov_27_1533,59.9890718773,spanish_cond2,001,1054,
images/volleyball.jpg,volley ball,z,sounds/animalfarm_english.wav,,,,,,,,,0,1,1,1,0,45,45,2,694.766013641,8.98004509509e-06,695.66930864,0.903304941137,,,,,z,1,0.883775422582,2018_Nov_27_1533,59.9890718773,spanish_cond2,001,1054,
images/antelope.jpg,antelope,z,sounds/animalfarm_english.wav,,,,,,,,,0,1,1,1,0,46,46,12,696.773243601,8.98016151041e-06,698.653372132,1.88013815274,,,,,z,1,1.8673498187,2018_Nov_27_1533,59.9890718773,spanish_cond2,001,1054,
images/calculator02b.jpg,dice,x,sounds/animalfarm_english.wav,,,,,,,,,0,1,1,1,0,47,47,165,699.753363857,9.30088572204e-06,700.920583657,1.1672300623,,,,,x,1,1.15050715231,2018_Nov_27_1533,59.9890718773,spanish_cond2,001,1054,
images/broom02.jpg,broom,z,sounds/animalfarm_english.wav,,,,,,,,,0,1,1,1,0,48,48,116,702.013066076,8.98016151041e-06,703.087777157,1.07472038153,,,,,z,1,1.05048014782,2018_Nov_27_1533,59.9890718773,spanish_cond2,001,1054,
images/dice05a.jpg,band aid,x,sounds/animalfarm_english.wav,,,,,,,,,0,1,1,1,0,49,49,126,704.198618472,9.30088572204e-06,705.188288126,0.989679274964,,,,,x,1,0.967122172704,2018_Nov_27_1533,59.9890718773,spanish_cond2,001,1054,
images/parkfountain.jpg,park fountain,z,sounds/animalfarm_english.wav,,,,,,,,,0,1,1,1,0,50,50,93,706.306962352,9.62149351835e-06,707.488879082,1.18192667211,,,,,z,1,1.16719863203,2018_Nov_27_1533,59.9890718773,spanish_cond2,001,1054,
images/flipflop01b.jpg,flip flop,z,sounds/animalfarm_english.wav,,,,,,,,,0,1,1,1,0,51,51,27,708.604391664,8.98016151041e-06,709.889454708,1.28507234459,,,,,x,0,1.26722659857,2018_Nov_27_1533,59.9890718773,spanish_cond2,001,1054,
images/50dollarbill.jpg,cherry,x,sounds/animalfarm_english.wav,,,,,,,,,0,1,1,1,0,52,52,151,711.009140801,8.98016151041e-06,712.056629927,1.04749906831,,,,,x,1,1.03380791133,2018_Nov_27_1533,59.9890718773,spanish_cond2,001,1054,
images/aquarium.jpg,computer mouse,x,sounds/animalfarm_english.wav,,,,,,,,,0,1,1,1,0,53,53,159,713.192670425,9.30076930672e-06,714.423878399,1.23121727468,,,,,z,0,1.2171935325,2018_Nov_27_1533,59.9890718773,spanish_cond2,001,1054,
images/cheetah.jpg,cheetah,z,sounds/animalfarm_english.wav,,,,,,,,,0,1,1,1,0,54,54,82,715.528813681,8.98004509509e-06,716.641085722,1.11228166276,,,,,z,1,1.10045035311,2018_Nov_27_1533,59.9890718773,spanish_cond2,001,1054,
images/button07.jpg,radish,x,sounds/animalfarm_english.wav,,,,,,,,,0,1,1,1,0,55,55,215,717.753245512,8.65932088345e-06,718.424839913,0.671603702125,,,,,x,1,0.650381751359,2018_Nov_27_1533,59.9890718773,spanish_cond2,001,1054,
images/cookingpot.jpg,grasshopper,x,sounds/animalfarm_english.wav,,,,,,,,,0,1,1,1,0,56,56,183,719.540286748,8.98004509509e-06,720.692071964,1.15179483755,,,,,x,1,1.13384582032,2018_Nov_27_1533,59.9890718773,spanish_cond2,001,1054,
images/pingpongpaddle01c (1).jpg,ping pong paddle,z,sounds/animalfarm_english.wav,,,,,,,,,0,1,1,1,0,57,57,10,721.80327056,9.30088572204e-06,722.992632131,1.18937119271,,,,,z,1,1.16719125537,2018_Nov_27_1533,59.9890718773,spanish_cond2,001,1054,
images/crocodile.jpg,triangle ruler,x,sounds/animalfarm_english.wav,,,,,,,,,0,1,1,1,0,58,58,235,724.090163624,8.98016151041e-06,725.043123504,0.952969822334,,,,,x,1,0.933775775367,2018_Nov_27_1533,59.9890718773,spanish_cond2,001,1054,
images/wallet01.jpg,lamp,x,sounds/animalfarm_english.wav,,,,,,,,,0,1,1,1,0,59,59,193,726.149717543,9.30088572204e-06,726.876908516,0.727201236179,,,,,z,0,0.717049529892,2018_Nov_27_1533,59.9890718773,spanish_cond2,001,1054,
images/bicycle.jpg,hand bag,x,sounds/animalfarm_english.wav,,,,,,,,,0,1,1,1,0,60,60,186,727.988183764,9.30076930672e-06,729.144122286,1.15594814369,,,,,x,1,1.13382304925,2018_Nov_27_1533,59.9890718773,spanish_cond2,001,1054,
images/radish01.jpg,raisin,x,sounds/animalfarm_english.wav,,,,,,,,,0,1,1,1,0,61,61,214,730.25497194,9.30076930672e-06,731.361328327,1.10636600794,,,,,x,1,1.08382397937,2018_Nov_27_1533,59.9890718773,spanish_cond2,001,1054,
images/basketball01.jpg,basket ball,z,sounds/animalfarm_english.wav,,,,,,,,,0,1,1,1,0,62,62,33,732.501270687,8.65943729877e-06,733.211779482,0.710518736742,,,,,z,1,0.700372161809,2018_Nov_27_1533,59.9890718773,spanish_cond2,001,1054,
images/atm.jpg,atm,z,sounds/animalfarm_english.wav,,,,,,,,,0,1,1,1,0,63,63,96,734.349094836,9.62160993367e-06,735.228936003,0.879850788857,,,,,z,1,0.867101261741,2018_Nov_27_1533,59.9890718773,spanish_cond2,001,1054,
images/chessknight02b (1).jpg,cockroach,x,sounds/animalfarm_english.wav,,,,,,,,,0,1,1,1,0,64,64,155,736.337701628,8.98004509509e-06,737.8962796,1.55858791445,,,,,x,1,1.55063826207,2018_Nov_27_1533,59.9890718773,spanish_cond2,001,1054,
images/lightswitch02a.jpg,fork,x,sounds/animalfarm_english.wav,,,,,,,,,0,1,1,1,0,65,65,177,739.008106804,9.30088572204e-06,740.446864302,1.43876743992,,,,,x,1,1.41722380836,2018_Nov_27_1533,59.9890718773,spanish_cond2,001,1054,
images/diaper01a.jpg,camera,x,sounds/animalfarm_english.wav,,,,,,,,,0,1,1,1,0,66,66,143,741.568902866,8.65943729877e-06,742.44735436,0.878461115179,,,,,x,1,0.867101582466,2018_Nov_27_1533,59.9890718773,spanish_cond2,001,1054,
images/spoon02b.jpg,spoon,z,sounds/animalfarm_english.wav,,,,,,,,,0,1,1,1,0,67,67,38,743.5390693,8.98016151041e-06,744.397835727,0.858776047942,,,,,z,1,0.85043159104,2018_Nov_27_1533,59.9890718773,spanish_cond2,001,1054,
images/swallow.jpg,mattress,x,sounds/animalfarm_english.wav,,,,,,,,,0,1,1,1,0,68,68,202,745.500860809,9.30076930672e-06,746.348442494,0.847591627622,,,,,x,1,0.833898546523,2018_Nov_27_1533,59.9890718773,spanish_cond2,001,1054,
images/cloud.jpg,ceiling fan,x,sounds/animalfarm_english.wav,,,,,,,,,0,1,1,1,0,69,69,149,747.454248848,8.98004509509e-06,749.299032584,1.84479367849,,,,,x,1,1.83401496732,2018_Nov_27_1533,59.9890718773,spanish_cond2,001,1054,
images/beachumbrella01.jpg,beach umbrella,z,sounds/animalfarm_english.wav,,,,,,,,,0,1,1,1,0,70,70,92,750.405878708,9.30088572204e-06,751.166140902,0.760272136191,,,,,z,1,0.750394002767,2018_Nov_27_1533,59.9890718773,spanish_cond2,001,1054,
images/boxingglove02a.jpg,bracelet,x,sounds/animalfarm_english.wav,,,,,,,,,0,1,1,1,0,71,71,135,752.277952712,9.30088572204e-06,753.08329319,0.80535009969,,,,,x,1,0.783755473909,2018_Nov_27_1533,59.9890718773,spanish_cond2,001,1054,
images/giraffe.jpg,lettuce,x,sounds/animalfarm_english.wav,,,,,,,,,0,1,1,1,0,72,72,195,754.185095051,9.62160993367e-06,754.883719618,0.698634508415,,,,,x,1,0.683718527085,2018_Nov_27_1533,59.9890718773,spanish_cond2,001,1054,
images/parkbench03.jpg,park bench,z,sounds/animalfarm_english.wav,,,,,,,,,0,1,1,1,0,73,73,71,755.988684406,9.30076930672e-06,756.700850995,0.712176531204,,,,,z,1,0.700419307454,2018_Nov_27_1533,59.9890718773,spanish_cond2,001,1054,
images/egg01b (1).jpg,egg,z,sounds/animalfarm_english.wav,,,,,,,,,0,1,1,1,0,74,74,19,757.814835353,8.98016151041e-06,758.517943886,0.703117833938,,,,,z,1,0.68372622435,2018_Nov_27_1533,59.9890718773,spanish_cond2,001,1054,
images/coffeepot03b.jpg,coffee pot,z,sounds/animalfarm_english.wav,,,,,,,,,0,1,1,1,0,75,75,107,759.639629018,8.98016151041e-06,760.935181485,1.29556208826,,,,,z,1,1.28386066947,2018_Nov_27_1533,59.9890718773,spanish_cond2,001,1054,
images/lighter02b.jpg,stapler,x,sounds/animalfarm_english.wav,,,,,,,,,0,1,1,1,0,76,76,227,762.036833892,8.98016151041e-06,763.235751274,1.19892668317,,,,,x,1,1.18384970108,2018_Nov_27_1533,59.9890718773,spanish_cond2,001,1054,
images/lip.jpg,boxing glove,x,sounds/animalfarm_english.wav,,,,,,,,,0,1,1,1,0,77,77,136,764.338878024,8.65943729877e-06,765.653002022,1.3141342618,,,,,x,1,1.30054316914,2018_Nov_27_1533,59.9890718773,spanish_cond2,001,1054,
images/acousticguitar02.jpg,acoustic guitar,z,sounds/animalfarm_english.wav,,,,,,,,,0,1,1,1,0,78,78,97,766.767055014,8.98004509509e-06,768.453692081,1.68664700876,,,,,z,1,1.66726502066,2018_Nov_27_1533,59.9890718773,spanish_cond2,001,1054,
images/cactus.jpg,cactus,z,sounds/animalfarm_english.wav,,,,,,,,,0,1,1,1,0,79,79,70,769.565610369,8.65932088345e-06,770.35416219,0.788561763009,,,,,z,1,0.767086444539,2018_Nov_27_1533,59.9890718773,spanish_cond2,001,1054,
images/birthdaycandle.jpg,birthday candle,z,sounds/animalfarm_english.wav,,,,,,,,,0,1,1,1,0,80,80,55,771.452185024,8.98016151041e-06,772.421322271,0.969147189986,,,,,z,1,0.950454746955,2018_Nov_27_1533,59.9890718773,spanish_cond2,001,1054,
images/pineapple01a.jpg,pineapple,z,sounds/animalfarm_english.wav,,,,,,,,,0,1,1,1,0,81,81,51,773.534267501,9.30088572204e-06,774.521847031,0.987589472439,,,,,z,1,0.967144943657,2018_Nov_27_1533,59.9890718773,spanish_cond2,001,1054,
images/bottleofredwine02.jpg,pipe,x,sounds/animalfarm_english.wav,,,,,,,,,0,1,1,1,0,82,82,213,775.620193791,9.30076930672e-06,777.105946829,1.48576265923,,,,,x,1,1.46739863208,2018_Nov_27_1533,59.9890718773,spanish_cond2,001,1054,
images/saltshaker03c.jpg,salt shaker,z,sounds/animalfarm_english.wav,,,,,,,,,0,1,1,1,0,83,83,63,778.21710758,8.65932088345e-06,779.289522957,1.072425319,,,,,z,1,1.05034159741,2018_Nov_27_1533,59.9890718773,spanish_cond2,001,1054,
images/feather03b.jpg,feather,z,sounds/animalfarm_english.wav,,,,,,,,,0,1,1,1,0,84,84,114,780.390168627,8.65943729877e-06,781.590222957,1.20006395131,,,,,z,1,1.18383430643,2018_Nov_27_1533,59.9890718773,spanish_cond2,001,1054,
images/ostrich.jpg,ostrich,z,sounds/animalfarm_english.wav,,,,,,,,,0,1,1,1,0,85,85,76,782.690297428,8.98016151041e-06,785.107743494,2.41745600873,,,,,z,1,2.40081199538,2018_Nov_27_1533,59.9890718773,spanish_cond2,001,1054,
images/tape01a.jpg,tie,x,sounds/animalfarm_english.wav,,,,,,,,,0,1,1,1,0,86,86,232,786.233949797,9.62160993367e-06,787.391635274,1.15769509797,,,,,x,1,1.13383106724,2018_Nov_27_1533,59.9890718773,spanish_cond2,001,1054,
images/scissors04a.jpg,leek,x,sounds/animalfarm_english.wav,,,,,,,,,0,1,1,1,0,87,87,194,788.486211024,8.65932088345e-06,789.142056538,0.655854814453,,,,,x,1,0.633709835703,2018_Nov_27_1533,59.9890718773,spanish_cond2,001,1054,
images/plate01b.jpg,plate,z,sounds/animalfarm_english.wav,,,,,,,,,0,1,1,1,0,88,88,3,790.240872829,9.30088572204e-06,791.409289551,1.16842634277,,,,,z,1,1.15051933972,2018_Nov_27_1533,59.9890718773,spanish_cond2,001,1054,
images/daisy.jpg,daisy,z,sounds/animalfarm_english.wav,,,,,,,,,0,1,1,1,0,89,89,6,792.511206229,9.30076930672e-06,793.709825984,1.19862969767,,,,,z,1,1.18383719295,2018_Nov_27_1533,59.9890718773,spanish_cond2,001,1054,
images/comb02a.jpg,diploma,x,sounds/animalfarm_english.wav,,,,,,,,,0,1,1,1,0,90,90,166,794.814074929,9.30088572204e-06,796.727245175,1.91318050877,,,,,x,1,1.9006917259,2018_Nov_27_1533,59.9890718773,spanish_cond2,001,1054,
images/teapot.jpg,light switch,x,sounds/animalfarm_english.wav,,,,,,,,,0,1,1,1,0,91,91,197,797.845387649,8.65932088345e-06,799.077815637,1.232437609,,,,,x,1,1.21719257033,2018_Nov_27_1533,59.9890718773,spanish_cond2,001,1054,
images/tent.jpg,tent,z,sounds/animalfarm_english.wav,,,,,,,,,0,1,1,1,0,92,92,11,800.204671716,9.30076930672e-06,801.06162095,0.856959497673,,,,,z,1,0.8337532609,2018_Nov_27_1533,59.9890718773,spanish_cond2,001,1054,
images/dolphin01.jpg,dolphin,z,sounds/animalfarm_english.wav,,,,,,,,,0,1,1,1,0,93,93,99,802.162531535,9.30076930672e-06,804.312426114,2.14990516345,,,,,z,1,2.1340866799,2018_Nov_27_1533,59.9890718773,spanish_cond2,001,1054,
images/lollipop03b.jpg,lollipop,z,sounds/animalfarm_english.wav,,,,,,,,,0,1,1,1,0,94,94,42,805.406733423,8.98016151041e-06,806.462944492,1.05622036965,,,,,z,1,1.03381336352,2018_Nov_27_1533,59.9890718773,spanish_cond2,001,1054,
images/worldmap.jpg,scooter,x,sounds/animalfarm_english.wav,,,,,,,,,0,1,1,1,0,95,95,220,807.593553941,9.30088572204e-06,809.613923742,2.02037974366,,,,,x,1,2.00092815957,2018_Nov_27_1533,59.9890718773,spanish_cond2,001,1054,
images/broadsword.jpg,teapot,x,sounds/animalfarm_english.wav,,,,,,,,,0,1,1,1,0,96,96,231,810.70656171,9.30088572204e-06,811.597528927,0.890976838418,,,,,x,1,0.867104789708,2018_Nov_27_1533,59.9890718773,spanish_cond2,001,1054,
images/paintbrush03a.jpg,paint brush,z,sounds/animalfarm_english.wav,,,,,,,,,0,1,1,1,0,97,97,0,812.697924758,8.98016151041e-06,814.531572503,1.83365704538,,,,,z,1,1.81733150571,2018_Nov_27_1533,59.9890718773,spanish_cond2,001,1054,
images/apricot.jpg,apricot,z,sounds/animalfarm_english.wav,,,,,,,,,0,1,1,1,0,98,98,32,815.648934028,9.62149351835e-06,816.448711,0.799786593765,,,,,z,1,0.783759001759,2018_Nov_27_1533,59.9890718773,spanish_cond2,001,1054,
images/cola.jpg,comb,x,sounds/animalfarm_english.wav,,,,,,,,,0,1,1,1,0,99,99,157,817.569499082,8.65943729877e-06,819.48298684,1.91350764176,,,,,x,1,1.90086170682,2018_Nov_27_1533,59.9890718773,spanish_cond2,001,1054,
images/key03b.jpg,cigar,x,sounds/animalfarm_english.wav,,,,,,,,,0,1,1,1,0,100,100,153,820.584468624,9.30088572204e-06,821.516612262,0.932153580594,,,,,x,1,0.917117650504,2018_Nov_27_1533,59.9890718773,spanish_cond2,001,1054,
images/parrot01.jpg,chameleon,x,sounds/animalfarm_english.wav,,,,,,,,,0,1,1,1,0,101,101,150,822.629920545,9.30076930672e-06,823.583781644,0.953870720812,,,,,x,1,0.933788924827,2018_Nov_27_1533,59.9890718773,spanish_cond2,001,1054,
images/dresser02.jpg,dresser,z,sounds/animalfarm_english.wav,,,,,,,,,0,1,1,1,0,102,102,87,824.706979286,9.62149351835e-06,825.917677946,1.2107086021,,,,,z,1,1.20051840949,2018_Nov_27_1533,59.9890718773,spanish_cond2,001,1054,
images/bullet (2).jpg,rubber glove,x,sounds/animalfarm_english.wav,,,,,,,,,0,1,1,1,0,103,103,217,827.022491355,8.98016151041e-06,828.118228107,1.09574605245,,,,,x,1,1.08383552521,2018_Nov_27_1533,59.9890718773,spanish_cond2,001,1054,
images/grasshopper.jpg,cauliflower,x,sounds/animalfarm_english.wav,,,,,,,,,0,1,1,1,0,104,104,148,829.211465819,9.30088572204e-06,831.735768593,2.52431271609,,,,,x,1,2.50083579263,2018_Nov_27_1533,59.9890718773,spanish_cond2,001,1054,
images/fireextinguisher02.jpg,fire extinguisher,z,sounds/animalfarm_english.wav,,,,,,,,,0,1,1,1,0,105,105,175,832.845659298,9.30088572204e-06,833.836270261,0.990621225559,,,,,z,1,0.967128266231,2018_Nov_27_1533,59.9890718773,spanish_cond2,001,1054,
images/rhinoceros01.jpg,envelope,x,sounds/animalfarm_english.wav,,,,,,,,,0,1,1,1,0,106,106,173,834.948003815,8.98004509509e-06,836.12016653,1.17217201542,,,,,x,1,1.15050683171,2018_Nov_27_1533,59.9890718773,spanish_cond2,001,1054,
images/floorlamp.jpg,floor lamp,z,sounds/animalfarm_english.wav,,,,,,,,,0,1,1,1,0,107,107,26,837.214249336,8.65943729877e-06,838.103978899,0.889739185222,,,,,z,1,0.867107034661,2018_Nov_27_1533,59.9890718773,spanish_cond2,001,1054,
images/elbow.jpg,elbow,z,sounds/animalfarm_english.wav,,,,,,,,,0,1,1,1,0,108,108,105,839.215746129,9.30076930672e-06,840.938002205,1.72226569743,,,,,z,1,1.70062200166,2018_Nov_27_1533,59.9890718773,spanish_cond2,001,1054,
images/ladybug03.jpg,giraffe,x,sounds/animalfarm_english.wav,,,,,,,,,0,1,1,1,0,109,109,178,842.041868532,8.65932088345e-06,843.505284801,1.46342589054,,,,,x,1,1.45057277137,2018_Nov_27_1533,59.9890718773,spanish_cond2,001,1054,
images/headphones02b.jpg,headphones,z,sounds/animalfarm_english.wav,,,,,,,,,0,1,1,1,0,110,110,101,844.613095967,9.62149351835e-06,845.539116125,0.926030741539,,,,,z,1,0.917098086677,2018_Nov_27_1533,59.9890718773,spanish_cond2,001,1054,
images/lemon02.jpg,lemon,z,sounds/animalfarm_english.wav,,,,,,,,,0,1,1,1,0,111,111,14,846.651548526,9.30076930672e-06,847.406243365,0.754704781692,,,,,z,1,0.733740688651,2018_Nov_27_1533,59.9890718773,spanish_cond2,001,1054,
images/mushroom01.jpg,shower head,x,sounds/animalfarm_english.wav,,,,,,,,,0,1,1,1,0,112,112,222,848.522875897,8.98004509509e-06,850.056888106,1.53402183065,,,,,x,1,1.51726267941,2018_Nov_27_1533,59.9890718773,spanish_cond2,001,1054,
images/printer03a.jpg,printer,z,sounds/animalfarm_english.wav,,,,,,,,,0,1,1,1,0,113,113,72,851.16697926,8.98004509509e-06,852.17407965,1.00710969022,,,,,x,0,0.983800502843,2018_Nov_27_1533,59.9890718773,spanish_cond2,001,1054,
images/envelope02a.jpg,grand piano,x,sounds/animalfarm_english.wav,,,,,,,,,0,1,1,1,0,114,114,182,853.297078446,9.62160993367e-06,854.241268596,0.944199451129,,,,,x,1,0.933817148092,2018_Nov_27_1533,59.9890718773,spanish_cond2,001,1054,
images/bandaid01.jpg,door handle,x,sounds/animalfarm_english.wav,,,,,,,,,0,1,1,1,0,115,115,170,855.34859227,8.98016151041e-06,856.641823054,1.29324072693,,,,,x,1,1.28386997036,2018_Nov_27_1533,59.9890718773,spanish_cond2,001,1054,
images/notebook02b.jpg,notebook,z,sounds/animalfarm_english.wav,,,,,,,,,0,1,1,1,0,116,116,7,857.749395285,8.98004509509e-06,860.492777417,2.74339367764,,,,,z,1,2.73423170892,2018_Nov_27_1533,59.9890718773,spanish_cond2,001,1054,
images/pictureframe04.jpg,picture frame,z,sounds/animalfarm_english.wav,,,,,,,,,0,1,1,1,0,117,117,41,861.614964474,8.65932088345e-06,862.876682089,1.26172723644,,,,,z,1,1.25054441986,2018_Nov_27_1533,59.9890718773,spanish_cond2,001,1054,
images/doll.jpg,carrot,x,sounds/animalfarm_english.wav,,,,,,,,,0,1,1,1,0,118,118,146,863.989363367,9.62160993367e-06,865.560679641,1.57132653706,,,,,x,1,1.55061837763,2018_Nov_27_1533,59.9890718773,spanish_cond2,001,1054,
images/nailpolish02b.jpg,nail polish,z,sounds/animalfarm_english.wav,,,,,,,,,0,1,1,1,0,119,119,94,866.669831732,9.94233414531e-06,867.661173291,0.991351181176,,,,,z,1,0.96711575822,2018_Nov_27_1533,59.9890718773,spanish_cond2,001,1054,
images/microphone01.jpg,diaper,x,sounds/animalfarm_english.wav,,,,,,,,,0,1,1,1,0,120,120,164,868.760588685,8.98016151041e-06,870.328487703,1.56790831813,,,,,x,1,1.5505988138,2018_Nov_27_1533,59.9890718773,spanish_cond2,001,1054,
images/tie01.jpg,bench,x,sounds/animalfarm_english.wav,,,,,,,,,0,1,1,1,0,121,121,130,871.427112846,9.30088572204e-06,873.729447549,2.30234464549,,,,,x,1,2.28424873913,2018_Nov_27_1533,59.9890718773,spanish_cond2,001,1054,
images/razor04a.jpg,razor,z,sounds/animalfarm_english.wav,,,,,,,,,0,1,1,1,0,122,122,36,874.830606049,8.98016151041e-06,875.796499228,0.965902800555,,,,,z,1,0.95046982076,2018_Nov_27_1533,59.9890718773,spanish_cond2,001,1054,
images/ceilingfan02.jpg,paper clip,x,sounds/animalfarm_english.wav,,,,,,,,,0,1,1,1,0,123,123,208,876.894978124,8.98016151041e-06,878.797221166,1.90225234267,,,,,x,1,1.88402333809,2018_Nov_27_1533,59.9890718773,spanish_cond2,001,1054,
images/carrot02.jpg,corkscrew,x,sounds/animalfarm_english.wav,,,,,,,,,0,1,1,1,0,124,124,161,879.899496087,9.62160993367e-06,881.781292996,1.88180685171,,,,,x,1,1.86735559162,2018_Nov_27_1533,59.9890718773,spanish_cond2,001,1054,
images/bat.jpg,hand,x,sounds/animalfarm_english.wav,,,,,,,,,0,1,1,1,0,125,125,185,882.880516601,8.98016151041e-06,883.698721102,0.818214443978,,,,,x,1,0.800724695786,2018_Nov_27_1533,59.9890718773,spanish_cond2,001,1054,
images/rubberglove02a.jpg,lady bug,x,sounds/animalfarm_english.wav,,,,,,,,,0,1,1,1,0,126,126,192,884.803544775,8.98004509509e-06,886.2156884,1.41215324705,,,,,x,1,1.40057081496,2018_Nov_27_1533,59.9890718773,spanish_cond2,001,1054,
images/mattress.jpg,cat,x,sounds/animalfarm_english.wav,,,,,,,,,0,1,1,1,0,127,127,147,887.319921308,9.30088572204e-06,888.61627044,1.29635875323,,,,,x,1,1.28386451816,2018_Nov_27_1533,59.9890718773,spanish_cond2,001,1054,
images/eraser.jpg,eraser,z,sounds/animalfarm_english.wav,,,,,,,,,0,1,1,1,0,128,128,110,889.724594756,9.30088572204e-06,891.000185375,1.27560056164,,,,,x,0,1.26717784943,2018_Nov_27_1533,59.9890718773,spanish_cond2,001,1054,
images/scooter.jpg,pen,x,sounds/animalfarm_english.wav,,,,,,,,,0,1,1,1,0,129,129,212,892.093933351,9.62160993367e-06,892.917311685,0.823388276738,,,,,x,1,0.800407184288,2018_Nov_27_1533,59.9890718773,spanish_cond2,001,1054,
images/redfox.jpg,red fox,z,sounds/animalfarm_english.wav,,,,,,,,,0,1,1,1,0,130,130,1,894.030531771,8.98016151041e-06,894.851127871,0.820605722023,,,,,z,1,0.800425465335,2018_Nov_27_1533,59.9890718773,spanish_cond2,001,1054,
images/thumbtack02a.jpg,thumb tack,z,sounds/animalfarm_english.wav,,,,,,,,,0,1,1,1,0,131,131,60,895.961695614,8.98016151041e-06,896.95163435,0.989948037197,,,,,z,1,0.967122814036,2018_Nov_27_1533,59.9890718773,spanish_cond2,001,1054,
images/grandpiano.jpg,tulip,x,sounds/animalfarm_english.wav,,,,,,,,,0,1,1,1,0,132,132,236,898.066014154,8.98016151041e-06,899.385415257,1.31941168662,,,,,x,1,1.30039371422,2018_Nov_27_1533,59.9890718773,spanish_cond2,001,1054,
images/bowlingball.jpg,bowling ball,z,sounds/animalfarm_english.wav,,,,,,,,,0,1,1,1,0,133,133,20,900.518174483,8.98016151041e-06,901.752804203,1.23463902157,,,,,z,1,1.21718775958,2018_Nov_27_1533,59.9890718773,spanish_cond2,001,1054,
images/banana04a.jpg,banana,z,sounds/animalfarm_english.wav,,,,,,,,,0,1,1,1,0,134,134,118,902.858011776,9.30088572204e-06,904.120048826,1.26204699301,,,,,z,1,1.25052678026,2018_Nov_27_1533,59.9890718773,spanish_cond2,001,1054,
images/tissuebox03.jpg,tissue box,z,sounds/animalfarm_english.wav,,,,,,,,,0,1,1,1,0,135,135,58,905.245222415,9.62160993367e-06,907.337580717,2.09236824408,,,,,z,1,2.08414630161,2018_Nov_27_1533,59.9890718773,spanish_cond2,001,1054,
images/computerkeyboard01a.jpg,computer keyboard,z,sounds/animalfarm_english.wav,,,,,,,,,0,1,1,1,0,136,136,61,908.454309143,8.98004509509e-06,910.288221481,1.83392227953,,,,,z,1,1.8173395237,2018_Nov_27_1533,59.9890718773,spanish_cond2,001,1054,
images/honeycomb.jpg,honey comb,z,sounds/animalfarm_english.wav,,,,,,,,,0,1,1,1,0,137,137,59,911.40164426,8.98016151041e-06,913.805737207,2.4041025684,,,,,z,1,2.38413847599,2018_Nov_27_1533,59.9890718773,spanish_cond2,001,1054,
images/marker01a.jpg,marker,z,sounds/animalfarm_english.wav,,,,,,,,,0,1,1,1,0,138,138,95,914.905745289,9.30088572204e-06,915.8729114,0.967175732716,,,,,z,1,0.950454105507,2018_Nov_27_1533,59.9890718773,spanish_cond2,001,1054,
images/binder03b.jpg,dj mixer,x,sounds/animalfarm_english.wav,,,,,,,,,0,1,1,1,0,139,139,167,916.987219042,8.98016151041e-06,918.506903468,1.51969372656,,,,,x,1,1.50060519611,2018_Nov_27_1533,59.9890718773,spanish_cond2,001,1054,
images/kiwi03.jpg,backpack,x,sounds/animalfarm_english.wav,,,,,,,,,0,1,1,1,0,140,140,125,919.63552382,8.98016151041e-06,921.407625342,1.7721111431,,,,,x,1,1.75067302794,2018_Nov_27_1533,59.9890718773,spanish_cond2,001,1054,
images/gorilla.jpg,gorilla,z,sounds/animalfarm_english.wav,,,,,,,,,0,1,1,1,0,141,141,80,922.519778396,8.98016151041e-06,923.391402111,0.87163333653,,,,,z,1,0.850400802097,2018_Nov_27_1533,59.9890718773,spanish_cond2,001,1054,
images/lantern03.jpg,lantern,z,sounds/animalfarm_english.wav,,,,,,,,,0,1,1,1,0,142,142,5,924.498093328,9.30088572204e-06,926.275748413,1.77766470669,,,,,z,1,1.76761274377,2018_Nov_27_1533,59.9890718773,spanish_cond2,001,1054,
images/blackolive.jpg,tank,x,sounds/animalfarm_english.wav,,,,,,,,,0,1,1,1,0,143,143,229,927.390795632,8.98016151041e-06,928.175930838,0.785144506139,,,,,x,1,0.767108253436,2018_Nov_27_1533,59.9890718773,spanish_cond2,001,1054,
images/butterfly.jpg,butterfly,z,sounds/animalfarm_english.wav,,,,,,,,,0,1,1,1,0,144,144,91,929.28306657,9.62149351835e-06,931.393365551,2.1103092432,,,,,z,1,2.1007431692,2018_Nov_27_1533,59.9890718773,spanish_cond2,001,1054,
images/banjo.jpg,knife,x,sounds/animalfarm_english.wav,,,,,,,,,0,1,1,1,0,145,145,191,932.490126036,8.98004509509e-06,933.74392126,1.25380484527,,,,,x,1,1.23385486461,2018_Nov_27_1533,59.9890718773,spanish_cond2,001,1054,
images/gps.jpg,gps,z,sounds/animalfarm_english.wav,,,,,,,,,0,1,1,1,0,146,146,21,934.86250376,9.30088572204e-06,935.694417379,0.831923561171,,,,,z,1,0.817104116199,2018_Nov_27_1533,59.9890718773,spanish_cond2,001,1054,
images/cupcake.jpg,scissors,x,sounds/animalfarm_english.wav,,,,,,,,,0,1,1,1,0,147,147,219,936.813482882,9.30088572204e-06,938.395065038,1.58159177785,,,,,x,1,1.56728195457,2018_Nov_27_1533,59.9890718773,spanish_cond2,001,1054,
images/hand01a.jpg,cupcake,x,sounds/animalfarm_english.wav,,,,,,,,,0,1,1,1,0,148,148,163,939.506562224,9.30088572204e-06,942.495920459,2.98936849867,,,,,None,0,,2018_Nov_27_1533,59.9890718773,spanish_cond2,001,1054,
images/camera01a.jpg,bull,x,sounds/animalfarm_english.wav,,,,,,,,,0,1,1,1,0,149,149,138,943.606753436,9.30088572204e-06,944.363194588,0.756450453191,,,,,x,1,0.733755762456,2018_Nov_27_1533,59.9890718773,spanish_cond2,001,1054,
images/skateboard.jpg,key,x,sounds/animalfarm_english.wav,,,,,,,,,0,1,1,1,0,150,150,189,945.454394134,8.98016151041e-06,946.480371379,1.02598718787,,,,,x,1,1.01714882441,2018_Nov_27_1533,59.9890718773,spanish_cond2,001,1054,
images/triangleruler02.jpg,bottle of red wine,x,sounds/animalfarm_english.wav,,,,,,,,,0,1,1,1,0,151,151,134,947.591192489,8.98016151041e-06,948.397490633,0.806307765422,,,,,x,1,0.78374360723,2018_Nov_27_1533,59.9890718773,spanish_cond2,001,1054,
images/table02.jpg,table,z,sounds/animalfarm_english.wav,,,,,,,,,0,1,1,1,0,152,152,49,949.511994876,8.98004509509e-06,950.581374651,1.06938907586,,,,,z,1,1.05049265595,2018_Nov_27_1533,59.9890718773,spanish_cond2,001,1054,
images/parkingmeter.jpg,ear,x,sounds/animalfarm_english.wav,,,,,,,,,0,1,1,1,0,153,153,171,951.683223658,1.05836661533e-05,954.132226191,2.44901279605,,,,,x,1,2.43415710982,2018_Nov_27_1533,59.9890718773,spanish_cond2,001,1054,
images/sock03.jpg,sock,z,sounds/animalfarm_english.wav,,,,,,,,,0,1,1,1,0,154,154,90,955.238152173,8.98016151041e-06,955.966024674,0.727882121806,,,,,z,1,0.717090581777,2018_Nov_27_1533,59.9890718773,spanish_cond2,001,1054,
images/cherry01.jpg,highlighter,x,sounds/animalfarm_english.wav,,,,,,,,,0,1,1,1,0,155,155,187,957.07575053,8.98004509509e-06,958.366589074,1.29084848671,,,,,x,1,1.26720511052,2018_Nov_27_1533,59.9890718773,spanish_cond2,001,1054,
images/hairband.jpg,hairband,z,sounds/animalfarm_english.wav,,,,,,,,,0,1,1,1,0,156,156,66,959.477293443,8.98016151041e-06,960.833879945,1.35659612354,,,,,z,1,1.33391297876,2018_Nov_27_1533,59.9890718773,spanish_cond2,001,1054,
images/stapler03a.jpg,candy cane,x,sounds/animalfarm_english.wav,,,,,,,,,0,1,1,1,0,157,157,145,961.944940952,8.98016151041e-06,962.98439736,1.03946602915,,,,,x,1,1.01716004941,2018_Nov_27_1533,59.9890718773,spanish_cond2,001,1054,
images/candy.jpg,candy,z,sounds/animalfarm_english.wav,,,,,,,,,0,1,1,1,0,158,158,31,964.087576066,8.98016151041e-06,965.918425541,1.83085909614,,,,,z,1,1.81733535428,2018_Nov_27_1533,59.9890718773,spanish_cond2,001,1054,
images/ear.jpg,bullet,x,sounds/animalfarm_english.wav,,,,,,,,,0,1,1,1,0,159,159,139,967.021992317,9.30088572204e-06,968.185648612,1.16366623715,,,,,x,1,1.15050907666,2018_Nov_27_1533,59.9890718773,spanish_cond2,001,1054,
images/swan.jpg,swan,z,sounds/animalfarm_english.wav,,,,,,,,,0,1,1,1,0,160,160,54,969.277765412,8.98016151041e-06,971.33641747,2.05866167974,,,,,x,0,2.05073351553,2018_Nov_27_1533,59.9890718773,spanish_cond2,001,1054,
images/charcoalbarbecue.jpg,charcoal barbecue,z,sounds/animalfarm_english.wav,,,,,,,,,0,1,1,1,0,161,161,77,972.453290541,8.98016151041e-06,973.353575596,0.900294676307,,,,,x,0,0.883781516226,2018_Nov_27_1533,59.9890718773,spanish_cond2,001,1054,
images/sportshorts02.jpg,tape,x,sounds/animalfarm_english.wav,,,,,,,,,0,1,1,1,0,162,162,230,974.461268416,8.98016151041e-06,975.454077905,0.992819431005,,,,,x,1,0.983797616325,2018_Nov_27_1533,59.9890718773,spanish_cond2,001,1054,
images/paperclip04.jpg,eye drops,x,sounds/animalfarm_english.wav,,,,,,,,,0,1,1,1,0,163,163,174,976.559336472,8.65943729877e-06,977.587792551,1.02846538066,,,,,x,1,1.01699455874,2018_Nov_27_1533,59.9890718773,spanish_cond2,001,1054,
images/bench02.jpg,electric toothbrush,x,sounds/animalfarm_english.wav,,,,,,,,,0,1,1,1,0,164,164,172,978.696525463,8.98016151041e-06,979.721788468,1.0252729475,,,,,x,1,1.01714401355,2018_Nov_27_1533,59.9890718773,spanish_cond2,001,1054,
images/clothespin02a.jpg,clothes pin,z,sounds/animalfarm_english.wav,,,,,,,,,0,1,1,1,0,165,165,79,980.826944084,8.65943729877e-06,981.705596347,0.878662205767,,,,,z,1,0.86709837534,2018_Nov_27_1533,59.9890718773,spanish_cond2,001,1054,
images/backpack01b.jpg,swallow,x,sounds/animalfarm_english.wav,,,,,,,,,0,1,1,1,0,166,166,228,982.837246528,9.62160993367e-06,983.806112127,0.968875541352,,,,,x,1,0.950452501886,2018_Nov_27_1533,59.9890718773,spanish_cond2,001,1054,
images/hairdryer03a.jpg,hairdryer,z,sounds/animalfarm_english.wav,,,,,,,,,0,1,1,1,0,167,167,119,984.905854654,9.94221772999e-06,985.639894894,0.73405018216,,,,,z,1,0.717053378583,2018_Nov_27_1533,59.9890718773,spanish_cond2,001,1054,
images/dreamcatcher.jpg,dream catcher,z,sounds/animalfarm_english.wav,,,,,,,,,0,1,1,1,0,168,168,48,986.737807401,9.30076930672e-06,987.557025373,0.819227594067,,,,,z,1,0.800415523117,2018_Nov_27_1533,59.9890718773,spanish_cond2,001,1054,
images/shotglass.jpg,shot glass,z,sounds/animalfarm_english.wav,,,,,,,,,0,1,1,1,0,169,169,86,988.665528971,9.94233414531e-06,989.374141677,0.708622968988,,,,,z,1,0.700401667971,2018_Nov_27_1533,59.9890718773,spanish_cond2,001,1054,
images/pouch01b.jpg,pouch,z,sounds/animalfarm_english.wav,,,,,,,,,0,1,1,1,0,170,170,25,990.486408586,8.98016151041e-06,991.474653287,0.988254642929,,,,,z,1,0.967134039267,2018_Nov_27_1533,59.9890718773,spanish_cond2,001,1054,
images/computermouse02a.jpg,world map,x,sounds/animalfarm_english.wav,,,,,,,,,0,1,1,1,0,171,171,239,992.577517689,8.98016151041e-06,993.708517453,1.13100938487,,,,,x,1,1.11712515529,2018_Nov_27_1533,59.9890718773,spanish_cond2,001,1054,
images/ladder.jpg,ladder,z,sounds/animalfarm_english.wav,,,,,,,,,0,1,1,1,0,172,172,113,994.800497948,9.30076930672e-06,996.159131917,1.35864423262,,,,,z,1,1.35056789638,2018_Nov_27_1533,59.9890718773,spanish_cond2,001,1054,
images/panda.jpg,panda,z,sounds/animalfarm_english.wav,,,,,,,,,0,1,1,1,0,173,173,83,997.268226278,8.98016151041e-06,998.076260152,0.808043494588,,,,,z,1,0.783752908115,2018_Nov_27_1533,59.9890718773,spanish_cond2,001,1054,
images/icecube02 (2).jpg,aloe,x,sounds/animalfarm_english.wav,,,,,,,,,0,1,1,1,0,174,174,122,999.18711622,9.30088572204e-06,1000.14342633,0.956319728284,,,,,x,1,0.933786038309,2018_Nov_27_1533,59.9890718773,spanish_cond2,001,1054,
images/peach01.jpg,peach,z,sounds/animalfarm_english.wav,,,,,,,,,0,1,1,1,0,175,175,106,1001.27343539,8.98016151041e-06,1002.14390837,0.870482598199,,,,,z,1,0.850428704522,2018_Nov_27_1533,59.9890718773,spanish_cond2,001,1054,
images/tulip02.jpg,sport shorts,x,sounds/animalfarm_english.wav,,,,,,,,,0,1,1,1,0,176,176,225,1003.23868874,8.98004509509e-06,1005.7114501,2.47277131025,,,,,x,1,2.45082678052,2018_Nov_27_1533,59.9890718773,spanish_cond2,001,1054,
images/candycane01a.jpg,lip,x,sounds/animalfarm_english.wav,,,,,,,,,0,1,1,1,0,177,177,200,1006.80540174,9.30088572204e-06,1007.86197201,1.05657957448,,,,,x,1,1.03381304292,2018_Nov_27_1533,59.9890718773,spanish_cond2,001,1054,
images/mitten01.jpg,mitten,z,sounds/animalfarm_english.wav,,,,,,,,,0,1,1,1,0,178,178,102,1008.9820683,9.62149351835e-06,1010.31256242,1.33050406061,,,,,z,1,1.31720482185,2018_Nov_27_1533,59.9890718773,spanish_cond2,001,1054,
images/pepper05a.jpg,lighter,x,sounds/animalfarm_english.wav,,,,,,,,,0,1,1,1,0,179,179,198,1011.43646115,9.30088572204e-06,1013.36331742,1.92686589283,,,,,x,1,1.91737069748,2018_Nov_27_1533,59.9890718773,spanish_cond2,001,1054,
images/highlighter03b.jpg,coin,x,sounds/animalfarm_english.wav,,,,,,,,,0,1,1,1,0,180,180,156,1014.46547977,8.98016151041e-06,1015.68061333,1.21514285775,,,,,x,1,1.20057966688,2018_Nov_27_1533,59.9890718773,spanish_cond2,001,1054,
images/bus.jpg,microphone,x,sounds/animalfarm_english.wav,,,,,,,,,0,1,1,1,0,181,181,203,1016.79890109,8.98016151041e-06,1018.68129582,1.88240402972,,,,,x,1,1.86737194832,2018_Nov_27_1533,59.9890718773,spanish_cond2,001,1054,
images/plant01.jpg,plant,z,sounds/animalfarm_english.wav,,,,,,,,,0,1,1,1,0,182,182,47,1019.79265093,9.62149351835e-06,1022.23213421,2.43949322612,,,,,z,1,2.41748102463,2018_Nov_27_1533,59.9890718773,spanish_cond2,001,1054,
images/squirrel.jpg,binder,x,sounds/animalfarm_english.wav,,,,,,,,,0,1,1,1,0,183,183,132,1023.33528052,8.98004509509e-06,1024.21594979,0.880678884336,,,,,x,1,0.867052833317,2018_Nov_27_1533,59.9890718773,spanish_cond2,001,1054,
images/knife04.jpg,tooth brush,x,sounds/animalfarm_english.wav,,,,,,,,,0,1,1,1,0,184,184,233,1025.3132757,9.30088572204e-06,1026.68323232,1.36996624118,,,,,x,1,1.35056950001,2018_Nov_27_1533,59.9890718773,spanish_cond2,001,1054,
images/axe01.jpg,axe,z,sounds/animalfarm_english.wav,,,,,,,,,0,1,1,1,0,185,185,104,1027.78600499,9.30088572204e-06,1029.90065837,2.11466299847,,,,,z,1,2.10072649189,2018_Nov_27_1533,59.9890718773,spanish_cond2,001,1054,
images/globe.jpg,cloud,x,sounds/animalfarm_english.wav,,,,,,,,,0,1,1,1,0,186,186,154,1031.02974088,9.30076930672e-06,1032.26791358,1.23818264145,,,,,x,1,1.21719224961,2018_Nov_27_1533,59.9890718773,spanish_cond2,001,1054,
images/nailclipper03a.jpg,aquarium,x,sounds/animalfarm_english.wav,,,,,,,,,0,1,1,1,0,187,187,123,1033.36707817,8.98016151041e-06,1034.06835348,0.701284927083,,,,,x,1,0.683727827854,2018_Nov_27_1533,59.9890718773,spanish_cond2,001,1054,
images/hammer02a.jpg,flower,x,sounds/animalfarm_english.wav,,,,,,,,,0,1,1,1,0,188,188,176,1035.1632756,8.98016151041e-06,1035.85211729,0.688851307728,,,,,x,1,0.667054308578,2018_Nov_27_1533,59.9890718773,spanish_cond2,001,1054,
images/djmixer01.jpg,light bulb,x,sounds/animalfarm_english.wav,,,,,,,,,0,1,1,1,0,189,189,196,1036.9740266,9.30088572204e-06,1037.68591737,0.711901033879,,,,,x,1,0.700420911075,2018_Nov_27_1533,59.9890718773,spanish_cond2,001,1054,
images/bowtie.jpg,bowtie,z,sounds/animalfarm_english.wav,,,,,,,,,0,1,1,1,0,190,190,89,1038.79652456,8.98016151041e-06,1039.50300706,0.706492435187,,,,,z,1,0.683727827971,2018_Nov_27_1533,59.9890718773,spanish_cond2,001,1054,
images/fryingpan01.jpg,frying pan,z,sounds/animalfarm_english.wav,,,,,,,,,0,1,1,1,0,191,191,45,1040.60455491,9.94233414531e-06,1041.67022589,1.06568156881,,,,,x,0,1.05050003238,2018_Nov_27_1533,59.9890718773,spanish_cond2,001,1054,
images/lily.jpg,kiwi,x,sounds/animalfarm_english.wav,,,,,,,,,0,1,1,1,0,192,192,190,1042.76954956,9.62149351835e-06,1043.38727959,0.61774061434,,,,,x,1,0.600367286941,2018_Nov_27_1533,59.9890718773,spanish_cond2,001,1054,
images/screwdriver02b.jpg,cola,x,sounds/animalfarm_english.wav,,,,,,,,,0,1,1,1,0,193,193,158,1044.48112571,9.30076930672e-06,1045.17106008,0.68994463759,,,,,x,1,0.66706457152,2018_Nov_27_1533,59.9890718773,spanish_cond2,001,1054,
images/dragonfly02.jpg,dragon fly,z,sounds/animalfarm_english.wav,,,,,,,,,0,1,1,1,0,194,194,29,1046.26848927,8.98004509509e-06,1046.75477245,0.486292486312,,,,,x,0,0.466995168128,2018_Nov_27_1533,59.9890718773,spanish_cond2,001,1054,
images/puzzle.jpg,puzzle,z,sounds/animalfarm_english.wav,,,,,,,,,0,1,1,1,0,195,195,57,1047.87591557,9.62149351835e-06,1048.58854977,0.712644780404,,,,,z,1,0.700370558305,2018_Nov_27_1533,59.9890718773,spanish_cond2,001,1054,
images/remotecontrol01c.jpg,remote control,z,sounds/animalfarm_english.wav,,,,,,,,,0,1,1,1,0,196,196,85,1049.69816177,8.98004509509e-06,1050.37233218,0.674180034664,,,,,z,1,0.650398749509,2018_Nov_27_1533,59.9890718773,spanish_cond2,001,1054,
images/pen03c.jpg,pepper,x,sounds/animalfarm_english.wav,,,,,,,,,0,1,1,1,0,197,197,211,1051.46631973,8.98016151041e-06,1052.17277016,0.706460363348,,,,,z,0,0.683734242339,2018_Nov_27_1533,59.9890718773,spanish_cond2,001,1054,
,,,sounds/animalfarm_english.wav,,,,,,,,,0,1,1,1,,,,,,,,,,,,,,,,2018_Nov_27_1533,59.9890718773,spanish_cond2,001,1054,
