images,name,corrAns,sounds,trials_3.thisRepN,trials_3.thisTrialN,trials_3.thisN,trials_3.thisIndex,trials_4.thisRepN,trials_4.thisTrialN,trials_4.thisN,trials_4.thisIndex,trials_2.thisRepN,trials_2.thisTrialN,trials_2.thisN,trials_2.thisIndex,trials.thisRepN,trials.thisTrialN,trials.thisN,trials.thisIndex,begin_global,begin_routine,end_global,end_routine,key_resp_2.keys,key_resp_2.corr,key_resp_2.rt,begin_book,key_resp_1.keys,key_resp_1.corr,key_resp_1.rt,date,frameRate,expName,session,participant,
images/volleyball.jpg,volley ball,z,,0,0,0,0,,,,,,,,,,,,,,,,,,,,,,,,2018_Nov_27_1532,59.9865130437,spanish_cond1,001,1055,
images/puma.jpg,puma,z,,,,,,0,0,0,0,,,,,,,,,48.1585312542,1.05841318145e-05,50.3234434652,2.16492375731,z,1,2.15086255979,,,,,2018_Nov_27_1532,59.9865130437,spanish_cond1,001,1055,
images/notebook02b.jpg,notebook,z,sounds/animalfarm_spanish.wav,,,,,,,,,0,0,0,1,0,0,0,7,92.5097686851,9.30123496801e-06,95.5027709614,2.99301253969,,,,82.3241657529,None,0,,2018_Nov_27_1532,59.9865130437,spanish_cond1,001,1055,
images/marker01a.jpg,marker,z,sounds/animalfarm_spanish.wav,,,,,,,,,0,0,0,1,0,1,1,95,96.6091287934,9.94268339127e-06,99.6039595609,2.99484103092,,,,,None,0,,2018_Nov_27_1532,59.9865130437,spanish_cond1,001,1055,
images/bed.jpg,bed,z,sounds/animalfarm_spanish.wav,,,,,,,,,0,0,0,1,0,2,2,103,100.725520395,9.30123496801e-06,103.721769759,2.99625930644,,,,,None,0,,2018_Nov_27_1532,59.9865130437,spanish_cond1,001,1055,
images/flamingo.jpg,flamingo,z,sounds/animalfarm_spanish.wav,,,,,,,,,0,0,0,1,0,3,3,52,104.822350572,9.30123496801e-06,107.822936869,3.00059624016,,,,,None,0,,2018_Nov_27_1532,59.9865130437,spanish_cond1,001,1055,
images/lamp04b.jpg,parking meter,x,sounds/animalfarm_spanish.wav,,,,,,,,,0,0,0,1,0,4,4,209,108.945173485,9.94268339127e-06,110.473849303,1.52868576022,,,,,x,1,1.51733827346,2018_Nov_27_1532,59.9865130437,spanish_cond1,001,1055,
images/cake.jpg,cake,z,sounds/animalfarm_spanish.wav,,,,,,,,,0,0,0,1,0,5,5,23,111.589032709,9.30123496801e-06,112.407728543,0.818706097896,,,,,z,1,0.800453899428,2018_Nov_27_1532,59.9865130437,spanish_cond1,001,1055,
images/mirror02.jpg,8 ball,x,sounds/animalfarm_spanish.wav,,,,,,,,,0,0,0,1,0,6,6,121,113.511091062,8.65978654474e-06,114.858420377,1.34733829589,,,,,x,1,1.33394582395,2018_Nov_27_1532,59.9865130437,spanish_cond1,001,1055,
images/apricot.jpg,apricot,z,sounds/animalfarm_spanish.wav,,,,,,,,,0,0,0,1,0,7,7,32,115.975610922,9.62195917964e-06,117.642552883,1.66695158323,,,,,z,1,1.65070844814,2018_Nov_27_1532,59.9865130437,spanish_cond1,001,1055,
images/charcoalbarbecue.jpg,charcoal barbecue,z,sounds/animalfarm_spanish.wav,,,,,,,,,0,0,0,1,0,8,8,77,118.761597577,9.62195917964e-06,120.49336775,1.73178043601,,,,,z,1,1.7174033178,2018_Nov_27_1532,59.9865130437,spanish_cond1,001,1055,
images/volleyball.jpg,volley ball,z,sounds/animalfarm_spanish.wav,,,,,,,,,0,0,0,1,0,9,9,2,121.625676944,9.30123496801e-06,122.34388145,0.718215410481,,,,,z,1,0.700420896173,2018_Nov_27_1532,59.9865130437,spanish_cond1,001,1055,
images/scooter.jpg,pen,x,sounds/animalfarm_spanish.wav,,,,,,,,,0,0,0,1,0,10,10,212,123.437919337,9.30123496801e-06,125.061329349,1.62341963477,,,,,x,1,1.60068168317,2018_Nov_27_1532,59.9865130437,spanish_cond1,001,1055,
images/flashlight05.jpg,flash light,z,sounds/animalfarm_spanish.wav,,,,,,,,,0,0,0,1,0,11,11,8,126.16488559,9.30123496801e-06,126.978547862,0.813672214164,,,,,z,1,0.800466408022,2018_Nov_27_1532,59.9865130437,spanish_cond1,001,1055,
images/8ball.jpg,nail clipper,x,sounds/animalfarm_spanish.wav,,,,,,,,,0,0,0,1,0,12,12,206,128.095956183,8.98051075637e-06,129.079127071,0.983180189389,,,,,x,1,0.967168301693,2018_Nov_27_1532,59.9865130437,spanish_cond1,001,1055,
images/teapot.jpg,light switch,x,sounds/animalfarm_spanish.wav,,,,,,,,,0,0,0,1,0,13,13,197,130.197773417,9.94268339127e-06,131.563168906,1.36540575291,,,,,x,1,1.35060815536,2018_Nov_27_1532,59.9865130437,spanish_cond1,001,1055,
images/beachumbrella01.jpg,beach umbrella,z,sounds/animalfarm_spanish.wav,,,,,,,,,0,0,0,1,0,14,14,92,132.670875415,9.30111855268e-06,134.197248058,1.52638290671,,,,,z,1,1.51731678448,2018_Nov_27_1532,59.9865130437,spanish_cond1,001,1055,
images/hairpin.jpg,hair pin,z,sounds/animalfarm_spanish.wav,,,,,,,,,0,0,0,1,0,15,15,28,135.289380478,9.62184276432e-06,137.181442401,1.89207218634,,,,,z,1,1.88411419198,2018_Nov_27_1532,59.9865130437,spanish_cond1,001,1055,
images/sock03.jpg,sock,z,sounds/animalfarm_spanish.wav,,,,,,,,,0,0,0,1,0,16,16,90,138.288524766,8.65967012942e-06,139.98224237,1.69372690527,,,,,z,1,1.68404882681,2018_Nov_27_1532,59.9865130437,spanish_cond1,001,1055,
images/banjo.jpg,knife,x,sounds/animalfarm_spanish.wav,,,,,,,,,0,0,0,1,0,17,17,191,141.080854211,9.30123496801e-06,141.916114554,0.835270606098,,,,,x,1,0.817136757774,2018_Nov_27_1532,59.9865130437,spanish_cond1,001,1055,
images/nailpolish02b.jpg,nail polish,z,sounds/animalfarm_spanish.wav,,,,,,,,,0,0,0,1,0,18,18,94,143.025706003,9.62195917964e-06,144.433487146,1.40779108566,,,,,z,1,1.38395687309,2018_Nov_27_1532,59.9865130437,spanish_cond1,001,1055,
images/pingpongpaddle01c (1).jpg,ping pong paddle,z,sounds/animalfarm_spanish.wav,,,,,,,,,0,0,0,1,0,19,19,10,145.545841698,9.94268339127e-06,146.850861694,1.30503058026,,,,,z,1,1.28394247231,2018_Nov_27_1532,59.9865130437,spanish_cond1,001,1055,
images/desktopcomputer.jpg,desktop computer,z,sounds/animalfarm_spanish.wav,,,,,,,,,0,0,0,1,0,20,20,16,147.987592495,8.98051075637e-06,149.351562653,1.36397977977,,,,,z,1,1.3506161737,2018_Nov_27_1532,59.9865130437,spanish_cond1,001,1055,
images/rubberglove02a.jpg,lady bug,x,sounds/animalfarm_spanish.wav,,,,,,,,,0,0,0,1,0,21,21,192,150.457170293,8.65978654474e-06,151.202089182,0.744928189786,,,,,x,1,0.733781481045,2018_Nov_27_1532,59.9865130437,spanish_cond1,001,1055,
images/showerhead01.jpg,skateboard,x,sounds/animalfarm_spanish.wav,,,,,,,,,0,0,0,1,0,22,22,223,152.312404843,8.98051075637e-06,153.786156964,1.47376206389,,,,,x,1,1.45065430866,2018_Nov_27_1532,59.9865130437,spanish_cond1,001,1055,
images/puzzle.jpg,puzzle,z,sounds/animalfarm_spanish.wav,,,,,,,,,0,0,0,1,0,23,23,57,154.907357617,9.30123496801e-06,155.970115184,1.06276718958,,,,,z,1,1.05052806868,2018_Nov_27_1532,59.9865130437,spanish_cond1,001,1055,
images/squirrel.jpg,binder,x,sounds/animalfarm_spanish.wav,,,,,,,,,0,0,0,1,0,24,24,132,157.074683334,9.30123496801e-06,158.187415708,1.11274295824,,,,,x,1,1.10056349344,2018_Nov_27_1532,59.9865130437,spanish_cond1,001,1055,
images/carrot02.jpg,corkscrew,x,sounds/animalfarm_spanish.wav,,,,,,,,,0,0,0,1,0,25,25,161,159.291387296,9.30123496801e-06,160.688159645,1.39678197075,,,,,x,1,1.38400017191,2018_Nov_27_1532,59.9865130437,spanish_cond1,001,1055,
images/straw.jpg,straw,z,sounds/animalfarm_spanish.wav,,,,,,,,,0,0,0,1,0,26,26,109,161.780453713,8.98051075637e-06,163.605606839,1.82516242657,,,,,z,1,1.80074352014,2018_Nov_27_1532,59.9865130437,spanish_cond1,001,1055,
images/blackolive.jpg,tank,x,sounds/animalfarm_spanish.wav,,,,,,,,,0,0,0,1,0,27,27,229,164.721739289,9.62195917964e-06,166.189688733,1.46795938641,,,,,x,1,1.45066136483,2018_Nov_27_1532,59.9865130437,spanish_cond1,001,1055,
images/medal01.jpg,medal,z,sounds/animalfarm_spanish.wav,,,,,,,,,0,0,0,1,0,28,28,115,167.292152241,9.30123496801e-06,168.507011996,1.2148693772,,,,,z,1,1.2005823846,2018_Nov_27_1532,59.9865130437,spanish_cond1,001,1055,
images/peach01.jpg,peach,z,sounds/animalfarm_spanish.wav,,,,,,,,,0,0,0,1,0,29,29,106,169.637218795,9.30123496801e-06,170.590928553,0.953719701618,,,,,z,1,0.933829205926,2018_Nov_27_1532,59.9865130437,spanish_cond1,001,1055,
images/panda.jpg,panda,z,sounds/animalfarm_spanish.wav,,,,,,,,,0,0,0,1,0,30,30,83,171.701475141,9.30123496801e-06,172.374762458,0.673297259607,,,,,z,1,0.650413695723,2018_Nov_27_1532,59.9865130437,spanish_cond1,001,1055,
images/50dollarbill.jpg,cherry,x,sounds/animalfarm_spanish.wav,,,,,,,,,0,0,0,1,0,31,31,151,173.495701394,9.30123496801e-06,174.275302602,0.779610509868,,,,,x,1,0.767115124385,2018_Nov_27_1532,59.9865130437,spanish_cond1,001,1055,
images/toucan.jpg,toucan,z,sounds/animalfarm_spanish.wav,,,,,,,,,0,0,0,1,0,32,32,81,175.377074613,9.30123496801e-06,176.659354733,1.28229006275,,,,,z,1,1.26729200792,2018_Nov_27_1532,59.9865130437,spanish_cond1,001,1055,
images/remotecontrol01c.jpg,remote control,z,sounds/animalfarm_spanish.wav,,,,,,,,,0,0,0,1,0,33,33,85,177.769283271,9.30123496801e-06,178.826596097,1.05732244859,,,,,z,1,1.03385803965,2018_Nov_27_1532,59.9865130437,spanish_cond1,001,1055,
images/doll.jpg,carrot,x,sounds/animalfarm_spanish.wav,,,,,,,,,0,0,0,1,0,34,34,146,179.94005974,9.62195917964e-06,180.893864114,0.953813996748,,,,,x,1,0.933842997416,2018_Nov_27_1532,59.9865130437,spanish_cond1,001,1055,
images/backpack01b.jpg,swallow,x,sounds/animalfarm_spanish.wav,,,,,,,,,0,0,0,1,0,35,35,228,182.02616946,9.30123496801e-06,183.711329622,1.68517010484,,,,,x,1,1.6673813638,2018_Nov_27_1532,59.9865130437,spanish_cond1,001,1055,
images/handbag02a.jpg,candle,x,sounds/animalfarm_spanish.wav,,,,,,,,,0,0,0,1,0,36,36,144,184.829222569,9.94268339127e-06,185.895274051,1.06606206601,,,,,x,1,1.0505004857,2018_Nov_27_1532,59.9865130437,spanish_cond1,001,1055,
images/calculator02b.jpg,dice,x,sounds/animalfarm_spanish.wav,,,,,,,,,0,0,0,1,0,37,37,165,186.998711942,9.94268339127e-06,187.895851047,0.897149368888,,,,,x,1,0.883820722462,2018_Nov_27_1532,59.9865130437,spanish_cond1,001,1055,
images/hammer02a.jpg,flower,x,sounds/animalfarm_spanish.wav,,,,,,,,,0,0,0,1,0,38,38,176,188.992019875,9.62195917964e-06,189.629666205,0.637656272505,,,,,x,1,0.617070751148,2018_Nov_27_1532,59.9865130437,spanish_cond1,001,1055,
images/mitten01.jpg,mitten,z,sounds/animalfarm_spanish.wav,,,,,,,,,0,0,0,1,0,39,39,102,190.751269697,9.30123496801e-06,191.546885359,0.795625284081,,,,,z,1,0.783796699718,2018_Nov_27_1532,59.9865130437,spanish_cond1,001,1055,
images/bowl02b (1).jpg,bowl,z,sounds/animalfarm_spanish.wav,,,,,,,,,0,0,0,1,0,40,40,24,192.66631878,9.30123496801e-06,193.364053869,0.697744711069,,,,,z,1,0.683749584248,2018_Nov_27_1532,59.9865130437,spanish_cond1,001,1055,
images/plant01.jpg,plant,z,sounds/animalfarm_spanish.wav,,,,,,,,,0,0,0,1,0,41,41,47,194.476971305,8.98051075637e-06,195.581358882,1.10439687851,,,,,z,1,1.08387101325,2018_Nov_27_1532,59.9865130437,spanish_cond1,001,1055,
images/djmixer01.jpg,light bulb,x,sounds/animalfarm_spanish.wav,,,,,,,,,0,0,0,1,0,42,42,196,196.704028807,9.62195917964e-06,198.49886445,1.79484558536,,,,,z,0,1.78407894366,2018_Nov_27_1532,59.9865130437,spanish_cond1,001,1055,
images/egg01b (1).jpg,egg,z,sounds/animalfarm_spanish.wav,,,,,,,,,0,0,0,1,0,43,43,19,199.612386786,9.30111855268e-06,201.082925817,1.47054897388,,,,,z,1,1.45065078069,2018_Nov_27_1532,59.9865130437,spanish_cond1,001,1055,
images/dreamcatcher.jpg,dream catcher,z,sounds/animalfarm_spanish.wav,,,,,,,,,0,0,0,1,0,44,44,48,202.181550167,9.30123496801e-06,204.050435377,1.86889515317,,,,,z,1,1.85075264494,2018_Nov_27_1532,59.9865130437,spanish_cond1,001,1055,
images/pineapple01a.jpg,pineapple,z,sounds/animalfarm_spanish.wav,,,,,,,,,0,0,0,1,0,45,45,51,205.164306028,8.98051075637e-06,205.867651997,0.703400493483,,,,,z,1,0.683754395228,2018_Nov_27_1532,59.9865130437,spanish_cond1,001,1055,
images/bowtie.jpg,bowtie,z,sounds/animalfarm_spanish.wav,,,,,,,,,0,0,0,1,0,46,46,89,206.980715687,8.98039434105e-06,207.95154899,0.970842603827,,,,,z,1,0.95050532883,2018_Nov_27_1532,59.9865130437,spanish_cond1,001,1055,
images/lightswitch02a.jpg,fork,x,sounds/animalfarm_spanish.wav,,,,,,,,,0,0,0,1,0,47,47,177,209.064998199,9.94268339127e-06,209.968845728,0.903857472003,,,,,x,1,0.883884548093,2018_Nov_27_1532,59.9865130437,spanish_cond1,001,1055,
images/bottleofredwine02.jpg,pipe,x,sounds/animalfarm_spanish.wav,,,,,,,,,0,0,0,1,0,48,48,213,211.0686895,9.30123496801e-06,212.25278371,1.18410447391,,,,,x,1,1.16724906198,2018_Nov_27_1532,59.9865130437,spanish_cond1,001,1055,
images/stapler03a.jpg,candy cane,x,sounds/animalfarm_spanish.wav,,,,,,,,,0,0,0,1,0,49,49,145,213.365648867,9.94268339127e-06,214.770169452,1.40453084814,,,,,x,1,1.38398092799,2018_Nov_27_1532,59.9865130437,spanish_cond1,001,1055,
images/hand01a.jpg,cupcake,x,sounds/animalfarm_spanish.wav,,,,,,,,,0,0,0,1,0,50,50,163,215.883277724,8.98051075637e-06,216.620503863,0.737235761248,,,,,x,1,0.716932483716,2018_Nov_27_1532,59.9865130437,spanish_cond1,001,1055,
images/tissuebox03.jpg,tissue box,z,sounds/animalfarm_spanish.wav,,,,,,,,,0,0,0,1,0,51,51,58,217.747318282,9.94268339127e-06,218.804467215,1.05715951684,,,,,z,1,1.03369446646,2018_Nov_27_1532,59.9865130437,spanish_cond1,001,1055,
images/bicycle.jpg,hand bag,x,sounds/animalfarm_spanish.wav,,,,,,,,,0,0,0,1,0,52,52,186,219.916082801,9.62195917964e-06,222.238951195,2.32287833584,,,,,x,1,2.30089538661,2018_Nov_27_1532,59.9865130437,spanish_cond1,001,1055,
images/cloud.jpg,ceiling fan,x,sounds/animalfarm_spanish.wav,,,,,,,,,0,0,0,1,0,53,53,149,223.345203185,9.30123496801e-06,224.806339967,1.46114640415,,,,,x,1,1.45065206347,2018_Nov_27_1532,59.9865130437,spanish_cond1,001,1055,
images/aquarium.jpg,computer mouse,x,sounds/animalfarm_spanish.wav,,,,,,,,,0,0,0,1,0,54,54,159,225.942975511,9.30123496801e-06,228.107283464,2.16431821592,,,,,x,1,2.15084812685,2018_Nov_27_1532,59.9865130437,spanish_cond1,001,1055,
images/bench02.jpg,electric toothbrush,x,sounds/animalfarm_spanish.wav,,,,,,,,,0,0,0,1,0,55,55,172,229.218044942,9.30123496801e-06,230.374578358,1.15654335928,,,,,x,1,1.13388847711,2018_Nov_27_1532,59.9865130437,spanish_cond1,001,1055,
images/grandpiano.jpg,tulip,x,sounds/animalfarm_spanish.wav,,,,,,,,,0,0,0,1,0,56,56,236,231.490953282,9.30111855268e-06,232.275113691,0.784170031315,,,,,x,1,0.767102295067,2018_Nov_27_1532,59.9865130437,spanish_cond1,001,1055,
images/wallet01.jpg,lamp,x,sounds/animalfarm_spanish.wav,,,,,,,,,0,0,0,1,0,57,57,193,233.380272308,9.30123496801e-06,233.97561894,0.595356895705,,,,,x,1,0.583747691941,2018_Nov_27_1532,59.9865130437,spanish_cond1,001,1055,
images/corkscrew02a.jpg,masquerade mask,x,sounds/animalfarm_spanish.wav,,,,,,,,,0,0,0,1,0,58,58,201,235.080609172,9.30123496801e-06,236.559682873,1.47908364399,,,,,x,1,1.46733139374,2018_Nov_27_1532,59.9865130437,spanish_cond1,001,1055,
images/parkingmeter.jpg,ear,x,sounds/animalfarm_spanish.wav,,,,,,,,,0,0,0,1,0,59,59,171,237.662872197,9.62195917964e-06,238.410197535,0.74733528099,,,,,x,1,0.733777632238,2018_Nov_27_1532,59.9865130437,spanish_cond1,001,1055,
images/clothespin02a.jpg,clothes pin,z,sounds/animalfarm_spanish.wav,,,,,,,,,0,0,0,1,0,60,60,79,239.517093876,9.30123496801e-06,240.444108496,0.927024241886,,,,,z,1,0.917108180583,2018_Nov_27_1532,59.9865130437,spanish_cond1,001,1055,
images/ruler02b.jpg,watermelon,x,sounds/animalfarm_spanish.wav,,,,,,,,,0,0,0,1,0,61,61,238,241.546687467,9.30111855268e-06,242.427852211,0.881174686132,,,,,x,1,0.866985516739,2018_Nov_27_1532,59.9865130437,spanish_cond1,001,1055,
images/binder03b.jpg,dj mixer,x,sounds/animalfarm_spanish.wav,,,,,,,,,0,0,0,1,0,62,62,167,243.541574042,9.30123496801e-06,245.195492052,1.65392763203,,,,,x,1,1.63406600209,2018_Nov_27_1532,59.9865130437,spanish_cond1,001,1055,
images/mailbox01.jpg,mail box,z,sounds/animalfarm_spanish.wav,,,,,,,,,0,0,0,1,0,63,63,73,246.316479739,4.23365272582e-05,247.346066595,1.02959808148,,,,,z,1,1.01718319976,2018_Nov_27_1532,59.9865130437,spanish_cond1,001,1055,
images/globe.jpg,cloud,x,sounds/animalfarm_spanish.wav,,,,,,,,,0,0,0,1,0,64,64,154,248.473899016,8.98051075637e-06,249.630051083,1.1561616885,,,,,x,1,1.13388591132,2018_Nov_27_1532,59.9865130437,spanish_cond1,001,1055,
images/lychee02a.jpg,lychee,z,sounds/animalfarm_spanish.wav,,,,,,,,,0,0,0,1,0,65,65,62,250.755313161,9.62195917964e-06,252.04741184,1.29210830084,,,,,z,1,1.2839334918,2018_Nov_27_1532,59.9865130437,spanish_cond1,001,1055,
images/dresser02.jpg,dresser,z,sounds/animalfarm_spanish.wav,,,,,,,,,0,0,0,1,0,66,66,87,253.17078577,9.30123496801e-06,254.114668952,0.943893766031,,,,,z,1,0.933841072954,2018_Nov_27_1532,59.9865130437,spanish_cond1,001,1055,
images/fryingpan01.jpg,frying pan,z,sounds/animalfarm_spanish.wav,,,,,,,,,0,0,0,1,0,67,67,45,255.215550932,9.62184276432e-06,255.99854452,0.783004171681,,,,,z,1,0.767129878048,2018_Nov_27_1532,59.9865130437,spanish_cond1,001,1055,
images/donut.jpg,rhinoceros,x,sounds/animalfarm_spanish.wav,,,,,,,,,0,0,0,1,0,68,68,216,257.125579281,9.30123496801e-06,258.099132068,0.973562729196,,,,,x,1,0.950511101983,2018_Nov_27_1532,59.9865130437,spanish_cond1,001,1055,
images/computermouse02a.jpg,world map,x,sounds/animalfarm_spanish.wav,,,,,,,,,0,0,0,1,0,69,69,239,259.200976243,9.30123496801e-06,260.9499402,1.74897357845,,,,,x,1,1.73405955534,2018_Nov_27_1532,59.9865130437,spanish_cond1,001,1055,
images/pen03c.jpg,pepper,x,sounds/animalfarm_spanish.wav,,,,,,,,,0,0,0,1,0,70,70,211,262.043938957,9.62195917964e-06,263.53399387,1.49006453448,,,,,x,1,1.46730605594,2018_Nov_27_1532,59.9865130437,spanish_cond1,001,1055,
images/boxingglove02a.jpg,bracelet,x,sounds/animalfarm_spanish.wav,,,,,,,,,0,0,0,1,0,71,71,135,264.647332427,8.98051075637e-06,265.617926143,0.970603337977,,,,,x,1,0.950501480023,2018_Nov_27_1532,59.9865130437,spanish_cond1,001,1055,
images/lollipop03b.jpg,lollipop,z,sounds/animalfarm_spanish.wav,,,,,,,,,0,0,0,1,0,72,72,42,266.712298873,9.62195917964e-06,267.501808766,0.789520156453,,,,,z,1,0.767132123234,2018_Nov_27_1532,59.9865130437,spanish_cond1,001,1055,
images/mushroom01.jpg,shower head,x,sounds/animalfarm_spanish.wav,,,,,,,,,0,0,0,1,0,73,73,222,268.619270008,9.94268339127e-06,269.702428997,1.0831695731,,,,,x,1,1.06720226712,2018_Nov_27_1532,59.9865130437,spanish_cond1,001,1055,
images/magnifyingglass01b.jpg,magnifying glass,z,sounds/animalfarm_spanish.wav,,,,,,,,,0,0,0,1,0,74,74,64,270.810491197,9.94268339127e-06,272.253146779,1.44266520324,,,,,z,1,1.43397818576,2018_Nov_27_1532,59.9865130437,spanish_cond1,001,1055,
images/graduationcap.jpg,graduation cap,z,sounds/animalfarm_spanish.wav,,,,,,,,,0,0,0,1,0,75,75,35,273.356657155,9.62195917964e-06,274.386937433,1.03029054124,,,,,z,1,1.01703919121,2018_Nov_27_1532,59.9865130437,spanish_cond1,001,1055,
images/antelope.jpg,antelope,z,sounds/animalfarm_spanish.wav,,,,,,,,,0,0,0,1,0,76,76,12,275.492366426,8.98051075637e-06,276.687742052,1.19538492779,,,,,z,1,1.18390080926,2018_Nov_27_1532,59.9865130437,spanish_cond1,001,1055,
images/lantern03.jpg,lantern,z,sounds/animalfarm_spanish.wav,,,,,,,,,0,0,0,1,0,77,77,5,277.796340516,8.98051075637e-06,280.788760343,2.99242944946,,,,,None,0,,2018_Nov_27_1532,59.9865130437,spanish_cond1,001,1055,
images/arrow02.jpg,hammer,x,sounds/animalfarm_spanish.wav,,,,,,,,,0,0,0,1,0,78,78,184,281.887592206,8.98051075637e-06,282.839484379,0.951901794528,,,,,x,1,0.933825998567,2018_Nov_27_1532,59.9865130437,spanish_cond1,001,1055,
images/ear.jpg,bullet,x,sounds/animalfarm_spanish.wav,,,,,,,,,0,0,0,1,0,79,79,139,283.945030439,9.62195917964e-06,285.490240937,1.54522076121,,,,,x,1,1.53397847444,2018_Nov_27_1532,59.9865130437,spanish_cond1,001,1055,
images/glasses01b.jpg,calculator,x,sounds/animalfarm_spanish.wav,,,,,,,,,0,0,0,1,0,80,80,142,286.585339162,1.09048560262e-05,287.874248165,1.28891830344,,,,,x,1,1.26725672744,2018_Nov_27_1532,59.9865130437,spanish_cond1,001,1055,
images/axe01.jpg,axe,z,sounds/animalfarm_spanish.wav,,,,,,,,,0,0,0,1,0,81,81,104,288.979027356,9.30123496801e-06,290.041545337,1.06252792373,,,,,z,1,1.05053704919,2018_Nov_27_1532,59.9865130437,spanish_cond1,001,1055,
images/blueberry02.jpg,blueberry,z,sounds/animalfarm_spanish.wav,,,,,,,,,0,0,0,1,0,82,82,46,291.156053602,9.30123496801e-06,292.625599327,1.4695550265,,,,,z,1,1.45063698909,2018_Nov_27_1532,59.9865130437,spanish_cond1,001,1055,
images/candy.jpg,candy,z,sounds/animalfarm_spanish.wav,,,,,,,,,0,0,0,1,0,83,83,31,293.729606517,9.94268339127e-06,294.692854194,0.963257620344,,,,,z,1,0.950504366658,2018_Nov_27_1532,59.9865130437,spanish_cond1,001,1055,
images/giraffe.jpg,lettuce,x,sounds/animalfarm_spanish.wav,,,,,,,,,0,0,0,1,0,84,84,195,295.794842057,9.30123496801e-06,296.743435505,0.948603069293,,,,,x,1,0.933820866863,2018_Nov_27_1532,59.9865130437,spanish_cond1,001,1055,
images/hairdryer03a.jpg,hairdryer,z,sounds/animalfarm_spanish.wav,,,,,,,,,0,0,0,1,0,85,85,119,297.84442525,8.98051075637e-06,299.911005298,2.06658934895,,,,,x,0,2.05080550164,2018_Nov_27_1532,59.9865130437,spanish_cond1,001,1055,
images/chessknight02b (1).jpg,cockroach,x,sounds/animalfarm_spanish.wav,,,,,,,,,0,0,0,1,0,86,86,155,301.021219608,9.30123496801e-06,302.07828483,1.05707452295,,,,,x,1,1.03386060556,2018_Nov_27_1532,59.9865130437,spanish_cond1,001,1055,
images/chameleon.jpg,50 dollar bill,x,sounds/animalfarm_spanish.wav,,,,,,,,,0,0,0,1,0,87,87,120,303.192064072,8.98039434105e-06,304.362277657,1.17022320675,,,,,x,1,1.15056235495,2018_Nov_27_1532,59.9865130437,spanish_cond1,001,1055,
images/lighter02b.jpg,stapler,x,sounds/animalfarm_spanish.wav,,,,,,,,,0,0,0,1,0,88,88,227,305.46662418,9.30123496801e-06,307.129745265,1.66313070687,,,,,z,0,1.65071582503,2018_Nov_27_1532,59.9865130437,spanish_cond1,001,1055,
images/bus.jpg,microphone,x,sounds/animalfarm_spanish.wav,,,,,,,,,0,0,0,1,0,89,89,203,308.248845125,8.98051075637e-06,309.76381255,1.51497736759,,,,,x,1,1.50066182984,2018_Nov_27_1532,59.9865130437,spanish_cond1,001,1055,
images/ant.jpg,ant,z,sounds/animalfarm_spanish.wav,,,,,,,,,0,0,0,1,0,90,90,98,310.860217437,9.62195917964e-06,311.914428467,1.05422097328,,,,,z,1,1.03386926535,2018_Nov_27_1532,59.9865130437,spanish_cond1,001,1055,
images/gorilla.jpg,gorilla,z,sounds/animalfarm_spanish.wav,,,,,,,,,0,0,0,1,0,91,91,80,313.027990254,9.62195917964e-06,315.348730913,2.32075060194,,,,,z,1,2.30088704755,2018_Nov_27_1532,59.9865130437,spanish_cond1,001,1055,
images/skateboard.jpg,key,x,sounds/animalfarm_spanish.wav,,,,,,,,,0,0,0,1,0,92,92,189,316.441263927,8.98051075637e-06,317.966134263,1.52488027897,,,,,x,1,1.50066247128,2018_Nov_27_1532,59.9865130437,spanish_cond1,001,1055,
images/butterfly.jpg,butterfly,z,sounds/animalfarm_spanish.wav,,,,,,,,,0,0,0,1,0,93,93,91,319.076036501,9.94268339127e-06,320.866961141,1.79093458329,,,,,x,0,1.7673983305,2018_Nov_27_1532,59.9865130437,spanish_cond1,001,1055,
images/eyedrops.jpg,bicycle,x,sounds/animalfarm_spanish.wav,,,,,,,,,0,0,0,1,0,94,94,131,321.968987492,9.62195917964e-06,323.717777291,1.74879942113,,,,,z,0,1.73406083824,2018_Nov_27_1532,59.9865130437,spanish_cond1,001,1055,
images/licenseplate.jpg,license plate,z,sounds/animalfarm_spanish.wav,,,,,,,,,0,0,0,1,0,95,95,40,324.836011817,9.62195917964e-06,325.918390787,1.08238891209,,,,,z,1,1.06719841843,2018_Nov_27_1532,59.9865130437,spanish_cond1,001,1055,
images/dice05a.jpg,band aid,x,sounds/animalfarm_spanish.wav,,,,,,,,,0,0,0,1,0,96,96,126,327.032450028,9.62195917964e-06,328.452456179,1.42001609434,,,,,x,1,1.40063780698,2018_Nov_27_1532,59.9865130437,spanish_cond1,001,1055,
images/flipflop01b.jpg,flip flop,z,sounds/animalfarm_spanish.wav,,,,,,,,,0,0,0,1,0,97,97,27,329.571431916,9.30123496801e-06,330.536376265,0.964954291005,,,,,z,1,0.950505008106,2018_Nov_27_1532,59.9865130437,spanish_cond1,001,1055,
images/honeycomb.jpg,honey comb,z,sounds/animalfarm_spanish.wav,,,,,,,,,0,0,0,1,0,98,98,59,331.652120951,9.62195917964e-06,332.370227312,0.718116304372,,,,,z,1,0.700421216898,2018_Nov_27_1532,59.9865130437,spanish_cond1,001,1055,
images/snowman.jpg,globe,x,sounds/animalfarm_spanish.wav,,,,,,,,,0,0,0,1,0,99,99,180,333.48264986,8.98051075637e-06,334.937633404,1.45499284612,,,,,x,1,1.43397626141,2018_Nov_27_1532,59.9865130437,spanish_cond1,001,1055,
images/diaper01a.jpg,camera,x,sounds/animalfarm_spanish.wav,,,,,,,,,0,0,0,1,0,100,100,143,336.059482897,1.02634076029e-05,337.204944335,1.14547138091,,,,,x,1,1.13389745762,2018_Nov_27_1532,59.9865130437,spanish_cond1,001,1055,
images/swan.jpg,swan,z,sounds/animalfarm_spanish.wav,,,,,,,,,0,0,0,1,0,101,101,54,338.298751937,8.98051075637e-06,339.738985353,1.44024271693,,,,,z,1,1.41730206285,2018_Nov_27_1532,59.9865130437,spanish_cond1,001,1055,
images/raisin.jpg,ruler,x,sounds/animalfarm_spanish.wav,,,,,,,,,0,0,0,1,0,102,102,218,340.846196331,9.30111855268e-06,342.323061153,1.47687476478,,,,,x,1,1.46731664019,2018_Nov_27_1532,59.9865130437,spanish_cond1,001,1055,
images/comb02a.jpg,diploma,x,sounds/animalfarm_spanish.wav,,,,,,,,,0,0,0,1,0,103,103,166,343.429745169,9.30111855268e-06,344.356987508,0.927252282039,,,,,x,1,0.917180665885,2018_Nov_27_1532,59.9865130437,spanish_cond1,001,1055,
images/highlighter03b.jpg,coin,x,sounds/animalfarm_spanish.wav,,,,,,,,,0,0,0,1,0,104,104,156,345.460200246,9.62195917964e-06,346.390891734,0.930701751262,,,,,x,1,0.917169119581,2018_Nov_27_1532,59.9865130437,spanish_cond1,001,1055,
images/toothbrush03a.jpg,parrot,x,sounds/animalfarm_spanish.wav,,,,,,,,,0,0,0,1,0,105,105,210,347.486000223,8.98051075637e-06,348.974970421,1.48897981993,,,,,x,1,1.46732914867,2018_Nov_27_1532,59.9865130437,spanish_cond1,001,1055,
images/nametag01a.jpg,name tag,z,sounds/animalfarm_spanish.wav,,,,,,,,,0,0,0,1,0,106,106,108,350.097021333,9.30123496801e-06,351.442329718,1.3453186485,,,,,x,0,1.33395544591,2018_Nov_27_1532,59.9865130437,spanish_cond1,001,1055,
images/gps.jpg,gps,z,sounds/animalfarm_spanish.wav,,,,,,,,,0,0,0,1,0,107,107,21,352.562178487,9.62184276432e-06,354.476511697,1.91434347339,,,,,z,1,1.90076786373,2018_Nov_27_1532,59.9865130437,spanish_cond1,001,1055,
images/gamecontroller01.jpg,game controller,z,sounds/animalfarm_spanish.wav,,,,,,,,,0,0,0,1,0,108,108,112,355.597839038,9.94268339127e-06,358.594194885,2.99636578932,,,,,None,0,,2018_Nov_27_1532,59.9865130437,spanish_cond1,001,1055,
images/candle08a.jpg,screw driver,x,sounds/animalfarm_spanish.wav,,,,,,,,,0,0,0,1,0,109,109,221,359.709843993,9.30123496801e-06,360.511571197,0.801737146918,,,,,x,1,0.783800869249,2018_Nov_27_1532,59.9865130437,spanish_cond1,001,1055,
images/pictureframe04.jpg,picture frame,z,sounds/animalfarm_spanish.wav,,,,,,,,,0,0,0,1,0,110,110,41,361.635682169,9.30123496801e-06,363.062278074,1.42660584743,,,,,z,1,1.41729532753,2018_Nov_27_1532,59.9865130437,spanish_cond1,001,1055,
images/lock02a.jpg,lock,z,sounds/animalfarm_spanish.wav,,,,,,,,,0,0,0,1,0,111,111,65,364.175337594,9.30123496801e-06,365.09620924,0.920881268103,,,,,x,0,0.900490110042,2018_Nov_27_1532,59.9865130437,spanish_cond1,001,1055,
images/pepper05a.jpg,lighter,x,sounds/animalfarm_spanish.wav,,,,,,,,,0,0,0,1,0,112,112,198,366.219314718,8.98051075637e-06,368.080388829,1.86108373315,,,,,x,1,1.85077413393,2018_Nov_27_1532,59.9865130437,spanish_cond1,001,1055,
images/apple06.jpg,apple,z,sounds/animalfarm_spanish.wav,,,,,,,,,0,0,0,1,0,113,113,13,369.209327775,9.62195917964e-06,369.980928011,0.771610499592,,,,,z,1,0.750453755143,2018_Nov_27_1532,59.9865130437,spanish_cond1,001,1055,
images/tie01.jpg,bench,x,sounds/animalfarm_spanish.wav,,,,,,,,,0,0,0,1,0,114,114,130,371.081361288,8.98051075637e-06,372.865068824,1.78371779982,,,,,x,1,1.76739480242,2018_Nov_27_1532,59.9865130437,spanish_cond1,001,1055,
images/rhinoceros01.jpg,envelope,x,sounds/animalfarm_spanish.wav,,,,,,,,,0,0,0,1,0,115,115,173,373.979343918,9.30123496801e-06,374.632250019,0.652915723622,,,,,x,1,0.633756496012,2018_Nov_27_1532,59.9865130437,spanish_cond1,001,1055,
images/bracelet02a.jpg,chess knight,x,sounds/animalfarm_spanish.wav,,,,,,,,,0,0,0,1,0,116,116,152,375.74277576,9.30123496801e-06,376.532774127,0.790008310112,,,,,x,1,0.767113520764,2018_Nov_27_1532,59.9865130437,spanish_cond1,001,1055,
images/birthdaycandle.jpg,birthday candle,z,sounds/animalfarm_spanish.wav,,,,,,,,,0,0,0,1,0,117,117,55,377.631865462,9.94268339127e-06,378.333292173,0.701437615557,,,,,z,1,0.683761451277,2018_Nov_27_1532,59.9865130437,spanish_cond1,001,1055,
images/highheelshoe02a.jpg,high heel shoe,z,sounds/animalfarm_spanish.wav,,,,,,,,,0,0,0,1,0,118,118,75,379.441784474,8.98051075637e-06,380.200493542,0.758719010511,,,,,z,1,0.750452151522,2018_Nov_27_1532,59.9865130437,spanish_cond1,001,1055,
images/pipe.jpg,icecube,x,sounds/animalfarm_spanish.wav,,,,,,,,,0,0,0,1,0,119,119,188,381.31204402,9.62195917964e-06,382.367769866,1.05573771335,,,,,x,1,1.03385322879,2018_Nov_27_1532,59.9865130437,spanish_cond1,001,1055,
images/leaf01a.jpg,leaf,z,sounds/animalfarm_spanish.wav,,,,,,,,,0,0,0,1,0,120,120,68,383.472968253,4.58646100014e-05,384.168334418,0.695392144145,,,,,z,1,0.683814372052,2018_Nov_27_1532,59.9865130437,spanish_cond1,001,1055,
images/battery03b.jpg,battery,z,sounds/animalfarm_spanish.wav,,,,,,,,,0,0,0,1,0,121,121,34,385.279482698,1.02634076029e-05,386.335554293,1.05608185846,,,,,z,1,1.03384745552,2018_Nov_27_1532,59.9865130437,spanish_cond1,001,1055,
images/radio03a.jpg,radio,z,sounds/animalfarm_spanish.wav,,,,,,,,,0,0,0,1,0,122,122,37,387.451361201,9.62195917964e-06,388.119403593,0.668052013614,,,,,z,1,0.650410809205,2018_Nov_27_1532,59.9865130437,spanish_cond1,001,1055,
images/bull.jpg,button,x,sounds/animalfarm_spanish.wav,,,,,,,,,0,0,0,1,0,123,123,141,389.22664889,8.98051075637e-06,389.919917149,0.693277881015,,,,,x,1,0.683756640297,2018_Nov_27_1532,59.9865130437,spanish_cond1,001,1055,
images/paperclip04.jpg,eye drops,x,sounds/animalfarm_spanish.wav,,,,,,,,,0,0,0,1,0,124,124,174,391.027658938,9.30123496801e-06,391.703601271,0.675951955607,,,,,x,1,0.666933943168,2018_Nov_27_1532,59.9865130437,spanish_cond1,001,1055,
images/basketball01.jpg,basket ball,z,sounds/animalfarm_spanish.wav,,,,,,,,,0,0,0,1,0,125,125,33,392.844878124,9.30123496801e-06,393.43757904,0.592710538651,,,,,z,1,0.583718826063,2018_Nov_27_1532,59.9865130437,spanish_cond1,001,1055,
images/key03b.jpg,cigar,x,sounds/animalfarm_spanish.wav,,,,,,,,,0,0,0,1,0,126,126,153,394.540951502,9.62195917964e-06,395.138066007,0.597124448163,,,,,x,1,0.583729410195,2018_Nov_27_1532,59.9865130437,spanish_cond1,001,1055,
images/belt02a.jpg,snowman,x,sounds/animalfarm_spanish.wav,,,,,,,,,0,0,0,1,0,127,127,224,396.243676214,9.30123496801e-06,397.005261603,0.761595011456,,,,,x,1,0.750451830798,2018_Nov_27_1532,59.9865130437,spanish_cond1,001,1055,
images/atm.jpg,atm,z,sounds/animalfarm_spanish.wav,,,,,,,,,0,0,0,1,0,128,128,96,398.144372234,9.30123496801e-06,399.255911486,1.1115491949,,,,,z,1,1.10055772041,2018_Nov_27_1532,59.9865130437,spanish_cond1,001,1055,
images/electrictoothbrush01a.jpg,banjo,x,sounds/animalfarm_spanish.wav,,,,,,,,,0,0,0,1,0,129,129,127,400.353476459,8.98051075637e-06,401.806650115,1.45318327798,,,,,x,1,1.43399390159,2018_Nov_27_1532,59.9865130437,spanish_cond1,001,1055,
images/floorlamp.jpg,floor lamp,z,sounds/animalfarm_spanish.wav,,,,,,,,,0,0,0,1,0,130,130,26,402.900874667,9.30123496801e-06,403.673820052,0.772955006803,,,,,z,1,0.750446699094,2018_Nov_27_1532,59.9865130437,spanish_cond1,001,1055,
images/cat.jpg,black olive,x,sounds/animalfarm_spanish.wav,,,,,,,,,0,0,0,1,0,131,131,133,404.8069067,9.30123496801e-06,405.591036961,0.784140203381,,,,,x,1,0.767106143874,2018_Nov_27_1532,59.9865130437,spanish_cond1,001,1055,
images/sportshorts02.jpg,tape,x,sounds/animalfarm_spanish.wav,,,,,,,,,0,0,0,1,0,132,132,230,406.700671708,9.30123496801e-06,407.324858533,0.624196446966,,,,,x,1,0.600404891651,2018_Nov_27_1532,59.9865130437,spanish_cond1,001,1055,
images/dragonfly02.jpg,dragon fly,z,sounds/animalfarm_spanish.wav,,,,,,,,,0,0,0,1,0,133,133,29,408.424251356,9.30123496801e-06,409.57551034,1.15126956825,,,,,z,1,1.1338971369,2018_Nov_27_1532,59.9865130437,spanish_cond1,001,1055,
images/plate01b.jpg,plate,z,sounds/animalfarm_spanish.wav,,,,,,,,,0,0,0,1,0,134,134,3,410.676466409,9.30123496801e-06,412.559687364,1.88323057618,,,,,x,0,1.86743389966,2018_Nov_27_1532,59.9865130437,spanish_cond1,001,1055,
images/cigar.jpg,crocodile,x,sounds/animalfarm_spanish.wav,,,,,,,,,0,0,0,1,0,135,135,162,413.658215173,9.94268339127e-06,415.327137011,1.66893274279,,,,,x,1,1.65070107137,2018_Nov_27_1532,59.9865130437,spanish_cond1,001,1055,
images/ostrich.jpg,ostrich,z,sounds/animalfarm_spanish.wav,,,,,,,,,0,0,0,1,0,136,136,76,416.429490187,9.62195917964e-06,417.911200303,1.48172037897,,,,,z,1,1.4673118291,2018_Nov_27_1532,59.9865130437,spanish_cond1,001,1055,
images/candycane01a.jpg,lip,x,sounds/animalfarm_spanish.wav,,,,,,,,,0,0,0,1,0,137,137,200,419.00659264,9.30123496801e-06,420.361902401,1.35532002442,,,,,x,1,1.33394838974,2018_Nov_27_1532,59.9865130437,spanish_cond1,001,1055,
images/watermelon01.jpg,orange,x,sounds/animalfarm_spanish.wav,,,,,,,,,0,0,0,1,0,138,138,207,421.49312207,9.30123496801e-06,422.045718697,0.552605928853,,,,,x,1,0.533715474419,2018_Nov_27_1532,59.9865130437,spanish_cond1,001,1055,
images/scissors04a.jpg,leek,x,sounds/animalfarm_spanish.wav,,,,,,,,,0,0,0,1,0,139,139,194,423.144045729,9.30111855268e-06,423.662824087,0.518787980545,,,,,x,1,0.500353927375,2018_Nov_27_1532,59.9865130437,spanish_cond1,001,1055,
images/screw03c.jpg,screw,z,sounds/animalfarm_spanish.wav,,,,,,,,,0,0,0,1,0,140,140,84,424.758851152,9.94268339127e-06,425.446686858,0.687845969223,,,,,z,1,0.667099119863,2018_Nov_27_1532,59.9865130437,spanish_cond1,001,1055,
images/barrel01.jpg,barrel,z,sounds/animalfarm_spanish.wav,,,,,,,,,0,0,0,1,0,141,141,9,426.578453374,9.62195917964e-06,428.014064405,1.43562129419,,,,,z,1,1.41729051655,2018_Nov_27_1532,59.9865130437,spanish_cond1,001,1055,
images/bowlingball.jpg,bowling ball,z,sounds/animalfarm_spanish.wav,,,,,,,,,0,0,0,1,0,142,142,20,429.147905093,9.30123496801e-06,430.047983704,0.900087912567,,,,,z,1,0.883796026232,2018_Nov_27_1532,59.9865130437,spanish_cond1,001,1055,
images/dolphin01.jpg,dolphin,z,sounds/animalfarm_spanish.wav,,,,,,,,,0,0,0,1,0,143,143,99,431.149381421,9.30111855268e-06,431.731798718,0.582427239511,,,,,z,1,0.567012554384,2018_Nov_27_1532,59.9865130437,spanish_cond1,001,1055,
images/gluestick.jpg,squirrel,x,sounds/animalfarm_spanish.wav,,,,,,,,,0,0,0,1,0,144,144,226,432.893698937,4.29780920967e-05,433.765699415,0.872022928437,,,,,x,1,0.850460779271,2018_Nov_27_1532,59.9865130437,spanish_cond1,001,1055,
images/crocodile.jpg,triangle ruler,x,sounds/animalfarm_spanish.wav,,,,,,,,,0,0,0,1,0,145,145,235,434.865134254,9.30123496801e-06,436.599854516,1.73473020527,,,,,x,1,1.71739401668,2018_Nov_27_1532,59.9865130437,spanish_cond1,001,1055,
images/corn01.jpg,corn,z,sounds/animalfarm_spanish.wav,,,,,,,,,0,0,0,1,0,146,146,22,437.699866672,9.62195917964e-06,438.550403785,0.850547056063,,,,,z,1,0.833801013534,2018_Nov_27_1532,59.9865130437,spanish_cond1,001,1055,
images/shotglass.jpg,shot glass,z,sounds/animalfarm_spanish.wav,,,,,,,,,0,0,0,1,0,147,147,86,439.660172919,8.65978654474e-06,441.46789524,1.80773194274,,,,,x,0,1.78407092532,2018_Nov_27_1532,59.9865130437,spanish_cond1,001,1055,
images/bullet (2).jpg,rubber glove,x,sounds/animalfarm_spanish.wav,,,,,,,,,0,0,0,1,0,148,148,217,442.573790577,9.30123496801e-06,444.502109292,1.92832865764,,,,,x,1,1.91746098537,2018_Nov_27_1532,59.9865130437,spanish_cond1,001,1055,
images/daisy.jpg,daisy,z,sounds/animalfarm_spanish.wav,,,,,,,,,0,0,0,1,0,149,149,6,445.607105618,9.62195917964e-06,446.352617539,0.745521543431,,,,,z,1,0.73377217981,2018_Nov_27_1532,59.9865130437,spanish_cond1,001,1055,
images/printer03a.jpg,printer,z,sounds/animalfarm_spanish.wav,,,,,,,,,0,0,0,1,0,150,150,72,447.463721559,9.62184276432e-06,448.186469549,0.722757612471,,,,,z,1,0.700427310774,2018_Nov_27_1532,59.9865130437,spanish_cond1,001,1055,
images/feather03b.jpg,feather,z,sounds/animalfarm_spanish.wav,,,,,,,,,0,0,0,1,0,151,151,114,449.289055577,8.98039434105e-06,449.986977973,0.697931376868,,,,,z,1,0.683755678241,2018_Nov_27_1532,59.9865130437,spanish_cond1,001,1055,
images/orange.jpg,bat,x,sounds/animalfarm_spanish.wav,,,,,,,,,0,0,0,1,0,152,152,128,451.114090031,9.30123496801e-06,452.10425736,0.990177912987,,,,,x,1,0.967178885825,2018_Nov_27_1532,59.9865130437,spanish_cond1,001,1055,
images/broadsword.jpg,teapot,x,sounds/animalfarm_spanish.wav,,,,,,,,,0,0,0,1,0,153,153,231,453.198158295,8.98051075637e-06,454.004793976,0.806645624572,,,,,x,1,0.783796058269,2018_Nov_27_1532,59.9865130437,spanish_cond1,001,1055,
images/cheetah.jpg,cheetah,z,sounds/animalfarm_spanish.wav,,,,,,,,,0,0,0,1,0,154,154,82,455.109114842,9.30123496801e-06,455.82197275,0.712867851136,,,,,z,1,0.700422820635,2018_Nov_27_1532,59.9865130437,spanish_cond1,001,1055,
images/computerkeyboard01a.jpg,computer keyboard,z,sounds/animalfarm_spanish.wav,,,,,,,,,0,0,0,1,0,155,155,61,456.94146262,9.30111855268e-06,457.772527151,0.83107415284,,,,,z,1,0.817122966284,2018_Nov_27_1532,59.9865130437,spanish_cond1,001,1055,
images/swallow.jpg,mattress,x,sounds/animalfarm_spanish.wav,,,,,,,,,0,0,0,1,0,156,156,202,458.876695668,9.30123496801e-06,460.306592543,1.42990681785,,,,,x,1,1.41730494937,2018_Nov_27_1532,59.9865130437,spanish_cond1,001,1055,
images/lip.jpg,boxing glove,x,sounds/animalfarm_spanish.wav,,,,,,,,,0,0,0,1,0,157,157,136,461.411796062,8.98051075637e-06,462.507212774,1.09542633418,,,,,x,1,1.08387614496,2018_Nov_27_1532,59.9865130437,spanish_cond1,001,1055,
images/sunglasses03a.jpg,sun glasses,z,sounds/animalfarm_spanish.wav,,,,,,,,,0,0,0,1,0,158,158,17,463.617711894,9.94268339127e-06,464.374415426,0.756714116782,,,,,z,1,0.733787254198,2018_Nov_27_1532,59.9865130437,spanish_cond1,001,1055,
images/worldmap.jpg,scooter,x,sounds/animalfarm_spanish.wav,,,,,,,,,0,0,0,1,0,159,159,220,465.507090255,9.94268339127e-06,466.558364666,1.05128435395,,,,,x,1,1.03386028472,2018_Nov_27_1532,59.9865130437,spanish_cond1,001,1055,
images/nailclipper03a.jpg,aquarium,x,sounds/animalfarm_spanish.wav,,,,,,,,,0,0,0,1,0,160,160,123,467.659059339,9.62184276432e-06,468.44222548,0.783175763208,,,,,x,1,0.767113520647,2018_Nov_27_1532,59.9865130437,spanish_cond1,001,1055,
images/baseball01a.jpg,baseball,z,sounds/animalfarm_spanish.wav,,,,,,,,,0,0,0,1,0,161,161,74,469.576876978,9.62195917964e-06,470.376110814,0.79924442037,,,,,z,1,0.783788681496,2018_Nov_27_1532,59.9865130437,spanish_cond1,001,1055,
images/cookingpot.jpg,grasshopper,x,sounds/animalfarm_spanish.wav,,,,,,,,,0,0,0,1,0,162,162,183,471.492633595,8.98039434105e-06,472.243321164,0.750697511132,,,,,x,1,0.733782443218,2018_Nov_27_1532,59.9865130437,spanish_cond1,001,1055,
images/cola.jpg,comb,x,sounds/animalfarm_spanish.wav,,,,,,,,,0,0,0,1,0,163,163,157,473.366529597,9.62195917964e-06,474.027158596,0.660639263224,,,,,x,1,0.65042395913,2018_Nov_27_1532,59.9865130437,spanish_cond1,001,1055,
images/lettuce.jpg,mushroom,x,sounds/animalfarm_spanish.wav,,,,,,,,,0,0,0,1,0,164,164,205,475.152938977,8.98051075637e-06,475.777649556,0.624720522435,,,,,x,1,0.600404250203,2018_Nov_27_1532,59.9865130437,spanish_cond1,001,1055,
images/lemon02.jpg,lemon,z,sounds/animalfarm_spanish.wav,,,,,,,,,0,0,0,1,0,165,165,14,476.891242454,8.65978654474e-06,477.611510867,0.720277715125,,,,,z,1,0.700436612009,2018_Nov_27_1532,59.9865130437,spanish_cond1,001,1055,
images/lily.jpg,kiwi,x,sounds/animalfarm_spanish.wav,,,,,,,,,0,0,0,1,0,166,166,190,478.713101344,9.30123496801e-06,479.762126143,1.04903442122,,,,,x,1,1.03387183114,2018_Nov_27_1532,59.9865130437,spanish_cond1,001,1055,
images/lightbulb03b.jpg,treadmill,x,sounds/animalfarm_spanish.wav,,,,,,,,,0,0,0,1,0,167,167,234,480.866782814,8.98039434105e-06,481.62931757,0.762544056401,,,,,x,1,0.750458566123,2018_Nov_27_1532,59.9865130437,spanish_cond1,001,1055,
images/cherry01.jpg,highlighter,x,sounds/animalfarm_spanish.wav,,,,,,,,,0,0,0,1,0,168,168,187,482.739130323,8.65967012942e-06,483.379811096,0.640690073371,,,,,x,1,0.617084542639,2018_Nov_27_1532,59.9865130437,spanish_cond1,001,1055,
images/kiwi03.jpg,backpack,x,sounds/animalfarm_spanish.wav,,,,,,,,,0,0,0,1,0,169,169,125,484.509793381,9.30123496801e-06,485.096970337,0.587186897756,,,,,x,1,0.567060022731,2018_Nov_27_1532,59.9865130437,spanish_cond1,001,1055,
images/cactus.jpg,cactus,z,sounds/animalfarm_spanish.wav,,,,,,,,,0,0,0,1,0,170,170,70,486.210935924,9.94268339127e-06,486.930831006,0.71990502486,,,,,z,1,0.700439819368,2018_Nov_27_1532,59.9865130437,spanish_cond1,001,1055,
images/radish01.jpg,raisin,x,sounds/animalfarm_spanish.wav,,,,,,,,,0,0,0,1,0,171,171,214,488.043972313,9.94268339127e-06,488.964744532,0.920782482717,,,,,x,1,0.900507429615,2018_Nov_27_1532,59.9865130437,spanish_cond1,001,1055,
images/puma.jpg,puma,z,sounds/animalfarm_spanish.wav,,,,,,,,,0,0,0,1,0,172,172,4,490.064439805,8.98051075637e-06,490.931971207,0.867541665444,,,,,z,1,0.85048868286,2018_Nov_27_1532,59.9865130437,spanish_cond1,001,1055,
images/table02.jpg,table,z,sounds/animalfarm_spanish.wav,,,,,,,,,0,0,0,1,0,173,173,49,492.047437498,8.98051075637e-06,492.982532311,0.935104755801,,,,,x,0,0.917151479283,2018_Nov_27_1532,59.9865130437,spanish_cond1,001,1055,
images/lipstick04.jpg,lipstick,z,sounds/animalfarm_spanish.wav,,,,,,,,,0,0,0,1,0,174,174,56,494.084297586,8.98039434105e-06,494.699702457,0.615414492786,,,,,z,1,0.600413230713,2018_Nov_27_1532,59.9865130437,spanish_cond1,001,1055,
images/flower01.jpg,bus,x,sounds/animalfarm_spanish.wav,,,,,,,,,0,0,0,1,0,175,175,140,495.815789685,9.30111855268e-06,496.666920152,0.851140088867,,,,,x,1,0.833809031872,2018_Nov_27_1532,59.9865130437,spanish_cond1,001,1055,
images/elbow.jpg,elbow,z,sounds/animalfarm_spanish.wav,,,,,,,,,0,0,0,1,0,176,176,105,497.782505113,9.30123496801e-06,498.834195514,1.05170034291,,,,,z,1,1.03379998729,2018_Nov_27_1532,59.9865130437,spanish_cond1,001,1055,
images/bandaid01.jpg,door handle,x,sounds/animalfarm_spanish.wav,,,,,,,,,0,0,0,1,0,177,177,170,499.944203914,9.30123496801e-06,500.801437263,0.857243291917,,,,,x,1,0.833816088038,2018_Nov_27_1532,59.9865130437,spanish_cond1,001,1055,
images/banana04a.jpg,banana,z,sounds/animalfarm_spanish.wav,,,,,,,,,0,0,0,1,0,178,178,118,501.909099831,9.62195917964e-06,502.551929826,0.642840258661,,,,,z,1,0.633750402019,2018_Nov_27_1532,59.9865130437,spanish_cond1,001,1055,
images/ladybug03.jpg,giraffe,x,sounds/animalfarm_spanish.wav,,,,,,,,,0,0,0,1,0,179,179,178,503.656761938,9.62195917964e-06,505.002634169,1.34588249482,,,,,x,1,1.33396378485,2018_Nov_27_1532,59.9865130437,spanish_cond1,001,1055,
images/tent.jpg,tent,z,sounds/animalfarm_spanish.wav,,,,,,,,,0,0,0,1,0,180,180,11,506.131358866,9.30123496801e-06,507.403305653,1.27195672947,,,,,z,1,1.25059247168,2018_Nov_27_1532,59.9865130437,spanish_cond1,001,1055,
images/broom02.jpg,broom,z,sounds/animalfarm_spanish.wav,,,,,,,,,0,0,0,1,0,181,181,116,508.499020004,9.30123496801e-06,509.353860375,0.854850633652,,,,,z,1,0.833809031872,2018_Nov_27_1532,59.9865130437,spanish_cond1,001,1055,
images/screwdriver02b.jpg,cola,x,sounds/animalfarm_spanish.wav,,,,,,,,,0,0,0,1,0,182,182,158,510.450317861,9.94268339127e-06,511.137693958,0.687386039994,,,,,x,1,0.667084686924,2018_Nov_27_1532,59.9865130437,spanish_cond1,001,1055,
images/tank.jpg,wallet,x,sounds/animalfarm_spanish.wav,,,,,,,,,0,0,0,1,0,183,183,237,512.244661181,9.62195917964e-06,512.988047293,0.743396054604,,,,,x,1,0.733598022489,2018_Nov_27_1532,59.9865130437,spanish_cond1,001,1055,
images/tulip02.jpg,sport shorts,x,sounds/animalfarm_spanish.wav,,,,,,,,,0,0,0,1,0,184,184,225,514.084818455,9.30123496801e-06,514.705381332,0.620572820306,,,,,x,1,0.600410985644,2018_Nov_27_1532,59.9865130437,spanish_cond1,001,1055,
images/drink.jpg,drink,z,sounds/animalfarm_spanish.wav,,,,,,,,,0,0,0,1,0,185,185,117,515.807327821,9.62195917964e-06,516.339172788,0.531854589237,,,,,z,1,0.517049614922,2018_Nov_27_1532,59.9865130437,spanish_cond1,001,1055,
images/fireextinguisher02.jpg,fire extinguisher,z,sounds/animalfarm_spanish.wav,,,,,,,,,0,0,0,1,0,186,186,175,517.450644687,9.30123496801e-06,518.28986799,0.83923324605,,,,,z,1,0.817271785811,2018_Nov_27_1532,59.9865130437,spanish_cond1,001,1055,
images/weight01.jpg,weight,z,sounds/animalfarm_spanish.wav,,,,,,,,,0,0,0,1,0,187,187,67,519.396909943,9.62195917964e-06,520.156931445,0.760031123762,,,,,z,1,0.750459207571,2018_Nov_27_1532,59.9865130437,spanish_cond1,001,1055,
images/lion.jpg,lion,z,sounds/animalfarm_spanish.wav,,,,,,,,,0,0,0,1,0,188,188,44,521.27083032,9.30123496801e-06,521.857430279,0.586610222119,,,,,z,1,0.567071569036,2018_Nov_27_1532,59.9865130437,spanish_cond1,001,1055,
images/pouch01b.jpg,pouch,z,sounds/animalfarm_spanish.wav,,,,,,,,,0,0,0,1,0,189,189,25,522.971466427,1.02634076029e-05,524.241417301,1.26996113698,,,,,z,1,1.25058284961,2018_Nov_27_1532,59.9865130437,spanish_cond1,001,1055,
images/doorhandle.jpg,doll,x,sounds/animalfarm_spanish.wav,,,,,,,,,0,0,0,1,0,190,190,168,525.346002128,9.30123496801e-06,526.325345404,0.979353539646,,,,,z,0,0.967177923652,2018_Nov_27_1532,59.9865130437,spanish_cond1,001,1055,
images/triangleruler02.jpg,bottle of red wine,x,sounds/animalfarm_spanish.wav,,,,,,,,,0,0,0,1,0,191,191,134,527.437908432,8.98051075637e-06,529.376213448,1.9383152799,,,,,x,1,1.91744398663,2018_Nov_27_1532,59.9865130437,spanish_cond1,001,1055,
images/beermug01b.jpg,beer mug,z,sounds/animalfarm_spanish.wav,,,,,,,,,0,0,0,1,0,192,192,111,530.494684995,9.30123496801e-06,531.426791551,0.932116498705,,,,,z,1,0.917149554938,2018_Nov_27_1532,59.9865130437,spanish_cond1,001,1055,
images/diploma01.jpg,glasses,x,sounds/animalfarm_spanish.wav,,,,,,,,,0,0,0,1,0,193,193,179,532.559499736,9.62195917964e-06,533.360676564,0.801187412813,,,,,x,1,0.783790926565,2018_Nov_27_1532,59.9865130437,spanish_cond1,001,1055,
images/coin01b.jpg,arrow,x,sounds/animalfarm_spanish.wav,,,,,,,,,0,0,0,1,0,194,194,124,534.465772638,9.30123496801e-06,535.261210615,0.795447919401,,,,,z,0,0.783780663158,2018_Nov_27_1532,59.9865130437,spanish_cond1,001,1055,
images/hairband.jpg,hairband,z,sounds/animalfarm_spanish.wav,,,,,,,,,0,0,0,1,0,195,195,66,536.373043016,9.30123496801e-06,537.71191175,1.33887835639,,,,,z,1,1.3172514193,2018_Nov_27_1532,59.9865130437,spanish_cond1,001,1055,
images/safe.jpg,safe,z,sounds/animalfarm_spanish.wav,,,,,,,,,0,0,0,1,0,196,196,78,538.82444495,9.30111855268e-06,539.92921516,1.10478047351,,,,,z,1,1.0838764658,2018_Nov_27_1532,59.9865130437,spanish_cond1,001,1055,
images/razor04a.jpg,razor,z,sounds/animalfarm_spanish.wav,,,,,,,,,0,0,0,1,0,197,197,36,541.030805636,9.94268339127e-06,541.613058398,0.582262062817,,,,,z,1,0.567100114189,2018_Nov_27_1532,59.9865130437,spanish_cond1,001,1055,
images/saltshaker03c.jpg,salt shaker,z,sounds/animalfarm_spanish.wav,,,,,,,,,0,0,0,1,0,198,198,63,542.724872517,9.62195917964e-06,543.363526907,0.638664332218,,,,,z,1,0.617081014556,2018_Nov_27_1532,59.9865130437,spanish_cond1,001,1055,
images/aloe02.jpg,broad sword,x,sounds/animalfarm_spanish.wav,,,,,,,,,0,0,0,1,0,199,199,137,544.487109954,8.98051075637e-06,545.49747953,1.01037919789,,,,,x,1,1.00054139504,2018_Nov_27_1532,59.9865130437,spanish_cond1,001,1055,
images/umbrella01.jpg,umbrella,z,sounds/animalfarm_spanish.wav,,,,,,,,,0,0,0,1,0,200,200,53,546.611845391,9.94268339127e-06,547.281300606,0.669465478277,,,,,z,1,0.650422676234,2018_Nov_27_1532,59.9865130437,spanish_cond1,001,1055,
images/coffeepot03b.jpg,coffee pot,z,sounds/animalfarm_spanish.wav,,,,,,,,,0,0,0,1,0,201,201,107,548.40461039,9.94268339127e-06,549.265193461,0.860593334306,,,,,z,1,0.850474891369,2018_Nov_27_1532,59.9865130437,spanish_cond1,001,1055,
images/hanger02a.jpg,hanger,z,sounds/animalfarm_spanish.wav,,,,,,,,,0,0,0,1,0,202,202,88,550.360490219,8.98039434105e-06,551.132392264,0.771911987336,,,,,z,1,0.750448302599,2018_Nov_27_1532,59.9865130437,spanish_cond1,001,1055,
images/leek.jpg,donut,x,sounds/animalfarm_spanish.wav,,,,,,,,,0,0,0,1,0,203,203,169,552.235535723,8.98051075637e-06,552.816205674,0.580680214218,,,,,x,1,0.567050721496,2018_Nov_27_1532,59.9865130437,spanish_cond1,001,1055,
images/treadmill.jpg,lily,x,sounds/animalfarm_spanish.wav,,,,,,,,,0,0,0,1,0,204,204,199,553.92375791,9.62195917964e-06,554.616707683,0.692960035871,,,,,x,1,0.683750225697,2018_Nov_27_1532,59.9865130437,spanish_cond1,001,1055,
images/hat05.jpg,hat,z,sounds/animalfarm_spanish.wav,,,,,,,,,0,0,0,1,0,205,205,15,555.721410539,9.30123496801e-06,556.467075771,0.745674853097,,,,,z,1,0.733607003,2018_Nov_27_1532,59.9865130437,spanish_cond1,001,1055,
images/handfan01b.jpg,handfan,z,sounds/animalfarm_spanish.wav,,,,,,,,,0,0,0,1,0,206,206,69,557.58382146,9.62195917964e-06,558.367949155,0.784137637471,,,,,x,0,0.767274528043,2018_Nov_27_1532,59.9865130437,spanish_cond1,001,1055,
images/cupcake.jpg,scissors,x,sounds/animalfarm_spanish.wav,,,,,,,,,0,0,0,1,0,207,207,219,559.488802135,8.98051075637e-06,560.301672199,0.812879686244,,,,,x,1,0.800463521387,2018_Nov_27_1532,59.9865130437,spanish_cond1,001,1055,
images/parkbench03.jpg,park bench,z,sounds/animalfarm_spanish.wav,,,,,,,,,0,0,0,1,0,208,208,71,561.409376783,9.62195917964e-06,562.085512839,0.676146319136,,,,,z,1,0.667085328489,2018_Nov_27_1532,59.9865130437,spanish_cond1,001,1055,
,,,sounds/animalfarm_spanish.wav,,,,,,,,,0,0,0,1,,,,,,,,,,,,,,,,2018_Nov_27_1532,59.9865130437,spanish_cond1,001,1055,
images/candycane01a.jpg,lip,x,sounds/greatgatsby_english.wav,,,,,,,,,0,1,1,0,0,0,0,200,583.205753862,9.62195917964e-06,585.792263054,2.58651945507,,,,573.088805791,x,1,2.56764952757,2018_Nov_27_1532,59.9865130437,spanish_cond1,001,1055,
images/hat05.jpg,hat,z,sounds/greatgatsby_english.wav,,,,,,,,,0,1,1,0,0,1,1,15,586.896062089,9.30123496801e-06,587.759461184,0.863408717094,,,,,z,1,0.850464948686,2018_Nov_27_1532,59.9865130437,spanish_cond1,001,1055,
images/fryingpan01.jpg,frying pan,z,sounds/greatgatsby_english.wav,,,,,,,,,0,1,1,0,0,2,2,45,588.858573687,8.98051075637e-06,590.760320103,1.90175603796,,,,,x,0,1.88409623108,2018_Nov_27_1532,59.9865130437,spanish_cond1,001,1055,
images/lychee02a.jpg,lychee,z,sounds/greatgatsby_english.wav,,,,,,,,,0,1,1,0,0,3,3,62,591.883476898,9.30123496801e-06,593.761173891,1.877707256,,,,,z,1,1.86742844724,2018_Nov_27_1532,59.9865130437,spanish_cond1,001,1055,
images/croissant02b.jpg,croissant,z,sounds/greatgatsby_english.wav,,,,,,,,,0,1,1,0,0,4,4,39,594.873097059,9.30123496801e-06,595.978468962,1.10538216622,,,,,z,1,1.08388031449,2018_Nov_27_1532,59.9865130437,spanish_cond1,001,1055,
images/mushroom01.jpg,shower head,x,sounds/greatgatsby_english.wav,,,,,,,,,0,1,1,0,0,5,5,222,597.094730026,8.98051075637e-06,598.729247939,1.63452785567,,,,,x,1,1.61734882556,2018_Nov_27_1532,59.9865130437,spanish_cond1,001,1055,
images/leaf01a.jpg,leaf,z,sounds/greatgatsby_english.wav,,,,,,,,,0,1,1,0,0,6,6,68,599.832115248,9.30123496801e-06,600.779831494,0.947725868085,,,,,z,1,0.93382696074,2018_Nov_27_1532,59.9865130437,spanish_cond1,001,1055,
images/parrot01.jpg,chameleon,x,sounds/greatgatsby_english.wav,,,,,,,,,0,1,1,0,0,7,7,150,601.894045328,8.33894591779e-06,603.263873008,1.36983666092,,,,,x,1,1.35061521153,2018_Nov_27_1532,59.9865130437,spanish_cond1,001,1055,
images/dryingmachine01.jpg,drying machine,z,sounds/greatgatsby_english.wav,,,,,,,,,0,1,1,0,0,8,8,18,604.385748801,9.62195917964e-06,605.914626359,1.52888782125,,,,,z,1,1.51730491733,2018_Nov_27_1532,59.9865130437,spanish_cond1,001,1055,
images/computermouse02a.jpg,world map,x,sounds/greatgatsby_english.wav,,,,,,,,,0,1,1,0,0,9,9,239,607.01596891,9.30123496801e-06,607.881874202,0.865915235132,,,,,x,1,0.850500229164,2018_Nov_27_1532,59.9865130437,spanish_cond1,001,1055,
images/envelope02a.jpg,grand piano,x,sounds/greatgatsby_english.wav,,,,,,,,,0,1,1,0,0,10,10,182,609.005182703,9.30123496801e-06,609.965793004,0.960620564409,,,,,z,0,0.950517195859,2018_Nov_27_1532,59.9865130437,spanish_cond1,001,1055,
images/shotglass.jpg,shot glass,z,sounds/greatgatsby_english.wav,,,,,,,,,0,1,1,0,0,11,11,86,611.073764117,9.30123496801e-06,612.549845071,1.47609057592,,,,,z,1,1.46732113045,2018_Nov_27_1532,59.9865130437,spanish_cond1,001,1055,
images/scissors04a.jpg,leek,x,sounds/greatgatsby_english.wav,,,,,,,,,0,1,1,0,0,12,12,194,613.643703668,9.94268339127e-06,614.250328509,0.60663542524,,,,,x,1,0.583732617553,2018_Nov_27_1532,59.9865130437,spanish_cond1,001,1055,
images/parkfountain.jpg,park fountain,z,sounds/greatgatsby_english.wav,,,,,,,,,0,1,1,0,0,13,13,93,615.369651599,9.30123496801e-06,616.734367458,1.36472580163,,,,,z,1,1.35061007983,2018_Nov_27_1532,59.9865130437,spanish_cond1,001,1055,
images/hand01a.jpg,cupcake,x,sounds/greatgatsby_english.wav,,,,,,,,,0,1,1,0,0,14,14,163,617.844076294,9.62195917964e-06,618.434859556,0.590793525451,,,,,x,1,0.567069003242,2018_Nov_27_1532,59.9865130437,spanish_cond1,001,1055,
images/pipe.jpg,icecube,x,sounds/greatgatsby_english.wav,,,,,,,,,0,1,1,0,0,15,15,188,619.543542693,9.30123496801e-06,620.268701944,0.725168873207,,,,,z,0,0.717098302091,2018_Nov_27_1532,59.9865130437,spanish_cond1,001,1055,
images/feather03b.jpg,feather,z,sounds/greatgatsby_english.wav,,,,,,,,,0,1,1,0,0,16,16,114,621.369103789,8.65978654474e-06,623.552974129,2.18387996173,,,,,z,1,2.16751751432,2018_Nov_27_1532,59.9865130437,spanish_cond1,001,1055,
images/cockroach02.jpg,belt,x,sounds/greatgatsby_english.wav,,,,,,,,,0,1,1,0,0,17,17,129,624.652492678,9.30123496801e-06,625.570209929,0.917726872023,,,,,x,1,0.900487864972,2018_Nov_27_1532,59.9865130437,spanish_cond1,001,1055,
images/teapot.jpg,light switch,x,sounds/greatgatsby_english.wav,,,,,,,,,0,1,1,0,0,18,18,197,626.686343021,9.62195917964e-06,627.820852755,1.13451999775,,,,,x,1,1.11721299565,2018_Nov_27_1532,59.9865130437,spanish_cond1,001,1055,
images/highheelshoe02a.jpg,high heel shoe,z,sounds/greatgatsby_english.wav,,,,,,,,,0,1,1,0,0,19,19,75,628.927573335,9.30123496801e-06,629.921457623,0.993893589592,,,,,z,1,0.983855970902,2018_Nov_27_1532,59.9865130437,spanish_cond1,001,1055,
images/cigar.jpg,crocodile,x,sounds/greatgatsby_english.wav,,,,,,,,,0,1,1,0,0,20,20,162,631.019320556,8.65978654474e-06,631.821989749,0.802678815089,,,,,x,1,0.783788039931,2018_Nov_27_1532,59.9865130437,spanish_cond1,001,1055,
images/cupcake.jpg,scissors,x,sounds/greatgatsby_english.wav,,,,,,,,,0,1,1,0,0,21,21,219,632.939285172,9.30123496801e-06,633.672524296,0.733249066398,,,,,x,1,0.717104716692,2018_Nov_27_1532,59.9865130437,spanish_cond1,001,1055,
images/hammer02a.jpg,flower,x,sounds/greatgatsby_english.wav,,,,,,,,,0,1,1,0,0,22,22,176,634.76766101,8.98051075637e-06,635.539710912,0.772059523966,,,,,x,1,0.750447661267,2018_Nov_27_1532,59.9865130437,spanish_cond1,001,1055,
images/cola.jpg,comb,x,sounds/greatgatsby_english.wav,,,,,,,,,0,1,1,0,0,23,23,157,636.660102038,8.98051075637e-06,637.306886975,0.64679455955,,,,,x,1,0.633752647205,2018_Nov_27_1532,59.9865130437,spanish_cond1,001,1055,
images/watermelon01.jpg,orange,x,sounds/greatgatsby_english.wav,,,,,,,,,0,1,1,0,0,24,24,207,638.43595678,9.62195917964e-06,639.124059976,0.688113780227,,,,,x,1,0.667085007648,2018_Nov_27_1532,59.9865130437,spanish_cond1,001,1055,
images/dragonfly02.jpg,dragon fly,z,sounds/greatgatsby_english.wav,,,,,,,,,0,1,1,0,0,25,25,29,640.221674341,9.30123496801e-06,641.107969188,0.886304468731,,,,,z,1,0.867155183689,2018_Nov_27_1532,59.9865130437,spanish_cond1,001,1055,
images/bat.jpg,hand,x,sounds/greatgatsby_english.wav,,,,,,,,,0,1,1,0,0,26,26,185,642.207334107,9.30123496801e-06,643.291924522,1.08460067783,,,,,x,1,1.06721092702,2018_Nov_27_1532,59.9865130437,spanish_cond1,001,1055,
images/screwdriver02b.jpg,cola,x,sounds/greatgatsby_english.wav,,,,,,,,,0,1,1,0,0,27,27,158,644.385666052,8.98051075637e-06,645.075973316,0.6903172069,,,,,x,1,0.66726814548,2018_Nov_27_1532,59.9865130437,spanish_cond1,001,1055,
images/banjo.jpg,knife,x,sounds/greatgatsby_english.wav,,,,,,,,,0,1,1,0,0,28,28,191,646.172431765,9.62195917964e-06,646.976318456,0.803896312602,,,,,x,1,0.783792530303,2018_Nov_27_1532,59.9865130437,spanish_cond1,001,1055,
images/thumbtack02a.jpg,thumb tack,z,sounds/greatgatsby_english.wav,,,,,,,,,0,1,1,0,0,29,29,60,648.088185175,9.30123496801e-06,649.143592535,1.05541730241,,,,,z,1,1.03387792502,2018_Nov_27_1532,59.9865130437,spanish_cond1,001,1055,
images/tent.jpg,tent,z,sounds/greatgatsby_english.wav,,,,,,,,,0,1,1,0,0,30,30,11,650.269893463,9.94268339127e-06,651.04412434,0.774240820087,,,,,z,1,0.750453113695,2018_Nov_27_1532,59.9865130437,spanish_cond1,001,1055,
images/clothespin02a.jpg,clothes pin,z,sounds/greatgatsby_english.wav,,,,,,,,,0,1,1,0,0,31,31,79,652.15150274,8.98051075637e-06,652.827954396,0.67646127753,,,,,z,1,0.667089177179,2018_Nov_27_1532,59.9865130437,spanish_cond1,001,1055,
images/ostrich.jpg,ostrich,z,sounds/greatgatsby_english.wav,,,,,,,,,0,1,1,0,0,32,32,76,653.92802717,8.98039434105e-06,654.795193259,0.867175710504,,,,,z,1,0.850478419452,2018_Nov_27_1532,59.9865130437,spanish_cond1,001,1055,
images/lettuce.jpg,mushroom,x,sounds/greatgatsby_english.wav,,,,,,,,,0,1,1,0,0,33,33,205,655.918666937,8.98039434105e-06,656.59570072,0.677043405594,,,,,x,1,0.667100082035,2018_Nov_27_1532,59.9865130437,spanish_cond1,001,1055,
images/donut.jpg,rhinoceros,x,sounds/greatgatsby_english.wav,,,,,,,,,0,1,1,0,0,34,34,216,657.72121361,8.98039434105e-06,660.713369476,2.99216644943,,,,,None,0,,2018_Nov_27_1532,59.9865130437,spanish_cond1,001,1055,
images/nailclipper03a.jpg,aquarium,x,sounds/greatgatsby_english.wav,,,,,,,,,0,1,1,0,0,35,35,123,661.812641703,8.98051075637e-06,663.064036325,1.25140488497,,,,,x,1,1.23375149257,2018_Nov_27_1532,59.9865130437,spanish_cond1,001,1055,
images/fork01.jpg,cooking pot,x,sounds/greatgatsby_english.wav,,,,,,,,,0,1,1,0,0,36,36,160,664.158971298,8.98051075637e-06,664.88141748,0.722455483279,,,,,x,1,0.700464836438,2018_Nov_27_1532,59.9865130437,spanish_cond1,001,1055,
images/atm.jpg,atm,z,sounds/greatgatsby_english.wav,,,,,,,,,0,1,1,0,0,37,37,96,666.018576137,9.94268339127e-06,666.86538699,0.846820795326,,,,,z,1,0.833912307513,2018_Nov_27_1532,59.9865130437,spanish_cond1,001,1055,
images/peach01.jpg,peach,z,sounds/greatgatsby_english.wav,,,,,,,,,0,1,1,0,0,38,38,106,667.99425313,9.30123496801e-06,669.666073099,1.67182991211,,,,,z,1,1.65069626039,2018_Nov_27_1532,59.9865130437,spanish_cond1,001,1055,
images/paperclip04.jpg,eye drops,x,sounds/greatgatsby_english.wav,,,,,,,,,0,1,1,0,0,39,39,174,670.771202208,9.30123496801e-06,672.050088666,1.27889672143,,,,,x,1,1.26722272986,2018_Nov_27_1532,59.9865130437,spanish_cond1,001,1055,
images/pineapple01a.jpg,pineapple,z,sounds/greatgatsby_english.wav,,,,,,,,,0,1,1,0,0,40,40,51,673.161878089,9.30123496801e-06,673.917279131,0.755410663201,,,,,z,1,0.733771538362,2018_Nov_27_1532,59.9865130437,spanish_cond1,001,1055,
images/button07.jpg,radish,x,sounds/greatgatsby_english.wav,,,,,,,,,0,1,1,0,0,41,41,215,675.029284406,9.62195917964e-06,676.334777802,1.30550301785,,,,,x,1,1.28406595404,2018_Nov_27_1532,59.9865130437,spanish_cond1,001,1055,
images/weight01.jpg,weight,z,sounds/greatgatsby_english.wav,,,,,,,,,0,1,1,0,0,42,42,67,677.438092532,9.62195917964e-06,678.135168517,0.697086248896,,,,,z,1,0.683765620925,2018_Nov_27_1532,59.9865130437,spanish_cond1,001,1055,
images/pepper05a.jpg,lighter,x,sounds/greatgatsby_english.wav,,,,,,,,,0,1,1,0,0,43,43,198,679.255528532,9.30111855268e-06,680.502501226,1.24698295724,,,,,x,1,1.23393110232,2018_Nov_27_1532,59.9865130437,spanish_cond1,001,1055,
images/cheetah.jpg,cheetah,z,sounds/greatgatsby_english.wav,,,,,,,,,0,1,1,0,0,44,44,82,681.603689505,9.62195917964e-06,682.336338482,0.732658920228,,,,,z,1,0.717099905713,2018_Nov_27_1532,59.9865130437,spanish_cond1,001,1055,
images/baseball01a.jpg,baseball,z,sounds/greatgatsby_english.wav,,,,,,,,,0,1,1,0,0,45,45,74,683.467457121,9.62184276432e-06,684.503464063,1.03601720522,,,,,x,0,1.01702187164,2018_Nov_27_1532,59.9865130437,spanish_cond1,001,1055,
images/flipflop01b.jpg,flip flop,z,sounds/greatgatsby_english.wav,,,,,,,,,0,1,1,0,0,46,46,27,685.619353078,9.94268339127e-06,686.35416058,0.734817765071,,,,,z,1,0.717114017811,2018_Nov_27_1532,59.9865130437,spanish_cond1,001,1055,
images/notebook02b.jpg,notebook,z,sounds/greatgatsby_english.wav,,,,,,,,,0,1,1,0,0,47,47,7,687.459624212,9.30123496801e-06,687.954633145,0.495019197464,,,,,z,1,0.483732649591,2018_Nov_27_1532,59.9865130437,spanish_cond1,001,1055,
images/electrictoothbrush01a.jpg,banjo,x,sounds/greatgatsby_english.wav,,,,,,,,,0,1,1,0,0,48,48,127,689.047786454,8.98051075637e-06,689.905159322,0.857382168761,,,,,x,1,0.833802617271,2018_Nov_27_1532,59.9865130437,spanish_cond1,001,1055,
images/table02.jpg,table,z,sounds/greatgatsby_english.wav,,,,,,,,,0,1,1,0,0,49,49,49,691.018500765,9.30123496801e-06,691.722344831,0.703854008112,,,,,z,1,0.683763054898,2018_Nov_27_1532,59.9865130437,spanish_cond1,001,1055,
images/highlighter03b.jpg,coin,x,sounds/greatgatsby_english.wav,,,,,,,,,0,1,1,0,0,50,50,156,692.822897099,9.94268339127e-06,693.689566695,0.866679538623,,,,,x,1,0.850478098728,2018_Nov_27_1532,59.9865130437,spanish_cond1,001,1055,
images/lollipop03b.jpg,lollipop,z,sounds/greatgatsby_english.wav,,,,,,,,,0,1,1,0,0,51,51,42,694.781131099,9.30123496801e-06,695.423400455,0.642279298976,,,,,z,1,0.633751364308,2018_Nov_27_1532,59.9865130437,spanish_cond1,001,1055,
images/antelope.jpg,antelope,z,sounds/greatgatsby_english.wav,,,,,,,,,0,1,1,0,0,52,52,12,696.527334518,9.30123496801e-06,697.974105087,1.4467801908,,,,,z,1,1.43395926256,2018_Nov_27_1532,59.9865130437,spanish_cond1,001,1055,
images/djmixer01.jpg,light bulb,x,sounds/greatgatsby_english.wav,,,,,,,,,0,1,1,0,0,53,53,196,699.094312754,8.98039434105e-06,700.1914101,1.09710664744,,,,,x,1,1.08387005108,2018_Nov_27_1532,59.9865130437,spanish_cond1,001,1055,
images/drink.jpg,drink,z,sounds/greatgatsby_english.wav,,,,,,,,,0,1,1,0,0,54,54,117,701.289933099,9.94268339127e-06,702.025272053,0.735348575981,,,,,z,1,0.717104395968,2018_Nov_27_1532,59.9865130437,spanish_cond1,001,1055,
images/coin01b.jpg,arrow,x,sounds/greatgatsby_english.wav,,,,,,,,,0,1,1,0,0,55,55,124,703.127336891,9.30123496801e-06,704.259249661,1.13192303339,,,,,x,1,1.11722710787,2018_Nov_27_1532,59.9865130437,spanish_cond1,001,1055,
images/cherry01.jpg,highlighter,x,sounds/greatgatsby_english.wav,,,,,,,,,0,1,1,0,0,56,56,187,705.367318597,8.98051075637e-06,706.509879658,1.14257068373,,,,,x,1,1.13389425026,2018_Nov_27_1532,59.9865130437,spanish_cond1,001,1055,
images/bowlingball.jpg,bowling ball,z,sounds/greatgatsby_english.wav,,,,,,,,,0,1,1,0,0,57,57,20,707.640686225,9.62195917964e-06,708.760515108,1.11983882589,,,,,z,1,1.10054457036,2018_Nov_27_1532,59.9865130437,spanish_cond1,001,1055,
images/coffeepot03b.jpg,coffee pot,z,sounds/greatgatsby_english.wav,,,,,,,,,0,1,1,0,0,58,58,107,709.880868067,9.30123496801e-06,711.21121047,1.3303523463,,,,,z,1,1.31716578396,2018_Nov_27_1532,59.9865130437,spanish_cond1,001,1055,
images/eyedrops.jpg,bicycle,x,sounds/greatgatsby_english.wav,,,,,,,,,0,1,1,0,0,59,59,131,712.310721322,9.62195917964e-06,713.095096301,0.784384600935,,,,,x,1,0.767134368303,2018_Nov_27_1532,59.9865130437,spanish_cond1,001,1055,
images/cactus.jpg,cactus,z,sounds/greatgatsby_english.wav,,,,,,,,,0,1,1,0,0,60,60,70,714.206122383,8.98051075637e-06,715.162355017,0.956242256332,,,,,z,1,0.933854222996,2018_Nov_27_1532,59.9865130437,spanish_cond1,001,1055,
images/bullet (2).jpg,rubber glove,x,sounds/greatgatsby_english.wav,,,,,,,,,0,1,1,0,0,61,61,217,716.266557532,9.30123496801e-06,717.162924316,0.896376726334,,,,,x,1,0.883837079862,2018_Nov_27_1532,59.9865130437,spanish_cond1,001,1055,
images/plant01.jpg,plant,z,sounds/greatgatsby_english.wav,,,,,,,,,0,1,1,0,0,62,62,47,718.273704717,9.30111855268e-06,718.913484233,0.639805174666,,,,,z,1,0.617075562128,2018_Nov_27_1532,59.9865130437,spanish_cond1,001,1055,
images/ladder.jpg,ladder,z,sounds/greatgatsby_english.wav,,,,,,,,,0,1,1,0,0,63,63,113,720.006236948,9.30111855268e-06,720.763941164,0.757713837433,,,,,z,1,0.733789819991,2018_Nov_27_1532,59.9865130437,spanish_cond1,001,1055,
images/acousticguitar02.jpg,acoustic guitar,z,sounds/greatgatsby_english.wav,,,,,,,,,0,1,1,0,0,64,64,97,721.878390415,9.30123496801e-06,722.764508859,0.8861277455,,,,,z,1,0.867159032496,2018_Nov_27_1532,59.9865130437,spanish_cond1,001,1055,
images/giraffe.jpg,lettuce,x,sounds/greatgatsby_english.wav,,,,,,,,,0,1,1,0,0,65,65,195,723.864673041,9.30111855268e-06,724.548344367,0.683681268361,,,,,x,1,0.667098478414,2018_Nov_27_1532,59.9865130437,spanish_cond1,001,1055,
images/banana04a.jpg,banana,z,sounds/greatgatsby_english.wav,,,,,,,,,0,1,1,0,0,66,66,118,725.654621375,9.30123496801e-06,726.765630457,1.11101902544,,,,,z,1,1.10054424964,2018_Nov_27_1532,59.9865130437,spanish_cond1,001,1055,
images/cocktailshrimp01.jpg,cocktail shrimp,z,sounds/greatgatsby_english.wav,,,,,,,,,0,1,1,0,0,67,67,30,727.881070128,1.02634076029e-05,728.59949658,0.718437036034,,,,,z,1,0.70043821563,2018_Nov_27_1532,59.9865130437,spanish_cond1,001,1055,
images/toucan.jpg,toucan,z,sounds/greatgatsby_english.wav,,,,,,,,,0,1,1,0,0,68,68,81,729.69877458,9.62195917964e-06,730.316668008,0.617903049919,,,,,z,1,0.600424135569,2018_Nov_27_1532,59.9865130437,spanish_cond1,001,1055,
images/puma.jpg,puma,z,sounds/greatgatsby_english.wav,,,,,,,,,0,1,1,0,0,69,69,4,731.414145422,9.62195917964e-06,732.067141008,0.65300552838,,,,,z,1,0.633745591156,2018_Nov_27_1532,59.9865130437,spanish_cond1,001,1055,
images/bus.jpg,microphone,x,sounds/greatgatsby_english.wav,,,,,,,,,0,1,1,0,0,70,70,203,733.184883531,9.30111855268e-06,733.917656311,0.732782401727,,,,,x,1,0.717089642189,2018_Nov_27_1532,59.9865130437,spanish_cond1,001,1055,
images/printer03a.jpg,printer,z,sounds/greatgatsby_english.wav,,,,,,,,,0,1,1,0,0,71,71,72,735.026893031,9.62195917964e-06,735.701541853,0.674658124102,,,,,z,1,0.650448655477,2018_Nov_27_1532,59.9865130437,spanish_cond1,001,1055,
images/tank.jpg,wallet,x,sounds/greatgatsby_english.wav,,,,,,,,,0,1,1,0,0,72,72,237,736.806395133,9.62195917964e-06,737.552039517,0.745654647006,,,,,x,1,0.733778915135,2018_Nov_27_1532,59.9865130437,spanish_cond1,001,1055,
images/pictureframe04.jpg,picture frame,z,sounds/greatgatsby_english.wav,,,,,,,,,0,1,1,0,0,73,73,41,738.673738586,9.30123496801e-06,739.53592724,0.862198275747,,,,,z,1,0.850472966908,2018_Nov_27_1532,59.9865130437,spanish_cond1,001,1055,
images/corn01.jpg,corn,z,sounds/greatgatsby_english.wav,,,,,,,,,0,1,1,0,0,74,74,22,740.63538004,8.65978654474e-06,741.653197326,1.01782658743,,,,,z,1,1.00051926461,2018_Nov_27_1532,59.9865130437,spanish_cond1,001,1055,
images/tie01.jpg,bench,x,sounds/greatgatsby_english.wav,,,,,,,,,0,1,1,0,0,75,75,130,742.751185344,9.62195917964e-06,743.503731553,0.752556151361,,,,,x,1,0.733768331003,2018_Nov_27_1532,59.9865130437,spanish_cond1,001,1055,
images/battery03b.jpg,battery,z,sounds/greatgatsby_english.wav,,,,,,,,,0,1,1,0,0,76,76,34,744.613151089,9.94268339127e-06,745.921082046,1.30794154096,,,,,x,0,1.28393701988,2018_Nov_27_1532,59.9865130437,spanish_cond1,001,1055,
images/charcoalbarbecue.jpg,charcoal barbecue,z,sounds/greatgatsby_english.wav,,,,,,,,,0,1,1,0,0,77,77,77,747.038209086,8.98039434105e-06,747.871647993,0.833448850201,,,,,z,1,0.817150228424,2018_Nov_27_1532,59.9865130437,spanish_cond1,001,1055,
images/pen03c.jpg,pepper,x,sounds/greatgatsby_english.wav,,,,,,,,,0,1,1,0,0,78,78,211,748.965652845,8.98051075637e-06,749.822180584,0.856537361629,,,,,x,1,0.833790429402,2018_Nov_27_1532,59.9865130437,spanish_cond1,001,1055,
images/broom02.jpg,broom,z,sounds/greatgatsby_english.wav,,,,,,,,,0,1,1,0,0,79,79,116,750.915977922,9.30123496801e-06,751.589359855,0.673391554621,,,,,z,1,0.650421714061,2018_Nov_27_1532,59.9865130437,spanish_cond1,001,1055,
images/toothbrush03a.jpg,parrot,x,sounds/greatgatsby_english.wav,,,,,,,,,0,1,1,0,0,80,80,210,752.682027576,9.30123496801e-06,753.406535421,0.724517467199,,,,,x,1,0.700433404651,2018_Nov_27_1532,59.9865130437,spanish_cond1,001,1055,
images/swan.jpg,swan,z,sounds/greatgatsby_english.wav,,,,,,,,,0,1,1,0,0,81,81,54,754.497317881,9.62195917964e-06,755.357100085,0.859792146715,,,,,z,1,0.850484513328,2018_Nov_27_1532,59.9865130437,spanish_cond1,001,1055,
images/parkingmeter.jpg,ear,x,sounds/greatgatsby_english.wav,,,,,,,,,0,1,1,0,0,82,82,171,756.458860229,1.02634076029e-05,757.190960114,0.732109827572,,,,,x,1,0.717120432411,2018_Nov_27_1532,59.9865130437,spanish_cond1,001,1055,
images/knife04.jpg,tooth brush,x,sounds/greatgatsby_english.wav,,,,,,,,,0,1,1,0,0,83,83,233,758.287790932,9.62195917964e-06,759.024820783,0.737040114822,,,,,z,0,0.717114659259,2018_Nov_27_1532,59.9865130437,spanish_cond1,001,1055,
images/snowman.jpg,globe,x,sounds/greatgatsby_english.wav,,,,,,,,,0,1,1,0,0,84,84,180,760.136210254,9.62195917964e-06,761.392149964,1.25594965287,,,,,x,1,1.23392757436,2018_Nov_27_1532,59.9865130437,spanish_cond1,001,1055,
images/diploma01.jpg,glasses,x,sounds/greatgatsby_english.wav,,,,,,,,,0,1,1,0,0,85,85,179,762.523902689,9.30123496801e-06,763.292693636,0.768800569349,,,,,x,1,0.750456962502,2018_Nov_27_1532,59.9865130437,spanish_cond1,001,1055,
images/radish01.jpg,raisin,x,sounds/greatgatsby_english.wav,,,,,,,,,0,1,1,0,0,86,86,214,764.403936212,9.30123496801e-06,765.093208154,0.689281564322,,,,,x,1,0.667110986891,2018_Nov_27_1532,59.9865130437,spanish_cond1,001,1055,
images/seagull.jpg,seagull,z,sounds/greatgatsby_english.wav,,,,,,,,,0,1,1,0,0,87,87,50,766.2026232,9.94268339127e-06,767.593901095,1.3912881579,,,,,z,1,1.36728620261,2018_Nov_27_1532,59.9865130437,spanish_cond1,001,1055,
images/bench02.jpg,electric toothbrush,x,sounds/greatgatsby_english.wav,,,,,,,,,0,1,1,0,0,88,88,172,768.702607645,8.98039434105e-06,769.611142988,0.908545286162,,,,,x,1,0.900489147869,2018_Nov_27_1532,59.9865130437,spanish_cond1,001,1055,
images/licenseplate.jpg,license plate,z,sounds/greatgatsby_english.wav,,,,,,,,,0,1,1,0,0,89,89,40,770.72909078,9.30123496801e-06,771.595046748,0.865965269273,,,,,z,1,0.8504790609,2018_Nov_27_1532,59.9865130437,spanish_cond1,001,1055,
images/doorhandle.jpg,doll,x,sounds/greatgatsby_english.wav,,,,,,,,,0,1,1,0,0,90,90,168,772.698608442,9.62195917964e-06,774.062409894,1.3638113956,,,,,x,1,1.35061007971,2018_Nov_27_1532,59.9865130437,spanish_cond1,001,1055,
images/hairpin.jpg,hair pin,z,sounds/greatgatsby_english.wav,,,,,,,,,0,1,1,0,0,91,91,28,775.153570177,9.30123496801e-06,775.97960371,0.826043155743,,,,,z,1,0.817103722366,2018_Nov_27_1532,59.9865130437,spanish_cond1,001,1055,
images/razor04a.jpg,razor,z,sounds/greatgatsby_english.wav,,,,,,,,,0,1,1,0,0,92,92,36,777.079207254,9.62195917964e-06,778.430322486,1.35112485406,,,,,z,1,1.33395223855,2018_Nov_27_1532,59.9865130437,spanish_cond1,001,1055,
images/pouch01b.jpg,pouch,z,sounds/greatgatsby_english.wav,,,,,,,,,0,1,1,0,0,93,93,25,779.542418529,9.30123496801e-06,780.397542105,0.855133198202,,,,,z,1,0.833808069699,2018_Nov_27_1532,59.9865130437,spanish_cond1,001,1055,
images/radio03a.jpg,radio,z,sounds/greatgatsby_english.wav,,,,,,,,,0,1,1,0,0,94,94,37,781.511538162,9.30123496801e-06,782.164721696,0.653193477192,,,,,z,1,0.633765155799,2018_Nov_27_1532,59.9865130437,spanish_cond1,001,1055,
images/paintbrush03a.jpg,paint brush,z,sounds/greatgatsby_english.wav,,,,,,,,,0,1,1,0,0,95,95,0,783.266428919,8.98039434105e-06,783.948563299,0.6821443222,,,,,z,1,0.66706351866,2018_Nov_27_1532,59.9865130437,spanish_cond1,001,1055,
images/bottleofredwine02.jpg,pipe,x,sounds/greatgatsby_english.wav,,,,,,,,,0,1,1,0,0,96,96,213,785.046696287,9.62195917964e-06,785.849095424,0.802408759017,,,,,x,1,0.783789964393,2018_Nov_27_1532,59.9865130437,spanish_cond1,001,1055,
images/bull.jpg,button,x,sounds/greatgatsby_english.wav,,,,,,,,,0,1,1,0,0,97,97,141,786.955781686,8.98051075637e-06,788.533185626,1.57741420344,,,,,x,1,1.56734675681,2018_Nov_27_1532,59.9865130437,spanish_cond1,001,1055,
images/puzzle.jpg,puzzle,z,sounds/greatgatsby_english.wav,,,,,,,,,0,1,1,0,0,98,98,57,789.654072603,9.62195917964e-06,790.467071922,0.813009582576,,,,,z,1,0.800453578704,2018_Nov_27_1532,59.9865130437,spanish_cond1,001,1055,
images/remotecontrol01c.jpg,remote control,z,sounds/greatgatsby_english.wav,,,,,,,,,0,1,1,0,0,99,99,85,791.5768866,9.30123496801e-06,792.400952766,0.824076108402,,,,,z,1,0.800459351973,2018_Nov_27_1532,59.9865130437,spanish_cond1,001,1055,
images/mattress.jpg,cat,x,sounds/greatgatsby_english.wav,,,,,,,,,0,1,1,0,0,100,100,147,793.505186392,9.30123496801e-06,794.268154776,0.762978647952,,,,,x,1,0.750456641661,2018_Nov_27_1532,59.9865130437,spanish_cond1,001,1055,
images/fireextinguisher02.jpg,fire extinguisher,z,sounds/greatgatsby_english.wav,,,,,,,,,0,1,1,0,0,101,101,175,795.37801147,9.62195917964e-06,796.568804162,1.19080263423,,,,,z,1,1.16722564853,2018_Nov_27_1532,59.9865130437,spanish_cond1,001,1055,
images/tulip02.jpg,sport shorts,x,sounds/greatgatsby_english.wav,,,,,,,,,0,1,1,0,0,102,102,225,797.663965571,9.30123496801e-06,799.736368503,2.07241255324,,,,,x,1,2.05081191624,2018_Nov_27_1532,59.9865130437,spanish_cond1,001,1055,
images/corkscrew02a.jpg,masquerade mask,x,sounds/greatgatsby_english.wav,,,,,,,,,0,1,1,0,0,103,103,201,800.840172669,8.98051075637e-06,802.50382681,1.66366344213,,,,,x,1,1.65070524078,2018_Nov_27_1532,59.9865130437,spanish_cond1,001,1055,
images/pingpongpaddle01c (1).jpg,ping pong paddle,z,sounds/greatgatsby_english.wav,,,,,,,,,0,1,1,0,0,104,104,10,803.61539557,9.30123496801e-06,804.554406837,0.939021531027,,,,,z,1,0.917165270774,2018_Nov_27_1532,59.9865130437,spanish_cond1,001,1055,
images/dolphin01.jpg,dolphin,z,sounds/greatgatsby_english.wav,,,,,,,,,0,1,1,0,0,105,105,99,805.653892672,9.62195917964e-06,806.521631267,0.86774853745,,,,,z,1,0.850407216931,2018_Nov_27_1532,59.9865130437,spanish_cond1,001,1055,
images/lamp04b.jpg,parking meter,x,sounds/greatgatsby_english.wav,,,,,,,,,0,1,1,0,0,106,106,209,807.642324201,9.30123496801e-06,808.905646513,1.2633322546,,,,,x,1,1.25059439603,2018_Nov_27_1532,59.9865130437,spanish_cond1,001,1055,
images/diaper01a.jpg,camera,x,sounds/greatgatsby_english.wav,,,,,,,,,0,1,1,0,0,107,107,143,810.026516171,9.94268339127e-06,810.706152371,0.679646143224,,,,,z,0,0.667085649096,2018_Nov_27_1532,59.9865130437,spanish_cond1,001,1055,
images/orange.jpg,bat,x,sounds/greatgatsby_english.wav,,,,,,,,,0,1,1,0,0,108,108,128,811.830796079,9.30123496801e-06,812.806764937,0.975978800911,,,,,x,1,0.96719075297,2018_Nov_27_1532,59.9865130437,spanish_cond1,001,1055,
images/triangleruler02.jpg,bottle of red wine,x,sounds/greatgatsby_english.wav,,,,,,,,,0,1,1,0,0,109,109,134,813.917966779,9.30123496801e-06,814.607270153,0.689313637326,,,,,x,1,0.667102647945,2018_Nov_27_1532,59.9865130437,spanish_cond1,001,1055,
images/nailpolish02b.jpg,nail polish,z,sounds/greatgatsby_english.wav,,,,,,,,,0,1,1,0,0,110,110,94,815.716752233,9.62195917964e-06,816.70786123,0.99111926055,,,,,z,1,0.96717471641,2018_Nov_27_1532,59.9865130437,spanish_cond1,001,1055,
images/ladybug03.jpg,giraffe,x,sounds/greatgatsby_english.wav,,,,,,,,,0,1,1,0,0,111,111,178,817.810608264,9.62195917964e-06,818.725090935,0.914492613752,,,,,x,1,0.900480167358,2018_Nov_27_1532,59.9865130437,spanish_cond1,001,1055,
images/gluestick.jpg,squirrel,x,sounds/greatgatsby_english.wav,,,,,,,,,0,1,1,0,0,112,112,226,819.833140627,9.94268339127e-06,820.492286564,0.659156520618,,,,,x,1,0.650433901814,2018_Nov_27_1532,59.9865130437,spanish_cond1,001,1055,
images/straw.jpg,straw,z,sounds/greatgatsby_english.wav,,,,,,,,,0,1,1,0,0,113,113,109,821.583821781,9.94268339127e-06,822.642880029,1.05906883255,,,,,z,1,1.05053095531,2018_Nov_27_1532,59.9865130437,spanish_cond1,001,1055,
images/calculator02b.jpg,dice,x,sounds/greatgatsby_english.wav,,,,,,,,,0,1,1,0,0,114,114,165,823.744649795,9.62184276432e-06,824.993546237,1.24890670588,,,,,x,1,1.23391666939,2018_Nov_27_1532,59.9865130437,spanish_cond1,001,1055,
images/ruler02b.jpg,watermelon,x,sounds/greatgatsby_english.wav,,,,,,,,,0,1,1,0,0,115,115,238,826.095943354,9.30123496801e-06,827.994409005,1.89847559435,,,,,z,0,1.88411355054,2018_Nov_27_1532,59.9865130437,spanish_cond1,001,1055,
images/umbrella01.jpg,umbrella,z,sounds/greatgatsby_english.wav,,,,,,,,,0,1,1,0,0,116,116,53,829.106250387,9.94268339127e-06,830.795215068,1.68897494476,,,,,z,1,1.66739387228,2018_Nov_27_1532,59.9865130437,spanish_cond1,001,1055,
images/boxingglove02a.jpg,bracelet,x,sounds/greatgatsby_english.wav,,,,,,,,,0,1,1,0,0,117,117,135,831.905284728,9.62195917964e-06,833.595996435,1.69072197028,,,,,x,1,1.66737911862,2018_Nov_27_1532,59.9865130437,spanish_cond1,001,1055,
images/lion.jpg,lion,z,sounds/greatgatsby_english.wav,,,,,,,,,0,1,1,0,0,118,118,44,834.710160234,9.94268339127e-06,836.596857599,1.88670826983,,,,,z,1,1.86744320078,2018_Nov_27_1532,59.9865130437,spanish_cond1,001,1055,
images/sunglasses03a.jpg,sun glasses,z,sounds/greatgatsby_english.wav,,,,,,,,,0,1,1,0,0,119,119,17,837.706158465,9.30123496801e-06,839.314280803,1.60813260067,,,,,z,1,1.58401806874,2018_Nov_27_1532,59.9865130437,spanish_cond1,001,1055,
images/hanger02a.jpg,hanger,z,sounds/greatgatsby_english.wav,,,,,,,,,0,1,1,0,0,120,120,88,840.407924189,9.30123496801e-06,841.014767128,0.606852560537,,,,,z,1,0.583731655381,2018_Nov_27_1532,59.9865130437,spanish_cond1,001,1055,
images/floorlamp.jpg,floor lamp,z,sounds/greatgatsby_english.wav,,,,,,,,,0,1,1,0,0,121,121,26,842.107460508,8.98051075637e-06,842.965338527,0.857887641876,,,,,z,1,0.833825068548,2018_Nov_27_1532,59.9865130437,spanish_cond1,001,1055,
images/marker01a.jpg,marker,z,sounds/greatgatsby_english.wav,,,,,,,,,0,1,1,0,0,122,122,95,844.063618732,9.30123496801e-06,845.232625724,1.16901757638,,,,,z,1,1.15055433661,2018_Nov_27_1532,59.9865130437,spanish_cond1,001,1055,
images/gamecontroller01.jpg,game controller,z,sounds/greatgatsby_english.wav,,,,,,,,,0,1,1,0,0,123,123,112,846.352812544,9.62195917964e-06,846.999797618,0.646995016839,,,,,z,1,0.633751043584,2018_Nov_27_1532,59.9865130437,spanish_cond1,001,1055,
images/sock03.jpg,sock,z,sounds/greatgatsby_english.wav,,,,,,,,,0,1,1,0,0,124,124,90,848.106191693,9.62195917964e-06,849.11707027,1.01088884054,,,,,z,1,1.0005231133,2018_Nov_27_1532,59.9865130437,spanish_cond1,001,1055,
images/panda.jpg,panda,z,sounds/greatgatsby_english.wav,,,,,,,,,0,1,1,0,0,125,125,83,850.226053612,9.30123496801e-06,850.950921318,0.72487764887,,,,,z,1,0.700434687664,2018_Nov_27_1532,59.9865130437,spanish_cond1,001,1055,
images/chessknight02b (1).jpg,cockroach,x,sounds/greatgatsby_english.wav,,,,,,,,,0,1,1,0,0,126,126,155,852.058650919,9.62195917964e-06,852.884806652,0.826165675186,,,,,x,1,0.817138361395,2018_Nov_27_1532,59.9865130437,spanish_cond1,001,1055,
images/raisin.jpg,ruler,x,sounds/greatgatsby_english.wav,,,,,,,,,0,1,1,0,0,127,127,218,853.98996174,9.30123496801e-06,855.11877528,1.12882348243,,,,,x,1,1.11722197616,2018_Nov_27_1532,59.9865130437,spanish_cond1,001,1055,
images/medal01.jpg,medal,z,sounds/greatgatsby_english.wav,,,,,,,,,0,1,1,0,0,128,128,115,856.220525801,9.62195917964e-06,857.002654055,0.782138837734,,,,,z,1,0.767125708633,2018_Nov_27_1532,59.9865130437,spanish_cond1,001,1055,
images/lantern03.jpg,lantern,z,sounds/greatgatsby_english.wav,,,,,,,,,0,1,1,0,0,129,129,5,858.109284509,9.94268339127e-06,859.903466821,1.79419225489,,,,,z,1,1.78398561059,2018_Nov_27_1532,59.9865130437,spanish_cond1,001,1055,
images/grasshopper.jpg,cauliflower,x,sounds/greatgatsby_english.wav,,,,,,,,,0,1,1,0,0,130,130,148,860.998192036,9.30123496801e-06,861.887362883,0.88918046956,,,,,x,1,0.867142996052,2018_Nov_27_1532,59.9865130437,spanish_cond1,001,1055,
images/aquarium.jpg,computer mouse,x,sounds/greatgatsby_english.wav,,,,,,,,,0,1,1,0,0,131,131,159,863.022975293,8.98051075637e-06,863.787925479,0.764959486783,,,,,z,0,0.750468508806,2018_Nov_27_1532,59.9865130437,spanish_cond1,001,1055,
images/axe01.jpg,axe,z,sounds/greatgatsby_english.wav,,,,,,,,,0,1,1,0,0,132,132,104,864.891365294,9.30123496801e-06,866.121897282,1.23054193065,,,,,z,1,1.21724118805,2018_Nov_27_1532,59.9865130437,spanish_cond1,001,1055,
images/lighter02b.jpg,stapler,x,sounds/greatgatsby_english.wav,,,,,,,,,0,1,1,0,0,133,133,227,867.223823564,9.30123496801e-06,868.339204541,1.11539091903,,,,,x,1,1.10055515449,2018_Nov_27_1532,59.9865130437,spanish_cond1,001,1055,
images/bed.jpg,bed,z,sounds/greatgatsby_english.wav,,,,,,,,,0,1,1,0,0,134,134,103,869.458916036,9.62195917964e-06,870.239733459,0.780827365932,,,,,z,1,0.767114803661,2018_Nov_27_1532,59.9865130437,spanish_cond1,001,1055,
images/handbag02a.jpg,candle,x,sounds/greatgatsby_english.wav,,,,,,,,,0,1,1,0,0,135,135,144,871.355912737,9.30123496801e-06,872.473701125,1.11779768951,,,,,x,1,1.10052917525,2018_Nov_27_1532,59.9865130437,spanish_cond1,001,1055,
images/daisy.jpg,daisy,z,sounds/greatgatsby_english.wav,,,,,,,,,0,1,1,0,0,136,136,6,873.576620393,9.30123496801e-06,874.507614331,0.931003880454,,,,,z,1,0.917155007366,2018_Nov_27_1532,59.9865130437,spanish_cond1,001,1055,
images/parkbench03.jpg,park bench,z,sounds/greatgatsby_english.wav,,,,,,,,,0,1,1,0,0,137,137,71,875.613130242,8.98051075637e-06,876.641549314,1.02842869388,,,,,z,1,1.01718480338,2018_Nov_27_1532,59.9865130437,spanish_cond1,001,1055,
images/apple06.jpg,apple,z,sounds/greatgatsby_english.wav,,,,,,,,,0,1,1,0,0,138,138,13,877.76978714,9.30123496801e-06,879.342318845,1.57254132698,,,,,z,1,1.5506603705,2018_Nov_27_1532,59.9865130437,spanish_cond1,001,1055,
images/beermug01b.jpg,beer mug,z,sounds/greatgatsby_english.wav,,,,,,,,,0,1,1,0,0,139,139,111,880.45899237,9.62195917964e-06,882.093114821,1.6341320728,,,,,z,1,1.61737063539,2018_Nov_27_1532,59.9865130437,spanish_cond1,001,1055,
images/spoon02b.jpg,spoon,z,sounds/greatgatsby_english.wav,,,,,,,,,0,1,1,0,0,140,140,38,883.186085313,9.30123496801e-06,883.960316511,0.774241140811,,,,,z,1,0.750466905185,2018_Nov_27_1532,59.9865130437,spanish_cond1,001,1055,
images/safe.jpg,safe,z,sounds/greatgatsby_english.wav,,,,,,,,,0,1,1,0,0,141,141,78,885.072015808,9.30111855268e-06,885.660791611,0.588785424363,,,,,z,1,0.567065475043,2018_Nov_27_1532,59.9865130437,spanish_cond1,001,1055,
images/bowtie.jpg,bowtie,z,sounds/greatgatsby_english.wav,,,,,,,,,0,1,1,0,0,142,142,89,886.771410042,9.30123496801e-06,887.511301783,0.73990136222,,,,,z,1,0.71709413256,2018_Nov_27_1532,59.9865130437,spanish_cond1,001,1055,
images/gps.jpg,gps,z,sounds/greatgatsby_english.wav,,,,,,,,,0,1,1,0,0,143,143,21,888.629916376,9.62195917964e-06,889.311815338,0.681908905157,,,,,z,1,0.667088535731,2018_Nov_27_1532,59.9865130437,spanish_cond1,001,1055,
images/mailbox01.jpg,mail box,z,sounds/greatgatsby_english.wav,,,,,,,,,0,1,1,0,0,144,144,73,890.43124908,8.98039434105e-06,891.129003413,0.697763634147,,,,,z,1,0.683750867262,2018_Nov_27_1532,59.9865130437,spanish_cond1,001,1055,
images/elbow.jpg,elbow,z,sounds/greatgatsby_english.wav,,,,,,,,,0,1,1,0,0,145,145,105,892.241393246,9.30123496801e-06,892.929364621,0.687981959432,,,,,z,1,0.666931377142,2018_Nov_27_1532,59.9865130437,spanish_cond1,001,1055,
images/chameleon.jpg,50 dollar bill,x,sounds/greatgatsby_english.wav,,,,,,,,,0,1,1,0,0,146,146,120,894.040182227,9.30123496801e-06,896.097083876,2.05691191205,,,,,x,1,2.03414990543,2018_Nov_27_1532,59.9865130437,spanish_cond1,001,1055,
images/wallet01.jpg,lamp,x,sounds/greatgatsby_english.wav,,,,,,,,,0,1,1,0,0,147,147,193,897.201324558,9.30111855268e-06,897.997636528,0.796322233975,,,,,x,1,0.783797982731,2018_Nov_27_1532,59.9865130437,spanish_cond1,001,1055,
images/bracelet02a.jpg,chess knight,x,sounds/greatgatsby_english.wav,,,,,,,,,0,1,1,0,0,148,148,152,899.107035217,9.30123496801e-06,899.881335694,0.774310098146,,,,,x,1,0.750291785691,2018_Nov_27_1532,59.9865130437,spanish_cond1,001,1055,
images/icecube02 (2).jpg,aloe,x,sounds/greatgatsby_english.wav,,,,,,,,,0,1,1,0,0,149,149,122,900.994022203,8.98051075637e-06,902.265501042,1.27148846118,,,,,z,0,1.25058733998,2018_Nov_27_1532,59.9865130437,spanish_cond1,001,1055,
images/blackolive.jpg,tank,x,sounds/greatgatsby_english.wav,,,,,,,,,0,1,1,0,0,150,150,229,903.380447748,9.94268339127e-06,904.999633083,1.61919559853,,,,,x,1,1.60069066356,2018_Nov_27_1532,59.9865130437,spanish_cond1,001,1055,
images/tissuebox03.jpg,tissue box,z,sounds/greatgatsby_english.wav,,,,,,,,,0,1,1,0,0,151,151,58,906.124980476,9.62195917964e-06,907.000192439,0.875221585506,,,,,z,1,0.850482268143,2018_Nov_27_1532,59.9865130437,spanish_cond1,001,1055,
images/eraser.jpg,eraser,z,sounds/greatgatsby_english.wav,,,,,,,,,0,1,1,0,0,152,152,110,908.109649822,9.30123496801e-06,908.850714157,0.741074919351,,,,,z,1,0.717115621432,2018_Nov_27_1532,59.9865130437,spanish_cond1,001,1055,
images/blueberry02.jpg,blueberry,z,sounds/greatgatsby_english.wav,,,,,,,,,0,1,1,0,0,153,153,46,909.963400987,9.30123496801e-06,910.601044431,0.637653706595,,,,,z,1,0.616910706158,2018_Nov_27_1532,59.9865130437,spanish_cond1,001,1055,
images/ant.jpg,ant,z,sounds/greatgatsby_english.wav,,,,,,,,,0,1,1,0,0,154,154,98,911.696085566,9.94268339127e-06,912.335043689,0.638968385872,,,,,z,1,0.617085504811,2018_Nov_27_1532,59.9865130437,spanish_cond1,001,1055,
images/backpack01b.jpg,swallow,x,sounds/greatgatsby_english.wav,,,,,,,,,0,1,1,0,0,155,155,228,913.465789637,9.62195917964e-06,915.002465785,1.53668577049,,,,,x,1,1.51733763202,2018_Nov_27_1532,59.9865130437,spanish_cond1,001,1055,
images/belt02a.jpg,snowman,x,sounds/greatgatsby_english.wav,,,,,,,,,0,1,1,0,0,156,156,224,916.106109586,9.62195917964e-06,917.086392606,0.980292962748,,,,,z,0,0.967183055356,2018_Nov_27_1532,59.9865130437,spanish_cond1,001,1055,
images/flashlight05.jpg,flash light,z,sounds/greatgatsby_english.wav,,,,,,,,,0,1,1,0,0,157,157,8,918.189689054,1.02634076029e-05,919.120289454,0.93061034265,,,,,z,1,0.917148272041,2018_Nov_27_1532,59.9865130437,spanish_cond1,001,1055,
images/cloud.jpg,ceiling fan,x,sounds/greatgatsby_english.wav,,,,,,,,,0,1,1,0,0,158,158,149,920.226221996,9.62195917964e-06,921.187556188,0.96134413511,,,,,x,1,0.950510460418,2018_Nov_27_1532,59.9865130437,spanish_cond1,001,1055,
images/microphone01.jpg,diaper,x,sounds/greatgatsby_english.wav,,,,,,,,,0,1,1,0,0,159,159,164,922.28856614,9.62195917964e-06,923.604900267,1.31634374859,,,,,x,1,1.30059999274,2018_Nov_27_1532,59.9865130437,spanish_cond1,001,1055,
images/lipstick04.jpg,lipstick,z,sounds/greatgatsby_english.wav,,,,,,,,,0,1,1,0,0,160,160,56,924.703595819,9.30123496801e-06,925.538788167,0.835202290327,,,,,z,1,0.817141889362,2018_Nov_27_1532,59.9865130437,spanish_cond1,001,1055,
images/skateboard.jpg,key,x,sounds/greatgatsby_english.wav,,,,,,,,,0,1,1,0,0,161,161,189,926.630249295,9.62195917964e-06,927.689403763,1.05916408985,,,,,x,1,1.05053801136,2018_Nov_27_1532,59.9865130437,spanish_cond1,001,1055,
images/leek.jpg,donut,x,sounds/greatgatsby_english.wav,,,,,,,,,0,1,1,0,0,162,162,169,928.790602626,9.30111855268e-06,929.623283003,0.832689678296,,,,,x,1,0.817138040671,2018_Nov_27_1532,59.9865130437,spanish_cond1,001,1055,
images/computerkeyboard01a.jpg,computer keyboard,z,sounds/greatgatsby_english.wav,,,,,,,,,0,1,1,0,0,163,163,61,930.740284316,9.30123496801e-06,931.490485655,0.750210961327,,,,,z,1,0.733788537211,2018_Nov_27_1532,59.9865130437,spanish_cond1,001,1055,
images/crocodile.jpg,triangle ruler,x,sounds/greatgatsby_english.wav,,,,,,,,,0,1,1,0,0,164,164,235,932.588514406,8.98039434105e-06,933.691104924,1.10260013957,,,,,x,1,1.08388031449,2018_Nov_27_1532,59.9865130437,spanish_cond1,001,1055,
images/flower01.jpg,bus,x,sounds/greatgatsby_english.wav,,,,,,,,,0,1,1,0,0,165,165,140,934.805965673,9.94268339127e-06,936.158496294,1.35254056368,,,,,x,1,1.33396731294,2018_Nov_27_1532,59.9865130437,spanish_cond1,001,1055,
images/butterfly.jpg,butterfly,z,sounds/greatgatsby_english.wav,,,,,,,,,0,1,1,0,0,166,166,91,937.266386903,9.94268339127e-06,938.559152704,1.29277638497,,,,,z,1,1.28393060516,2018_Nov_27_1532,59.9865130437,spanish_cond1,001,1055,
images/aloe02.jpg,broad sword,x,sounds/greatgatsby_english.wav,,,,,,,,,0,1,1,0,0,167,167,137,939.680132052,8.98051075637e-06,941.743396055,2.06327586994,,,,,x,1,2.05082378327,2018_Nov_27_1532,59.9865130437,spanish_cond1,001,1055,
images/ear.jpg,bullet,x,sounds/greatgatsby_english.wav,,,,,,,,,0,1,1,0,0,168,168,139,942.847046591,9.30111855268e-06,943.52723028,0.680193632026,,,,,x,1,0.667089177179,2018_Nov_27_1532,59.9865130437,spanish_cond1,001,1055,
images/treadmill.jpg,lily,x,sounds/greatgatsby_english.wav,,,,,,,,,0,1,1,0,0,169,169,199,944.633644561,9.62195917964e-06,945.194391622,0.560757003725,,,,,x,1,0.550405709539,2018_Nov_27_1532,59.9865130437,spanish_cond1,001,1055,
images/ashtray02b.jpg,ashtray,z,sounds/greatgatsby_english.wav,,,,,,,,,0,1,1,0,0,170,170,43,946.309368476,1.02634076029e-05,947.344978031,1.03562013945,,,,,z,1,1.01718608628,2018_Nov_27_1532,59.9865130437,spanish_cond1,001,1055,
images/key03b.jpg,cigar,x,sounds/greatgatsby_english.wav,,,,,,,,,0,1,1,0,0,171,171,153,948.445444343,9.62195917964e-06,949.362228585,0.916794184246,,,,,x,1,0.900496845483,2018_Nov_27_1532,59.9865130437,spanish_cond1,001,1055,
images/desktopcomputer.jpg,desktop computer,z,sounds/greatgatsby_english.wav,,,,,,,,,0,1,1,0,0,172,172,16,950.499373451,9.30123496801e-06,951.296109429,0.79674559983,,,,,z,1,0.7837938132,2018_Nov_27_1532,59.9865130437,spanish_cond1,001,1055,
images/cookingpot.jpg,grasshopper,x,sounds/greatgatsby_english.wav,,,,,,,,,0,1,1,0,0,173,173,183,952.410626033,9.30123496801e-06,953.246798537,0.836182446335,,,,,x,1,0.817272427259,2018_Nov_27_1532,59.9865130437,spanish_cond1,001,1055,
images/lock02a.jpg,lock,z,sounds/greatgatsby_english.wav,,,,,,,,,0,1,1,0,0,174,174,65,954.358103655,9.30123496801e-06,955.947432399,1.58933868655,,,,,z,1,1.56735060562,2018_Nov_27_1532,59.9865130437,spanish_cond1,001,1055,
images/lip.jpg,boxing glove,x,sounds/greatgatsby_english.wav,,,,,,,,,0,1,1,0,0,175,175,136,957.050835009,9.30111855268e-06,957.764607644,0.713782898616,,,,,z,0,0.700381766888,2018_Nov_27_1532,59.9865130437,spanish_cond1,001,1055,
images/swallow.jpg,mattress,x,sounds/greatgatsby_english.wav,,,,,,,,,0,1,1,0,0,176,176,202,958.866641692,9.30123496801e-06,960.432030382,1.56539831194,,,,,x,1,1.5506667851,2018_Nov_27_1532,59.9865130437,spanish_cond1,001,1055,
images/beachumbrella01.jpg,beach umbrella,z,sounds/greatgatsby_english.wav,,,,,,,,,0,1,1,0,0,177,177,92,961.538740698,8.98051075637e-06,962.315902101,0.777171345544,,,,,z,1,0.767117690295,2018_Nov_27_1532,59.9865130437,spanish_cond1,001,1055,
images/volleyball.jpg,volley ball,z,sounds/greatgatsby_english.wav,,,,,,,,,0,1,1,0,0,178,178,2,963.449380362,9.30123496801e-06,964.199770613,0.750400193036,,,,,z,1,0.733775387052,2018_Nov_27_1532,59.9865130437,spanish_cond1,001,1055,
images/apricot.jpg,apricot,z,sounds/greatgatsby_english.wav,,,,,,,,,0,1,1,0,0,179,179,32,965.317644957,9.30123496801e-06,966.250350319,0.932715304778,,,,,z,1,0.917160780635,2018_Nov_27_1532,59.9865130437,spanish_cond1,001,1055,
images/cat.jpg,black olive,x,sounds/greatgatsby_english.wav,,,,,,,,,0,1,1,0,0,180,180,133,967.381408339,8.65978654474e-06,968.384307754,1.00290935708,,,,,x,1,0.983861102606,2018_Nov_27_1532,59.9865130437,spanish_cond1,001,1055,
images/ceilingfan02.jpg,paper clip,x,sounds/greatgatsby_english.wav,,,,,,,,,0,1,1,0,0,181,181,208,969.483942729,9.94268339127e-06,970.45155364,0.96762085415,,,,,x,1,0.950502121472,2018_Nov_27_1532,59.9865130437,spanish_cond1,001,1055,
images/dreamcatcher.jpg,dream catcher,z,sounds/greatgatsby_english.wav,,,,,,,,,0,1,1,0,0,182,182,48,971.550702386,9.30123496801e-06,972.50216542,0.951473297086,,,,,z,1,0.93386801437,2018_Nov_27_1532,59.9865130437,spanish_cond1,001,1055,
images/dresser02.jpg,dresser,z,sounds/greatgatsby_english.wav,,,,,,,,,0,1,1,0,0,183,183,87,973.624326022,9.62195917964e-06,974.369328943,0.745013504406,,,,,z,1,0.733770255465,2018_Nov_27_1532,59.9865130437,spanish_cond1,001,1055,
images/magnifyingglass01b.jpg,magnifying glass,z,sounds/greatgatsby_english.wav,,,,,,,,,0,1,1,0,0,184,184,64,975.47669291,9.30111855268e-06,976.336584163,0.859901516116,,,,,z,1,0.850474891369,2018_Nov_27_1532,59.9865130437,spanish_cond1,001,1055,
images/bicycle.jpg,hand bag,x,sounds/greatgatsby_english.wav,,,,,,,,,0,1,1,0,0,185,185,186,977.447480348,8.98039434105e-06,978.603859813,1.15638908721,,,,,x,1,1.13388911856,2018_Nov_27_1532,59.9865130437,spanish_cond1,001,1055,
images/camera01a.jpg,bull,x,sounds/greatgatsby_english.wav,,,,,,,,,0,1,1,0,0,186,186,138,979.716848131,9.30111855268e-06,980.704463078,0.987624568166,,,,,x,1,0.967175678466,2018_Nov_27_1532,59.9865130437,spanish_cond1,001,1055,
images/mirror02.jpg,8 ball,x,sounds/greatgatsby_english.wav,,,,,,,,,0,1,1,0,0,187,187,121,981.806814009,9.62195917964e-06,983.238513075,1.43170900922,,,,,x,1,1.4173039872,2018_Nov_27_1532,59.9865130437,spanish_cond1,001,1055,
images/candy.jpg,candy,z,sounds/greatgatsby_english.wav,,,,,,,,,0,1,1,0,0,188,188,31,984.339543875,9.30111855268e-06,985.6892094,1.34967546759,,,,,z,1,1.33394261671,2018_Nov_27_1532,59.9865130437,spanish_cond1,001,1055,
images/50dollarbill.jpg,cherry,x,sounds/greatgatsby_english.wav,,,,,,,,,0,1,1,0,0,189,189,151,986.809776607,8.98051075637e-06,987.623090564,0.813323899521,,,,,x,1,0.800462238491,2018_Nov_27_1532,59.9865130437,spanish_cond1,001,1055,
images/graduationcap.jpg,graduation cap,z,sounds/greatgatsby_english.wav,,,,,,,,,0,1,1,0,0,190,190,35,988.725786602,3.23938438669e-05,990.2571803,1.53141967708,,,,,z,1,1.517336349,2018_Nov_27_1532,59.9865130437,spanish_cond1,001,1055,
images/glasses01b.jpg,calculator,x,sounds/greatgatsby_english.wav,,,,,,,,,0,1,1,0,0,191,191,142,991.349898697,9.94268339127e-06,992.441128578,1.09124014433,,,,,x,1,1.06719970133,2018_Nov_27_1532,59.9865130437,spanish_cond1,001,1055,
images/candle08a.jpg,screw driver,x,sounds/greatgatsby_english.wav,,,,,,,,,0,1,1,0,0,192,192,221,993.556351113,9.30123496801e-06,994.508380879,0.952039709198,,,,,z,0,0.933834016789,2018_Nov_27_1532,59.9865130437,spanish_cond1,001,1055,
images/nametag01a.jpg,name tag,z,sounds/greatgatsby_english.wav,,,,,,,,,0,1,1,0,0,193,193,108,995.628306303,1.02634076029e-05,996.892403502,1.26410778379,,,,,z,1,1.25060016918,2018_Nov_27_1532,59.9865130437,spanish_cond1,001,1055,
images/lightswitch02a.jpg,fork,x,sounds/greatgatsby_english.wav,,,,,,,,,0,1,1,0,0,194,194,177,998.004316728,9.30111855268e-06,998.942995076,0.938688290771,,,,,x,1,0.917183552403,2018_Nov_27_1532,59.9865130437,spanish_cond1,001,1055,
images/basketball01.jpg,basket ball,z,sounds/greatgatsby_english.wav,,,,,,,,,0,1,1,0,0,195,195,33,1000.08318753,8.98051075637e-06,1001.31031752,1.22713960905,,,,,z,1,1.21724888554,2018_Nov_27_1532,59.9865130437,spanish_cond1,001,1055,
images/egg01b (1).jpg,egg,z,sounds/greatgatsby_english.wav,,,,,,,,,0,1,1,0,0,196,196,19,1002.42338666,1.05841318145e-05,1003.79434589,1.37097012671,,,,,x,0,1.35059404315,2018_Nov_27_1532,59.9865130437,spanish_cond1,001,1055,
images/stapler03a.jpg,candy cane,x,sounds/greatgatsby_english.wav,,,,,,,,,0,1,1,0,0,197,197,145,1004.90546017,9.30123496801e-06,1006.49512087,1.58967096463,,,,,x,1,1.56735028489,2018_Nov_27_1532,59.9865130437,spanish_cond1,001,1055,
images/headphones02b.jpg,headphones,z,sounds/greatgatsby_english.wav,,,,,,,,,0,1,1,0,0,198,198,101,1007.60523543,9.30123496801e-06,1008.61239063,1.00716514571,,,,,z,1,0.983849235578,2018_Nov_27_1532,59.9865130437,spanish_cond1,001,1055,
images/broadsword.jpg,teapot,x,sounds/greatgatsby_english.wav,,,,,,,,,0,1,1,0,0,199,199,231,1009.70592112,9.30123496801e-06,1012.5301685,2.82425700105,,,,,x,1,2.80103410315,2018_Nov_27_1532,59.9865130437,spanish_cond1,001,1055,
images/lightbulb03b.jpg,treadmill,x,sounds/greatgatsby_english.wav,,,,,,,,,0,1,1,0,0,200,200,234,1013.6326195,9.62195917964e-06,1014.48073381,0.848124569631,,,,,x,1,0.833812239114,2018_Nov_27_1532,59.9865130437,spanish_cond1,001,1055,
images/showerhead01.jpg,skateboard,x,sounds/greatgatsby_english.wav,,,,,,,,,0,1,1,0,0,201,201,223,1015.58889704,8.98051075637e-06,1016.99794603,1.40905893792,,,,,x,1,1.40047134738,2018_Nov_27_1532,59.9865130437,spanish_cond1,001,1055,
images/lemon02.jpg,lemon,z,sounds/greatgatsby_english.wav,,,,,,,,,0,1,1,0,0,202,202,14,1018.11031277,9.62195917964e-06,1018.88198999,0.77168779599,,,,,z,1,0.750468188082,2018_Nov_27_1532,59.9865130437,spanish_cond1,001,1055,
images/bowl02b (1).jpg,bowl,z,sounds/greatgatsby_english.wav,,,,,,,,,0,1,1,0,0,203,203,24,1020.00021361,9.30123496801e-06,1021.18263392,1.18243025453,,,,,z,1,1.16722885577,2018_Nov_27_1532,59.9865130437,spanish_cond1,001,1055,
images/saltshaker03c.jpg,salt shaker,z,sounds/greatgatsby_english.wav,,,,,,,,,0,1,1,0,0,204,204,63,1022.29505807,9.30123496801e-06,1024.40020867,2.10516021994,,,,,z,1,2.08416127542,2018_Nov_27_1532,59.9865130437,spanish_cond1,001,1055,
images/dice05a.jpg,band aid,x,sounds/greatgatsby_english.wav,,,,,,,,,0,1,1,0,0,205,205,126,1025.51281788,8.98051075637e-06,1026.28407365,0.771265713032,,,,,x,1,0.750440284493,2018_Nov_27_1532,59.9865130437,spanish_cond1,001,1055,
images/bandaid01.jpg,door handle,x,sounds/greatgatsby_english.wav,,,,,,,,,0,1,1,0,0,206,206,170,1027.39244664,9.62195917964e-06,1028.35133878,0.958901763428,,,,,x,1,0.950508856913,2018_Nov_27_1532,59.9865130437,spanish_cond1,001,1055,
images/8ball.jpg,nail clipper,x,sounds/greatgatsby_english.wav,,,,,,,,,0,1,1,0,0,207,207,206,1029.46788786,9.62195917964e-06,1030.18532422,0.717446616618,,,,,x,1,0.700538283912,2018_Nov_27_1532,59.9865130437,spanish_cond1,001,1055,
images/tape01a.jpg,tie,x,sounds/greatgatsby_english.wav,,,,,,,,,0,1,1,0,0,208,208,232,1031.31330385,9.62195917964e-06,1032.15243671,0.839143441175,,,,,x,1,0.81714766263,2018_Nov_27_1532,59.9865130437,spanish_cond1,001,1055,
images/squirrel.jpg,binder,x,sounds/greatgatsby_english.wav,,,,,,,,,0,1,1,0,0,209,209,132,1033.25799015,8.98051075637e-06,1034.26951949,1.01153896365,,,,,x,1,1.00035954022,2018_Nov_27_1532,59.9865130437,spanish_cond1,001,1055,
images/screw03c.jpg,screw,z,sounds/greatgatsby_english.wav,,,,,,,,,0,1,1,0,0,210,210,84,1035.36480438,9.30123496801e-06,1036.57034175,1.20554699027,,,,,z,1,1.18391075195,2018_Nov_27_1532,59.9865130437,spanish_cond1,001,1055,
images/scooter.jpg,pen,x,sounds/greatgatsby_english.wav,,,,,,,,,0,1,1,0,0,211,211,212,1037.66225222,9.94268339127e-06,1039.20441577,1.54217413103,,,,,x,1,1.53399932198,2018_Nov_27_1532,59.9865130437,spanish_cond1,001,1055,
images/gorilla.jpg,gorilla,z,sounds/greatgatsby_english.wav,,,,,,,,,0,1,1,0,0,212,212,80,1040.31608845,8.65978654474e-06,1041.08829936,0.772220531246,,,,,z,1,0.750464659999,2018_Nov_27_1532,59.9865130437,spanish_cond1,001,1055,
images/barrel01.jpg,barrel,z,sounds/greatgatsby_english.wav,,,,,,,,,0,1,1,0,0,213,213,9,1042.2185363,8.98051075637e-06,1043.25557825,1.03705156501,,,,,x,0,1.0171928216,2018_Nov_27_1532,59.9865130437,spanish_cond1,001,1055,
images/mitten01.jpg,mitten,z,sounds/greatgatsby_english.wav,,,,,,,,,0,1,1,0,0,214,214,102,1044.37690398,8.98051075637e-06,1045.17277527,0.795881227939,,,,,z,1,0.78378900222,2018_Nov_27_1532,59.9865130437,spanish_cond1,001,1055,
images/flamingo.jpg,flamingo,z,sounds/greatgatsby_english.wav,,,,,,,,,0,1,1,0,0,215,215,52,1046.27100929,9.62195917964e-06,1046.88994445,0.618945748662,,,,,z,1,0.600412268541,2018_Nov_27_1532,59.9865130437,spanish_cond1,001,1055,
images/lily.jpg,kiwi,x,sounds/greatgatsby_english.wav,,,,,,,,,0,1,1,0,0,216,216,190,1047.9895759,8.98039434105e-06,1048.95720124,0.967634966248,,,,,x,1,0.950511422707,2018_Nov_27_1532,59.9865130437,spanish_cond1,001,1055,
images/birthdaycandle.jpg,birthday candle,z,sounds/greatgatsby_english.wav,,,,,,,,,0,1,1,0,0,217,217,55,1050.0538393,3.30354087055e-05,1051.07446941,1.02065223351,,,,,z,1,1.00051766098,2018_Nov_27_1532,59.9865130437,spanish_cond1,001,1055,
images/globe.jpg,cloud,x,sounds/greatgatsby_english.wav,,,,,,,,,0,1,1,0,0,218,218,154,1052.20317999,9.62195917964e-06,1054.37540103,2.17223098711,,,,,x,1,2.15085325856,2018_Nov_27_1532,59.9865130437,spanish_cond1,001,1055,
,,,sounds/greatgatsby_english.wav,,,,,,,,,0,1,1,0,,,,,,,,,,,,,,,,2018_Nov_27_1532,59.9865130437,spanish_cond1,001,1055,
