images,name,corrAns,sounds,trials_3.thisRepN,trials_3.thisTrialN,trials_3.thisN,trials_3.thisIndex,trials_4.thisRepN,trials_4.thisTrialN,trials_4.thisN,trials_4.thisIndex,trials_2.thisRepN,trials_2.thisTrialN,trials_2.thisN,trials_2.thisIndex,trials.thisRepN,trials.thisTrialN,trials.thisN,trials.thisIndex,begin_global,begin_routine,end_global,end_routine,key_resp_2.keys,key_resp_2.corr,key_resp_2.rt,begin_book,key_resp_1.keys,key_resp_1.corr,key_resp_1.rt,date,frameRate,expName,session,participant,
images/volleyball.jpg,volley ball,z,,0,0,0,0,,,,,,,,,,,,,,,,,,,,,,,,2018_Nov_27_1533,59.9871097404,spanish_cond2,001,1056,
images/puma.jpg,puma,z,,,,,,0,0,0,0,,,,,,,,,48.1573492736,1.09045067802e-05,49.9318524115,1.77451436315,x,0,1.75069404172,,,,,2018_Nov_27_1533,59.9871097404,spanish_cond2,001,1056,
images/treadmill.jpg,lily,x,sounds/greatgatsby_spanish.wav,,,,,,,,,0,0,0,0,0,0,0,199,92.1161900955,9.621726349e-06,93.342872345,1.22669283336,,,,81.9315336142,x,1,1.21723859897,2018_Nov_27_1533,59.9871097404,spanish_cond2,001,1056,
images/swallow.jpg,mattress,x,sounds/greatgatsby_spanish.wav,,,,,,,,,0,0,0,0,0,1,1,202,94.4506774925,9.30088572204e-06,95.6934535569,1.24278600677,,,,,x,1,1.23386737774,2018_Nov_27_1533,59.9871097404,spanish_cond2,001,1056,
images/bandaid01.jpg,door handle,x,sounds/greatgatsby_spanish.wav,,,,,,,,,0,0,0,0,0,2,2,170,96.8002509967,9.30088572204e-06,98.0607065242,1.26046546979,,,,,x,1,1.25055613148,2018_Nov_27_1533,59.9871097404,spanish_cond2,001,1056,
images/lamp04b.jpg,parking meter,x,sounds/greatgatsby_spanish.wav,,,,,,,,,0,0,0,0,0,3,3,209,99.2521244605,9.30100213736e-06,100.344622844,1.09250928811,,,,,x,1,1.08386070665,2018_Nov_27_1533,59.9871097404,spanish_cond2,001,1056,
images/sunglasses03a.jpg,sun glasses,z,sounds/greatgatsby_spanish.wav,,,,,,,,,0,0,0,0,0,4,4,17,101.453821527,8.6595537141e-06,102.511841045,1.05802913953,,,,,z,1,1.03384896833,2018_Nov_27_1533,59.9871097404,spanish_cond2,001,1056,
images/gluestick.jpg,squirrel,x,sounds/greatgatsby_spanish.wav,,,,,,,,,0,0,0,0,0,5,5,226,103.621237614,8.98016151041e-06,105.179188497,1.55796018429,,,,,x,1,1.53397372901,2018_Nov_27_1533,59.9871097404,spanish_cond2,001,1056,
images/broom02.jpg,broom,z,sounds/greatgatsby_spanish.wav,,,,,,,,,0,0,0,0,0,6,6,116,106.272996067,9.30088572204e-06,107.896537745,1.62355162075,,,,,z,1,1.60064856347,2018_Nov_27_1533,59.9871097404,spanish_cond2,001,1056,
images/spoon02b.jpg,spoon,z,sounds/greatgatsby_spanish.wav,,,,,,,,,0,0,0,0,0,7,7,38,108.98837031,9.62160993367e-06,110.247130824,1.25877077633,,,,,z,1,1.2505686396,2018_Nov_27_1533,59.9871097404,spanish_cond2,001,1056,
images/tape01a.jpg,tie,x,sounds/greatgatsby_spanish.wav,,,,,,,,,0,0,0,0,0,8,8,232,111.373143983,9.30088572204e-06,112.864458519,1.49132447795,,,,,x,1,1.46728638653,2018_Nov_27_1533,59.9871097404,spanish_cond2,001,1056,
images/floorlamp.jpg,floor lamp,z,sounds/greatgatsby_spanish.wav,,,,,,,,,0,0,0,0,0,9,9,26,113.957330543,9.621726349e-06,115.248420125,1.29109984462,,,,,z,1,1.26725963841,2018_Nov_27_1533,59.9871097404,spanish_cond2,001,1056,
images/bull.jpg,button,x,sounds/greatgatsby_spanish.wav,,,,,,,,,0,0,0,0,0,10,10,141,116.354119093,9.30100213736e-06,117.298938604,0.944829453016,,,,,x,1,0.9338476212,2018_Nov_27_1533,59.9871097404,spanish_cond2,001,1056,
images/pouch01b.jpg,pouch,z,sounds/greatgatsby_spanish.wav,,,,,,,,,0,0,0,0,0,11,11,25,118.410870156,9.62160993367e-06,119.882906752,1.47204653802,,,,,z,1,1.45062168699,2018_Nov_27_1533,59.9871097404,spanish_cond2,001,1056,
images/skateboard.jpg,key,x,sounds/greatgatsby_spanish.wav,,,,,,,,,0,0,0,0,0,12,12,189,120.974086969,9.30088572204e-06,121.866726984,0.892649635905,,,,,x,1,0.88379867922,2018_Nov_27_1533,59.9871097404,spanish_cond2,001,1056,
images/panda.jpg,panda,z,sounds/greatgatsby_spanish.wav,,,,,,,,,0,0,0,0,0,13,13,83,122.975408022,8.98016151041e-06,124.183992587,1.20859418693,,,,,z,1,1.18389252224,2018_Nov_27_1533,59.9871097404,spanish_cond2,001,1056,
images/aloe02.jpg,broad sword,x,sounds/greatgatsby_spanish.wav,,,,,,,,,0,0,0,0,0,14,14,137,125.306494486,9.30088572204e-06,126.434561868,1.12807700399,,,,,x,1,1.11714007333,2018_Nov_27_1533,59.9871097404,spanish_cond2,001,1056,
images/paintbrush03a.jpg,paint brush,z,sounds/greatgatsby_spanish.wav,,,,,,,,,0,0,0,0,0,15,15,0,127.536238986,9.30088572204e-06,130.135499466,2.59927010152,,,,,z,1,2.58423691324,2018_Nov_27_1533,59.9871097404,spanish_cond2,001,1056,
images/honeycomb.jpg,honey comb,z,sounds/greatgatsby_spanish.wav,,,,,,,,,0,0,0,0,0,16,16,59,131.250193395,8.98016151041e-06,132.469419186,1.21923573304,,,,,z,1,1.20055401465,2018_Nov_27_1533,59.9871097404,spanish_cond2,001,1056,
images/birthdaycandle.jpg,birthday candle,z,sounds/greatgatsby_spanish.wav,,,,,,,,,0,0,0,0,0,17,17,55,133.565599454,9.30088572204e-06,134.469917267,0.904327433673,,,,,z,1,0.883796434035,2018_Nov_27_1533,59.9871097404,spanish_cond2,001,1056,
images/shotglass.jpg,shot glass,z,sounds/greatgatsby_spanish.wav,,,,,,,,,0,0,0,0,0,18,18,86,135.58032026,9.30088572204e-06,136.920545689,1.34023505053,,,,,z,1,1.31724732253,2018_Nov_27_1533,59.9871097404,spanish_cond2,001,1056,
images/pineapple01a.jpg,pineapple,z,sounds/greatgatsby_spanish.wav,,,,,,,,,0,0,0,0,0,19,19,51,138.035166172,9.30100213736e-06,139.154448666,1.11929211591,,,,,z,1,1.10052444413,2018_Nov_27_1533,59.9871097404,spanish_cond2,001,1056,
images/showerhead01.jpg,skateboard,x,sounds/greatgatsby_spanish.wav,,,,,,,,,0,0,0,0,0,20,20,223,140.263564924,8.98016151041e-06,141.338327077,1.07477177447,,,,,x,1,1.05050693278,2018_Nov_27_1533,59.9871097404,spanish_cond2,001,1056,
images/aquarium.jpg,computer mouse,x,sounds/greatgatsby_spanish.wav,,,,,,,,,0,0,0,0,0,21,21,159,142.474916997,9.62160993367e-06,143.705596401,1.23068998777,,,,,x,1,1.21722673229,2018_Nov_27_1533,59.9871097404,spanish_cond2,001,1056,
images/lion.jpg,lion,z,sounds/greatgatsby_spanish.wav,,,,,,,,,0,0,0,0,0,22,22,44,144.818104291,9.30100213736e-06,145.822793884,1.00469985581,,,,,z,1,0.983824080322,2018_Nov_27_1533,59.9871097404,spanish_cond2,001,1056,
images/bicycle.jpg,hand bag,x,sounds/greatgatsby_spanish.wav,,,,,,,,,0,0,0,0,0,23,23,186,146.933055439,9.30088572204e-06,148.006706932,1.07366111514,,,,,x,1,1.05051976151,2018_Nov_27_1533,59.9871097404,spanish_cond2,001,1056,
images/candle08a.jpg,screw driver,x,sounds/greatgatsby_spanish.wav,,,,,,,,,0,0,0,0,0,24,24,221,149.123951561,8.98016151041e-06,150.990792401,1.8668507823,,,,,x,1,1.85073451686,2018_Nov_27_1533,59.9871097404,spanish_cond2,001,1056,
images/fork01.jpg,cooking pot,x,sounds/greatgatsby_spanish.wav,,,,,,,,,0,0,0,0,0,25,25,160,152.086727638,8.98016151041e-06,152.957939273,0.871221898356,,,,,x,1,0.850463186274,2018_Nov_27_1533,59.9871097404,spanish_cond2,001,1056,
images/bottleofredwine02.jpg,pipe,x,sounds/greatgatsby_spanish.wav,,,,,,,,,0,0,0,0,0,26,26,213,154.057219959,9.30088572204e-06,156.39214931,2.33493961452,,,,,x,1,2.31750839006,2018_Nov_27_1533,59.9871097404,spanish_cond2,001,1056,
images/cupcake.jpg,scissors,x,sounds/greatgatsby_spanish.wav,,,,,,,,,0,0,0,0,0,27,27,219,157.511651178,9.30100213736e-06,158.692727764,1.18108652823,,,,,x,1,1.16720729659,2018_Nov_27_1533,59.9871097404,spanish_cond2,001,1056,
images/safe.jpg,safe,z,sounds/greatgatsby_spanish.wav,,,,,,,,,0,0,0,0,0,28,28,78,159.806224118,8.98016151041e-06,160.85994404,1.05372954439,,,,,z,1,1.03383998806,2018_Nov_27_1533,59.9871097404,spanish_cond2,001,1056,
images/charcoalbarbecue.jpg,charcoal barbecue,z,sounds/greatgatsby_spanish.wav,,,,,,,,,0,0,0,0,0,29,29,77,161.977623888,8.65943729877e-06,163.410590166,1.43297589966,,,,,z,1,1.41726727155,2018_Nov_27_1533,59.9871097404,spanish_cond2,001,1056,
images/antelope.jpg,antelope,z,sounds/greatgatsby_spanish.wav,,,,,,,,,0,0,0,0,0,30,30,12,164.516852322,9.30088572204e-06,165.427755513,0.910913133179,,,,,z,1,0.900477490504,2018_Nov_27_1533,59.9871097404,spanish_cond2,001,1056,
images/pipe.jpg,icecube,x,sounds/greatgatsby_spanish.wav,,,,,,,,,0,0,0,0,0,31,31,188,166.538516752,9.30088572204e-06,167.661657849,1.12315103936,,,,,x,1,1.10052508558,2018_Nov_27_1533,59.9871097404,spanish_cond2,001,1056,
images/dryingmachine01.jpg,drying machine,z,sounds/greatgatsby_spanish.wav,,,,,,,,,0,0,0,0,0,32,32,18,168.783107139,9.30088572204e-06,170.095631193,1.31253367569,,,,,z,1,1.30048897222,2018_Nov_27_1533,59.9871097404,spanish_cond2,001,1056,
images/mirror02.jpg,8 ball,x,sounds/greatgatsby_spanish.wav,,,,,,,,,0,0,0,0,0,33,33,121,171.200069404,8.98016151041e-06,172.112792049,0.912732587312,,,,,x,1,0.900472038193,2018_Nov_27_1533,59.9871097404,spanish_cond2,001,1056,
images/mitten01.jpg,mitten,z,sounds/greatgatsby_spanish.wav,,,,,,,,,0,0,0,0,0,34,34,102,173.233918052,9.30100213736e-06,174.229980551,0.99607212143,,,,,z,1,0.983826004667,2018_Nov_27_1533,59.9871097404,spanish_cond2,001,1056,
images/scissors04a.jpg,leek,x,sounds/greatgatsby_spanish.wav,,,,,,,,,0,0,0,0,0,35,35,194,175.324695122,9.30088572204e-06,176.080468433,0.755783895147,,,,,x,1,0.733765388257,2018_Nov_27_1533,59.9871097404,spanish_cond2,001,1056,
images/volleyball.jpg,volley ball,z,sounds/greatgatsby_spanish.wav,,,,,,,,,0,0,0,0,0,36,36,2,177.211717375,8.98027792573e-06,178.447712741,1.23600498796,,,,,z,1,1.21720909269,2018_Nov_27_1533,59.9871097404,spanish_cond2,001,1056,
images/lock02a.jpg,lock,z,sounds/greatgatsby_spanish.wav,,,,,,,,,0,0,0,0,0,37,37,65,179.559065071,9.30088572204e-06,180.631598208,1.07254340011,,,,,z,1,1.05049859395,2018_Nov_27_1533,59.9871097404,spanish_cond2,001,1056,
images/battery03b.jpg,battery,z,sounds/greatgatsby_spanish.wav,,,,,,,,,0,0,0,0,0,38,38,34,181.74291654,9.621726349e-06,182.782154275,1.03924735601,,,,,z,1,1.017172402,2018_Nov_27_1533,59.9871097404,spanish_cond2,001,1056,
images/cola.jpg,comb,x,sounds/greatgatsby_spanish.wav,,,,,,,,,0,0,0,0,0,39,39,157,183.903837371,8.65943729877e-06,184.782656846,0.878829096328,,,,,x,1,0.867130130879,2018_Nov_27_1533,59.9871097404,spanish_cond2,001,1056,
images/handfan01b.jpg,handfan,z,sounds/greatgatsby_spanish.wav,,,,,,,,,0,0,0,0,0,40,40,69,185.897766109,8.98016151041e-06,186.783166152,0.885410305695,,,,,z,1,0.867149053491,2018_Nov_27_1533,59.9871097404,spanish_cond2,001,1056,
images/clothespin02a.jpg,clothes pin,z,sounds/greatgatsby_spanish.wav,,,,,,,,,0,0,0,0,0,41,41,79,187.890290407,9.30088572204e-06,190.034243456,2.14396299131,,,,,z,1,2.13437790261,2018_Nov_27_1533,59.9871097404,spanish_cond2,001,1056,
images/ant.jpg,ant,z,sounds/greatgatsby_spanish.wav,,,,,,,,,0,0,0,0,0,42,42,98,191.129276824,9.621726349e-06,192.818090821,1.68882458063,,,,,z,1,1.66740389902,2018_Nov_27_1533,59.9871097404,spanish_cond2,001,1056,
images/mattress.jpg,cat,x,sounds/greatgatsby_spanish.wav,,,,,,,,,0,0,0,0,0,43,43,147,193.923126536,9.30088572204e-06,194.968574084,1.0454581317,,,,,x,1,1.03385730705,2018_Nov_27_1533,59.9871097404,spanish_cond2,001,1056,
images/peach01.jpg,peach,z,sounds/greatgatsby_spanish.wav,,,,,,,,,0,0,0,0,0,44,44,106,196.099146624,9.62160993367e-06,198.452790728,2.35365404643,,,,,z,1,2.33418495639,2018_Nov_27_1533,59.9871097404,spanish_cond2,001,1056,
images/tulip02.jpg,sport shorts,x,sounds/greatgatsby_spanish.wav,,,,,,,,,0,0,0,0,0,45,45,225,199.549151883,9.30088572204e-06,202.153728326,2.60458574293,,,,,x,1,2.58423691324,2018_Nov_27_1533,59.9871097404,spanish_cond2,001,1056,
images/puzzle.jpg,puzzle,z,sounds/greatgatsby_spanish.wav,,,,,,,,,0,0,0,0,0,46,46,57,203.276216113,8.65943729877e-06,205.521226966,2.24502047489,,,,,z,1,2.23415089573,2018_Nov_27_1533,59.9871097404,spanish_cond2,001,1056,
images/lantern03.jpg,lantern,z,sounds/greatgatsby_spanish.wav,,,,,,,,,0,0,0,0,0,47,47,5,206.628550389,9.30100213736e-06,208.772074633,2.14353450714,,,,,z,1,2.13414826582,2018_Nov_27_1533,59.9871097404,spanish_cond2,001,1056,
images/corn01.jpg,corn,z,sounds/greatgatsby_spanish.wav,,,,,,,,,0,0,0,0,0,48,48,22,209.873454121,9.62160993367e-06,210.955954968,1.08251046832,,,,,z,1,1.06718959264,2018_Nov_27_1533,59.9871097404,spanish_cond2,001,1056,
images/triangleruler02.jpg,bottle of red wine,x,sounds/greatgatsby_spanish.wav,,,,,,,,,0,0,0,0,0,49,49,134,212.066907999,9.30088572204e-06,212.889773083,0.822875026264,,,,,x,1,0.800461390289,2018_Nov_27_1533,59.9871097404,spanish_cond2,001,1056,
images/swan.jpg,swan,z,sounds/greatgatsby_spanish.wav,,,,,,,,,0,0,0,0,0,50,50,54,213.982138688,9.30100213736e-06,216.973988829,2.99186040403,,,,,None,0,,2018_Nov_27_1533,59.9871097404,spanish_cond2,001,1056,
images/cat.jpg,black olive,x,sounds/greatgatsby_spanish.wav,,,,,,,,,0,0,0,0,0,51,51,133,218.104493375,8.98016151041e-06,219.608141264,1.503657831,,,,,x,1,1.48395750055,2018_Nov_27_1533,59.9871097404,spanish_cond2,001,1056,
images/key03b.jpg,cigar,x,sounds/greatgatsby_spanish.wav,,,,,,,,,0,0,0,0,0,52,52,153,220.711593256,8.98016151041e-06,221.95856019,1.24697719794,,,,,x,1,1.23373395752,2018_Nov_27_1533,59.9871097404,spanish_cond2,001,1056,
images/diploma01.jpg,glasses,x,sounds/greatgatsby_spanish.wav,,,,,,,,,0,0,0,0,0,53,53,179,223.090298233,8.98016151041e-06,224.876140807,1.78585219604,,,,,x,1,1.76737477747,2018_Nov_27_1533,59.9871097404,spanish_cond2,001,1056,
images/pepper05a.jpg,lighter,x,sounds/greatgatsby_spanish.wav,,,,,,,,,0,0,0,0,0,54,54,198,225.99912026,9.30100213736e-06,226.993336686,0.994226047187,,,,,x,1,0.98382824962,2018_Nov_27_1533,59.9871097404,spanish_cond2,001,1056,
images/ostrich.jpg,ostrich,z,sounds/greatgatsby_spanish.wav,,,,,,,,,0,0,0,0,0,55,55,76,228.095652361,8.98016151041e-06,229.393946955,1.29830389528,,,,,z,1,1.28391856491,2018_Nov_27_1533,59.9871097404,spanish_cond2,001,1056,
images/electricguitar02.jpg,electric guitar,z,sounds/greatgatsby_spanish.wav,,,,,,,,,0,0,0,0,0,56,56,100,230.497906649,8.98016151041e-06,231.37778194,0.879885232891,,,,,z,1,0.867120188545,2018_Nov_27_1533,59.9871097404,spanish_cond2,001,1056,
images/lettuce.jpg,mushroom,x,sounds/greatgatsby_spanish.wav,,,,,,,,,0,0,0,0,0,57,57,205,232.502074428,9.30088572204e-06,234.94534357,2.44327876356,,,,,x,1,2.4341753989,2018_Nov_27_1533,59.9871097404,spanish_cond2,001,1056,
images/lemon02.jpg,lemon,z,sounds/greatgatsby_spanish.wav,,,,,,,,,0,0,0,0,0,58,58,14,236.057444464,9.62160993367e-06,236.862512059,0.805077216937,,,,,z,1,0.783799897879,2018_Nov_27_1533,59.9871097404,spanish_cond2,001,1056,
images/daisy.jpg,daisy,z,sounds/greatgatsby_spanish.wav,,,,,,,,,0,0,0,0,0,59,59,6,237.964719651,8.98016151041e-06,239.563182496,1.5984727873,,,,,x,0,1.58399156108,2018_Nov_27_1533,59.9871097404,spanish_cond2,001,1056,
images/glasses01b.jpg,calculator,x,sounds/greatgatsby_spanish.wav,,,,,,,,,0,0,0,0,0,60,60,142,240.658004187,9.30088572204e-06,242.463922016,1.80592841224,,,,,x,1,1.78404492931,2018_Nov_27_1533,59.9871097404,spanish_cond2,001,1056,
images/notebook02b.jpg,notebook,z,sounds/greatgatsby_spanish.wav,,,,,,,,,0,0,0,0,0,61,61,7,243.570290009,9.30100213736e-06,246.56480182,2.99452431838,,,,,None,0,,2018_Nov_27_1533,59.9871097404,spanish_cond2,001,1056,
images/carrot02.jpg,corkscrew,x,sounds/greatgatsby_spanish.wav,,,,,,,,,0,0,0,0,0,62,62,161,247.667357074,9.30088572204e-06,248.632133171,0.964786040131,,,,,x,1,0.950486021698,2018_Nov_27_1533,59.9871097404,spanish_cond2,001,1056,
images/beachumbrella01.jpg,beach umbrella,z,sounds/greatgatsby_spanish.wav,,,,,,,,,0,0,0,0,0,63,63,92,249.737846251,9.621726349e-06,250.932725095,1.19488878653,,,,,z,1,1.18388610787,2018_Nov_27_1533,59.9871097404,spanish_cond2,001,1056,
images/hanger02a.jpg,hanger,z,sounds/greatgatsby_spanish.wav,,,,,,,,,0,0,0,0,0,64,64,88,252.02612599,9.30088572204e-06,253.016597027,0.99048065918,,,,,z,1,0.967176699662,2018_Nov_27_1533,59.9871097404,spanish_cond2,001,1056,
images/binder03b.jpg,dj mixer,x,sounds/greatgatsby_spanish.wav,,,,,,,,,0,0,0,0,0,65,65,167,254.129333271,3.46379820257e-05,255.200477362,1.07115884451,,,,,x,1,1.05051912018,2018_Nov_27_1533,59.9871097404,spanish_cond2,001,1056,
images/radish01.jpg,raisin,x,sounds/greatgatsby_spanish.wav,,,,,,,,,0,0,0,0,0,66,66,214,256.311273881,8.98027792573e-06,258.03452986,1.72326560121,,,,,x,1,1.70069000067,2018_Nov_27_1533,59.9871097404,spanish_cond2,001,1056,
images/50dollarbill.jpg,cherry,x,sounds/greatgatsby_spanish.wav,,,,,,,,,0,0,0,0,0,67,67,151,259.156589163,8.98016151041e-06,260.068375301,0.911796400673,,,,,x,1,0.900490960688,2018_Nov_27_1533,59.9871097404,spanish_cond2,001,1056,
images/eraser.jpg,eraser,z,sounds/greatgatsby_spanish.wav,,,,,,,,,0,0,0,0,0,68,68,110,261.175117256,9.30088572204e-06,262.168915781,0.993808146799,,,,,z,1,0.983848134405,2018_Nov_27_1533,59.9871097404,spanish_cond2,001,1056,
images/lightswitch02a.jpg,fork,x,sounds/greatgatsby_spanish.wav,,,,,,,,,0,0,0,0,0,69,69,177,263.282603606,9.30088572204e-06,264.436140461,1.15354711784,,,,,x,1,1.13386667217,2018_Nov_27_1533,59.9871097404,spanish_cond2,001,1056,
images/dresser02.jpg,dresser,z,sounds/greatgatsby_spanish.wav,,,,,,,,,0,0,0,0,0,70,70,87,265.559981372,9.30100213736e-06,267.286874978,1.72690290608,,,,,z,1,1.71735341742,2018_Nov_27_1533,59.9871097404,spanish_cond2,001,1056,
images/screw03c.jpg,screw,z,sounds/greatgatsby_spanish.wav,,,,,,,,,0,0,0,0,0,71,71,84,268.382467684,9.30088572204e-06,269.537440089,1.15498234751,,,,,z,1,1.13387982175,2018_Nov_27_1533,59.9871097404,spanish_cond2,001,1056,
images/cocktailshrimp01.jpg,cocktail shrimp,z,sounds/greatgatsby_spanish.wav,,,,,,,,,0,0,0,0,0,72,72,30,270.651367814,8.98016151041e-06,271.537944264,0.886586071458,,,,,z,1,0.867132055224,2018_Nov_27_1533,59.9871097404,spanish_cond2,001,1056,
images/bowl02b (1).jpg,bowl,z,sounds/greatgatsby_spanish.wav,,,,,,,,,0,0,0,0,0,73,73,24,272.655911478,9.94245056063e-06,273.455102169,0.799200954032,,,,,z,1,0.783797973651,2018_Nov_27_1533,59.9871097404,spanish_cond2,001,1056,
images/licenseplate.jpg,license plate,z,sounds/greatgatsby_spanish.wav,,,,,,,,,0,0,0,0,0,74,74,40,274.573404858,9.62160993367e-06,275.389173333,0.815778417164,,,,,z,1,0.800698724226,2018_Nov_27_1533,59.9871097404,spanish_cond2,001,1056,
images/gamecontroller01.jpg,game controller,z,sounds/greatgatsby_spanish.wav,,,,,,,,,0,0,0,0,0,75,75,112,276.508837166,8.98016151041e-06,277.372759759,0.863932535518,,,,,z,1,0.850479863817,2018_Nov_27_1533,59.9871097404,spanish_cond2,001,1056,
images/screwdriver02b.jpg,cola,x,sounds/greatgatsby_spanish.wav,,,,,,,,,0,0,0,0,0,76,76,158,278.466669639,9.30100213736e-06,279.45661341,0.989953713492,,,,,x,1,0.967135647312,2018_Nov_27_1533,59.9871097404,spanish_cond2,001,1056,
images/broadsword.jpg,teapot,x,sounds/greatgatsby_spanish.wav,,,,,,,,,0,0,0,0,0,77,77,231,280.549729824,8.65943729877e-06,282.07395201,1.52423212805,,,,,x,1,1.5006292559,2018_Nov_27_1533,59.9871097404,spanish_cond2,001,1056,
images/coin01b.jpg,arrow,x,sounds/greatgatsby_spanish.wav,,,,,,,,,0,0,0,0,0,78,78,124,283.177497011,8.98016151041e-06,284.057786995,0.880299926037,,,,,x,1,0.867148412042,2018_Nov_27_1533,59.9871097404,spanish_cond2,001,1056,
images/computermouse02a.jpg,world map,x,sounds/greatgatsby_spanish.wav,,,,,,,,,0,0,0,0,0,79,79,239,285.159957382,9.30100213736e-06,286.041607226,0.881659465376,,,,,x,1,0.867133658845,2018_Nov_27_1533,59.9871097404,spanish_cond2,001,1056,
images/leaf01a.jpg,leaf,z,sounds/greatgatsby_spanish.wav,,,,,,,,,0,0,0,0,0,80,80,68,287.144625282,9.30100213736e-06,287.99210287,0.847487209598,,,,,z,1,0.833781809197,2018_Nov_27_1533,59.9871097404,spanish_cond2,001,1056,
images/fryingpan01.jpg,frying pan,z,sounds/greatgatsby_spanish.wav,,,,,,,,,0,0,0,0,0,81,81,45,289.092877797,9.30100213736e-06,290.042618462,0.949750606786,,,,,z,1,0.933782194043,2018_Nov_27_1533,59.9871097404,spanish_cond2,001,1056,
images/cigar.jpg,crocodile,x,sounds/greatgatsby_spanish.wav,,,,,,,,,0,0,0,0,0,82,82,162,291.140895288,9.30088572204e-06,292.359884065,1.21899871971,,,,,x,1,1.20056652278,2018_Nov_27_1533,59.9871097404,spanish_cond2,001,1056,
images/basketball01.jpg,basket ball,z,sounds/greatgatsby_spanish.wav,,,,,,,,,0,0,0,0,0,83,83,33,293.499238286,9.30100213736e-06,294.243691404,0.744463060633,,,,,z,1,0.73377982073,2018_Nov_27_1533,59.9871097404,spanish_cond2,001,1056,
images/knife04.jpg,tooth brush,x,sounds/greatgatsby_spanish.wav,,,,,,,,,0,0,0,0,0,84,84,233,295.343557086,9.30100213736e-06,297.56119338,2.2176462363,,,,,x,1,2.20080834697,2018_Nov_27_1533,59.9871097404,spanish_cond2,001,1056,
images/orange.jpg,bat,x,sounds/greatgatsby_spanish.wav,,,,,,,,,0,0,0,0,0,85,85,128,298.686239243,9.30088572204e-06,300.161856055,1.47562643362,,,,,x,1,1.45063002571,2018_Nov_27_1533,59.9871097404,spanish_cond2,001,1056,
images/axe01.jpg,axe,z,sounds/greatgatsby_spanish.wav,,,,,,,,,0,0,0,0,0,86,86,104,301.265790733,9.30088572204e-06,303.129272334,1.86349186394,,,,,z,1,1.85070853843,2018_Nov_27_1533,59.9871097404,spanish_cond2,001,1056,
images/barrel01.jpg,barrel,z,sounds/greatgatsby_spanish.wav,,,,,,,,,0,0,0,0,0,87,87,9,304.260928271,9.62160993367e-06,304.963070179,0.702151529491,,,,,z,1,0.683756215614,2018_Nov_27_1533,59.9871097404,spanish_cond2,001,1056,
images/cheetah.jpg,cheetah,z,sounds/greatgatsby_spanish.wav,,,,,,,,,0,0,0,0,0,88,88,82,306.067760477,8.98027792573e-06,306.963584937,0.895834402414,,,,,z,1,0.88381792244,2018_Nov_27_1533,59.9871097404,spanish_cond2,001,1056,
images/lollipop03b.jpg,lollipop,z,sounds/greatgatsby_spanish.wav,,,,,,,,,0,0,0,0,0,89,89,42,308.057555113,9.30088572204e-06,308.964086867,0.90654137556,,,,,z,1,0.883819846669,2018_Nov_27_1533,59.9871097404,spanish_cond2,001,1056,
images/sock03.jpg,sock,z,sounds/greatgatsby_spanish.wav,,,,,,,,,0,0,0,0,0,90,90,90,310.070622277,9.30088572204e-06,310.947910306,0.877297650208,,,,,z,1,0.86713911104,2018_Nov_27_1533,59.9871097404,spanish_cond2,001,1056,
images/cactus.jpg,cactus,z,sounds/greatgatsby_spanish.wav,,,,,,,,,0,0,0,0,0,91,91,70,312.061526289,8.6595537141e-06,312.815071867,0.753555520787,,,,,z,1,0.733786876546,2018_Nov_27_1533,59.9871097404,spanish_cond2,001,1056,
images/magnifyingglass01b.jpg,magnifying glass,z,sounds/greatgatsby_spanish.wav,,,,,,,,,0,0,0,0,0,92,92,64,313.92261274,8.98027792573e-06,314.665520942,0.742917502648,,,,,z,1,0.733772123349,2018_Nov_27_1533,59.9871097404,spanish_cond2,001,1056,
images/tank.jpg,wallet,x,sounds/greatgatsby_spanish.wav,,,,,,,,,0,0,0,0,0,93,93,237,315.77016698,9.62160993367e-06,316.749378762,0.979221723857,,,,,x,1,0.967160984292,2018_Nov_27_1533,59.9871097404,spanish_cond2,001,1056,
images/umbrella01.jpg,umbrella,z,sounds/greatgatsby_spanish.wav,,,,,,,,,0,0,0,0,0,94,94,53,317.86215702,9.62160993367e-06,318.649867157,0.787720399909,,,,,z,1,0.767118841526,2018_Nov_27_1533,59.9871097404,spanish_cond2,001,1056,
images/dragonfly02.jpg,dragon fly,z,sounds/greatgatsby_spanish.wav,,,,,,,,,0,0,0,0,0,95,95,29,319.749618983,9.30088572204e-06,320.50034221,0.750733169727,,,,,z,1,0.733755445806,2018_Nov_27_1533,59.9871097404,spanish_cond2,001,1056,
images/kiwi03.jpg,backpack,x,sounds/greatgatsby_spanish.wav,,,,,,,,,0,0,0,0,0,96,96,125,321.629542702,9.62160993367e-06,322.717558679,1.08802624012,,,,,x,1,1.06719504495,2018_Nov_27_1533,59.9871097404,spanish_cond2,001,1056,
images/plant01.jpg,plant,z,sounds/greatgatsby_spanish.wav,,,,,,,,,0,0,0,0,0,97,97,47,323.830827,9.30088572204e-06,325.401579169,1.57076211169,,,,,z,1,1.5506592755,2018_Nov_27_1533,59.9871097404,spanish_cond2,001,1056,
images/nailclipper03a.jpg,aquarium,x,sounds/greatgatsby_spanish.wav,,,,,,,,,0,0,0,0,0,98,98,123,326.501413421,8.98016151041e-06,327.402084627,0.900680828025,,,,,x,1,0.883821129682,2018_Nov_27_1533,59.9871097404,spanish_cond2,001,1056,
images/teapot.jpg,light switch,x,sounds/greatgatsby_spanish.wav,,,,,,,,,0,0,0,0,0,99,99,197,328.520102195,9.621726349e-06,329.469270371,0.949178118608,,,,,x,1,0.933808493195,2018_Nov_27_1533,59.9871097404,spanish_cond2,001,1056,
images/tissuebox03.jpg,tissue box,z,sounds/greatgatsby_spanish.wav,,,,,,,,,0,0,0,0,0,100,100,58,330.596100409,8.98027792573e-06,331.519784359,0.923693572287,,,,,z,1,0.900485829217,2018_Nov_27_1533,59.9871097404,spanish_cond2,001,1056,
images/tie01.jpg,bench,x,sounds/greatgatsby_spanish.wav,,,,,,,,,0,0,0,0,0,101,101,130,332.619093589,9.30100213736e-06,334.020419709,1.40133638319,,,,,x,1,1.38393658947,2018_Nov_27_1533,59.9871097404,spanish_cond2,001,1056,
images/boxingglove02a.jpg,bracelet,x,sounds/greatgatsby_spanish.wav,,,,,,,,,0,0,0,0,0,102,102,135,335.133238378,9.62160993367e-06,337.638024829,2.50479639298,,,,,x,1,2.48423332127,2018_Nov_27_1533,59.9871097404,spanish_cond2,001,1056,
images/lighter02b.jpg,stapler,x,sounds/greatgatsby_spanish.wav,,,,,,,,,0,0,0,0,0,103,103,227,338.741441862,9.30088572204e-06,339.638508157,0.897076236783,,,,,x,1,0.883778794436,2018_Nov_27_1533,59.9871097404,spanish_cond2,001,1056,
images/mushroom01.jpg,shower head,x,sounds/greatgatsby_spanish.wav,,,,,,,,,0,0,0,0,0,104,104,222,340.756784867,9.30088572204e-06,341.705707371,0.948932445724,,,,,x,1,0.933834792464,2018_Nov_27_1533,59.9871097404,spanish_cond2,001,1056,
images/highheelshoe02a.jpg,high heel shoe,z,sounds/greatgatsby_spanish.wav,,,,,,,,,0,0,0,0,0,105,105,75,342.812683132,9.30088572204e-06,344.389726258,1.57705274713,,,,,z,1,1.56733520038,2018_Nov_27_1533,59.9871097404,spanish_cond2,001,1056,
images/bat.jpg,hand,x,sounds/greatgatsby_spanish.wav,,,,,,,,,0,0,0,0,0,106,106,185,345.488129128,8.98027792573e-06,347.073746427,1.58562724188,,,,,x,1,1.56734482199,2018_Nov_27_1533,59.9871097404,spanish_cond2,001,1056,
images/coffeepot03b.jpg,coffee pot,z,sounds/greatgatsby_spanish.wav,,,,,,,,,0,0,0,0,0,107,107,107,348.196091493,8.6595537141e-06,349.007577692,0.81149582041,,,,,z,1,0.800491538132,2018_Nov_27_1533,59.9871097404,spanish_cond2,001,1056,
images/drink.jpg,drink,z,sounds/greatgatsby_spanish.wav,,,,,,,,,0,0,0,0,0,108,108,117,350.107798733,8.98016151041e-06,350.958041583,0.850252792821,,,,,z,1,0.83375134063,2018_Nov_27_1533,59.9871097404,spanish_cond2,001,1056,
images/dice05a.jpg,band aid,x,sounds/greatgatsby_spanish.wav,,,,,,,,,0,0,0,0,0,109,109,126,352.071866677,8.98027792573e-06,352.875208469,0.803351734183,,,,,x,1,0.783803425729,2018_Nov_27_1533,59.9871097404,spanish_cond2,001,1056,
images/banjo.jpg,knife,x,sounds/greatgatsby_spanish.wav,,,,,,,,,0,0,0,0,0,110,110,191,353.971348968,8.65943729877e-06,354.892364514,0.921025167685,,,,,x,1,0.900480377022,2018_Nov_27_1533,59.9871097404,spanish_cond2,001,1056,
images/printer03a.jpg,printer,z,sounds/greatgatsby_spanish.wav,,,,,,,,,0,0,0,0,0,111,111,72,356.001756593,9.62160993367e-06,356.809537814,0.807791484753,,,,,z,1,0.783798935823,2018_Nov_27_1533,59.9871097404,spanish_cond2,001,1056,
images/arrow02.jpg,hammer,x,sounds/greatgatsby_spanish.wav,,,,,,,,,0,0,0,0,0,112,112,184,357.908285139,9.30088572204e-06,360.460446355,2.55217083683,,,,,x,1,2.5342303064,2018_Nov_27_1533,59.9871097404,spanish_cond2,001,1056,
images/lip.jpg,boxing glove,x,sounds/greatgatsby_spanish.wav,,,,,,,,,0,0,0,0,0,113,113,136,361.563547798,8.98016151041e-06,362.477625171,0.914087315788,,,,,x,1,0.900485829217,2018_Nov_27_1533,59.9871097404,spanish_cond2,001,1056,
images/apple06.jpg,apple,z,sounds/greatgatsby_spanish.wav,,,,,,,,,0,0,0,0,0,114,114,13,363.606666906,9.30088572204e-06,366.228574828,2.62191818515,,,,,z,1,2.60092053539,2018_Nov_27_1533,59.9871097404,spanish_cond2,001,1056,
images/hairband.jpg,hairband,z,sounds/greatgatsby_spanish.wav,,,,,,,,,0,0,0,0,0,115,115,66,367.337951833,8.98027792573e-06,368.579175604,1.24123371381,,,,,z,1,1.21723988187,2018_Nov_27_1533,59.9871097404,spanish_cond2,001,1056,
images/toucan.jpg,toucan,z,sounds/greatgatsby_spanish.wav,,,,,,,,,0,0,0,0,0,116,116,81,369.681375498,8.98016151041e-06,370.813366269,1.13200103398,,,,,z,1,1.11750954471,2018_Nov_27_1533,59.9871097404,spanish_cond2,001,1056,
images/table02.jpg,table,z,sounds/greatgatsby_spanish.wav,,,,,,,,,0,0,0,0,0,117,117,49,371.928044804,9.30088572204e-06,372.863590646,0.935555785079,,,,,z,1,0.9171617541,2018_Nov_27_1533,59.9871097404,spanish_cond2,001,1056,
images/bowtie.jpg,bowtie,z,sounds/greatgatsby_spanish.wav,,,,,,,,,0,0,0,0,0,118,118,89,373.97384258,9.62160993367e-06,376.047723389,2.07389107265,,,,,z,1,2.05077569745,2018_Nov_27_1533,59.9871097404,spanish_cond2,001,1056,
images/crocodile.jpg,triangle ruler,x,sounds/greatgatsby_spanish.wav,,,,,,,,,0,0,0,0,0,119,119,235,377.147411712,9.30088572204e-06,378.248279649,1.10087852087,,,,,x,1,1.08386198955,2018_Nov_27_1533,59.9871097404,spanish_cond2,001,1056,
images/pingpongpaddle01c (1).jpg,ping pong paddle,z,sounds/greatgatsby_spanish.wav,,,,,,,,,0,0,0,0,0,120,120,10,379.359119786,8.98016151041e-06,380.248784785,0.889674942126,,,,,z,1,0.867141035385,2018_Nov_27_1533,59.9871097404,spanish_cond2,001,1056,
images/calculator02b.jpg,dice,x,sounds/greatgatsby_spanish.wav,,,,,,,,,0,0,0,0,0,121,121,165,381.352680656,9.62160993367e-06,382.366004398,1.01333400467,,,,,x,1,1.00052951148,2018_Nov_27_1533,59.9871097404,spanish_cond2,001,1056,
images/gorilla.jpg,gorilla,z,sounds/greatgatsby_spanish.wav,,,,,,,,,0,0,0,0,0,122,122,80,383.476892001,9.62160993367e-06,384.399838613,0.922957515926,,,,,z,1,0.900465303101,2018_Nov_27_1533,59.9871097404,spanish_cond2,001,1056,
images/saltshaker03c.jpg,salt shaker,z,sounds/greatgatsby_spanish.wav,,,,,,,,,0,0,0,0,0,123,123,63,385.512238419,9.30088572204e-06,386.61706759,1.10483975464,,,,,z,1,1.083871932,2018_Nov_27_1533,59.9871097404,spanish_cond2,001,1056,
images/masquerademask02b.jpg,mirror,x,sounds/greatgatsby_spanish.wav,,,,,,,,,0,0,0,0,0,124,124,204,387.722572201,9.30100213736e-06,389.301113097,1.57855147973,,,,,x,1,1.56735540577,2018_Nov_27_1533,59.9871097404,spanish_cond2,001,1056,
images/lightbulb03b.jpg,treadmill,x,sounds/greatgatsby_spanish.wav,,,,,,,,,0,0,0,0,0,125,125,234,390.404082402,9.30100213736e-06,392.485214409,2.08114226966,,,,,x,1,2.06743783131,2018_Nov_27_1533,59.9871097404,spanish_cond2,001,1056,
images/icecube02 (2).jpg,aloe,x,sounds/greatgatsby_spanish.wav,,,,,,,,,0,0,0,0,0,126,126,122,393.596019587,9.62160993367e-06,394.452399447,0.856389802531,,,,,x,1,0.83382157865,2018_Nov_27_1533,59.9871097404,spanish_cond2,001,1056,
images/atm.jpg,atm,z,sounds/greatgatsby_spanish.wav,,,,,,,,,0,0,0,0,0,127,127,96,395.591317807,8.98016151041e-06,396.486229814,0.894921628409,,,,,z,1,0.883808942162,2018_Nov_27_1533,59.9871097404,spanish_cond2,001,1056,
images/banana04a.jpg,banana,z,sounds/greatgatsby_spanish.wav,,,,,,,,,0,0,0,0,0,128,128,118,397.595201426,9.62160993367e-06,398.320022848,0.724831364467,,,,,z,1,0.700385635719,2018_Nov_27_1533,59.9871097404,spanish_cond2,001,1056,
images/puma.jpg,puma,z,sounds/greatgatsby_spanish.wav,,,,,,,,,0,0,0,0,0,129,129,4,399.417879529,9.30100213736e-06,401.304110562,1.88624065428,,,,,x,0,1.86739151913,2018_Nov_27_1533,59.9871097404,spanish_cond2,001,1056,
images/lychee02a.jpg,lychee,z,sounds/greatgatsby_spanish.wav,,,,,,,,,0,0,0,0,0,130,130,62,402.428183355,9.30088572204e-06,405.421678799,2.99350538547,,,,,None,0,,2018_Nov_27_1533,59.9871097404,spanish_cond2,001,1056,
images/paperclip04.jpg,eye drops,x,sounds/greatgatsby_spanish.wav,,,,,,,,,0,0,0,0,0,131,131,174,406.528389644,1.02630583569e-05,407.755743163,1.2273644245,,,,,x,1,1.21722897736,2018_Nov_27_1533,59.9871097404,spanish_cond2,001,1056,
images/rubberglove02a.jpg,lady bug,x,sounds/greatgatsby_spanish.wav,,,,,,,,,0,0,0,0,0,132,132,192,408.860879265,8.98016151041e-06,409.956304555,1.09543523216,,,,,x,1,1.08386455546,2018_Nov_27_1533,59.9871097404,spanish_cond2,001,1056,
images/radio03a.jpg,radio,z,sounds/greatgatsby_spanish.wav,,,,,,,,,0,0,0,0,0,133,133,37,411.071870205,9.94233414531e-06,411.923473878,0.851613615057,,,,,z,1,0.833802976878,2018_Nov_27_1533,59.9871097404,spanish_cond2,001,1056,
images/blackolive.jpg,tank,x,sounds/greatgatsby_spanish.wav,,,,,,,,,0,0,0,0,0,134,134,229,413.039080581,1.02630583569e-05,413.8739692,0.834899524343,,,,,x,1,0.817135390826,2018_Nov_27_1533,59.9871097404,spanish_cond2,001,1056,
images/parrot01.jpg,chameleon,x,sounds/greatgatsby_spanish.wav,,,,,,,,,0,0,0,0,0,135,135,150,414.987302628,9.94233414531e-06,416.141205105,1.15391306137,,,,,x,1,1.13387693523,2018_Nov_27_1533,59.9871097404,spanish_cond2,001,1056,
images/razor04a.jpg,razor,z,sounds/greatgatsby_spanish.wav,,,,,,,,,0,0,0,0,0,136,136,36,417.241253278,8.6595537141e-06,418.025015972,0.783772636554,,,,,z,1,0.767119803699,2018_Nov_27_1533,59.9871097404,spanish_cond2,001,1056,
images/leek.jpg,donut,x,sounds/greatgatsby_spanish.wav,,,,,,,,,0,0,0,0,0,137,137,169,419.126379745,8.6595537141e-06,420.275599685,1.14922956238,,,,,x,1,1.13388783974,2018_Nov_27_1533,59.9871097404,spanish_cond2,001,1056,
images/redfox.jpg,red fox,z,sounds/greatgatsby_spanish.wav,,,,,,,,,0,0,0,0,0,138,138,1,421.388715663,8.98016151041e-06,422.242751369,0.854045968386,,,,,z,1,0.83380009036,2018_Nov_27_1533,59.9871097404,spanish_cond2,001,1056,
images/handbag02a.jpg,candle,x,sounds/greatgatsby_spanish.wav,,,,,,,,,0,0,0,0,0,139,139,144,423.361134559,9.30100213736e-06,424.176572691,0.815448715352,,,,,x,1,0.800451447838,2018_Nov_27_1533,59.9871097404,spanish_cond2,001,1056,
images/ladder.jpg,ladder,z,sounds/greatgatsby_spanish.wav,,,,,,,,,0,0,0,0,0,140,140,113,425.271733706,9.30100213736e-06,426.07706301,0.805339567363,,,,,z,1,0.783790596994,2018_Nov_27_1533,59.9871097404,spanish_cond2,001,1056,
images/sportshorts02.jpg,tape,x,sounds/greatgatsby_spanish.wav,,,,,,,,,0,0,0,0,0,141,141,230,427.185453795,9.62160993367e-06,428.57768521,1.39224167785,,,,,x,1,1.38392953353,2018_Nov_27_1533,59.9871097404,spanish_cond2,001,1056,
images/button07.jpg,radish,x,sounds/greatgatsby_spanish.wav,,,,,,,,,0,0,0,0,0,142,142,215,429.689729016,9.30088572204e-06,430.778249167,1.08853009401,,,,,x,1,1.06718798913,2018_Nov_27_1533,59.9871097404,spanish_cond2,001,1056,
images/diaper01a.jpg,camera,x,sounds/greatgatsby_spanish.wav,,,,,,,,,0,0,0,0,0,143,143,143,431.900164787,8.98016151041e-06,432.828758666,0.928603821434,,,,,x,1,0.917147963075,2018_Nov_27_1533,59.9871097404,spanish_cond2,001,1056,
images/apricot.jpg,apricot,z,sounds/greatgatsby_spanish.wav,,,,,,,,,0,0,0,0,0,144,144,32,433.945513232,9.30100213736e-06,434.795919971,0.850417323061,,,,,z,1,0.833791430807,2018_Nov_27_1533,59.9871097404,spanish_cond2,001,1056,
images/comb02a.jpg,diploma,x,sounds/greatgatsby_spanish.wav,,,,,,,,,0,0,0,0,0,145,145,166,435.902129207,9.30088572204e-06,436.863117582,0.96099895821,,,,,x,1,0.950491153169,2018_Nov_27_1533,59.9871097404,spanish_cond2,001,1056,
images/tent.jpg,tent,z,sounds/greatgatsby_spanish.wav,,,,,,,,,0,0,0,0,0,146,146,11,437.990834094,9.30100213736e-06,439.163710147,1.17288663646,,,,,z,1,1.15054997359,2018_Nov_27_1533,59.9871097404,spanish_cond2,001,1056,
images/medal01.jpg,medal,z,sounds/greatgatsby_spanish.wav,,,,,,,,,0,0,0,0,0,147,147,115,440.264589951,9.94233414531e-06,442.647936412,2.38335704536,,,,,z,1,2.36753905111,2018_Nov_27_1533,59.9871097404,spanish_cond2,001,1056,
images/giraffe.jpg,lettuce,x,sounds/greatgatsby_spanish.wav,,,,,,,,,0,0,0,0,0,148,148,195,443.750168379,8.98016151041e-06,444.898496072,1.14833763521,,,,,x,1,1.1338778974,2018_Nov_27_1533,59.9871097404,spanish_cond2,001,1056,
images/squirrel.jpg,binder,x,sounds/greatgatsby_spanish.wav,,,,,,,,,0,0,0,0,0,149,149,132,446.001740877,8.98016151041e-06,447.149065353,1.14733473852,,,,,x,1,1.13387533161,2018_Nov_27_1533,59.9871097404,spanish_cond2,001,1056,
images/hand01a.jpg,cupcake,x,sounds/greatgatsby_spanish.wav,,,,,,,,,0,0,0,0,0,150,150,163,448.262074851,9.30088572204e-06,449.482964546,1.22089963721,,,,,x,1,1.20054407232,2018_Nov_27_1533,59.9871097404,spanish_cond2,001,1056,
images/electrictoothbrush01a.jpg,banjo,x,sounds/greatgatsby_spanish.wav,,,,,,,,,0,0,0,0,0,151,151,127,450.577182639,9.30088572204e-06,451.666862521,1.08968982357,,,,,x,1,1.06717868813,2018_Nov_27_1533,59.9871097404,spanish_cond2,001,1056,
images/toothbrush03a.jpg,parrot,x,sounds/greatgatsby_spanish.wav,,,,,,,,,0,0,0,0,0,152,152,210,452.760098243,8.98016151041e-06,453.817433983,1.05734568159,,,,,x,1,1.03386885312,2018_Nov_27_1533,59.9871097404,spanish_cond2,001,1056,
images/cookingpot.jpg,grasshopper,x,sounds/greatgatsby_spanish.wav,,,,,,,,,0,0,0,0,0,153,153,183,454.932064729,8.98016151041e-06,456.168134824,1.23608003673,,,,,x,1,1.21736175613,2018_Nov_27_1533,59.9871097404,spanish_cond2,001,1056,
images/cauliflower01.jpg,glue stick,x,sounds/greatgatsby_spanish.wav,,,,,,,,,0,0,0,0,0,154,154,181,457.28440959,9.30088572204e-06,459.868944774,2.58454512688,,,,,x,1,2.56757670373,2018_Nov_27_1533,59.9871097404,spanish_cond2,001,1056,
images/lily.jpg,kiwi,x,sounds/greatgatsby_spanish.wav,,,,,,,,,0,0,0,0,0,155,155,190,460.970004824,9.94233414531e-06,461.60270471,0.632710149745,,,,,x,1,0.617069514585,2018_Nov_27_1533,59.9871097404,spanish_cond2,001,1056,
images/plate01b.jpg,plate,z,sounds/greatgatsby_spanish.wav,,,,,,,,,0,0,0,0,0,156,156,3,462.755471191,8.98016151041e-06,463.853275916,1.09781402501,,,,,z,1,1.08385782025,2018_Nov_27_1533,59.9871097404,spanish_cond2,001,1056,
images/hairdryer03a.jpg,hairdryer,z,sounds/greatgatsby_spanish.wav,,,,,,,,,0,0,0,0,0,157,157,119,464.954176887,8.98027792573e-06,465.787101407,0.832934462465,,,,,z,1,0.817125127651,2018_Nov_27_1533,59.9871097404,spanish_cond2,001,1056,
images/straw.jpg,straw,z,sounds/greatgatsby_spanish.wav,,,,,,,,,0,0,0,0,0,158,158,109,466.878300868,9.30088572204e-06,467.82096128,0.942670995952,,,,,z,1,0.93381266261,2018_Nov_27_1533,59.9871097404,spanish_cond2,001,1056,
images/stapler03a.jpg,candy cane,x,sounds/greatgatsby_spanish.wav,,,,,,,,,0,0,0,0,0,159,159,145,468.931749139,9.30088572204e-06,470.071519015,1.1397807803,,,,,x,1,1.11719299236,2018_Nov_27_1533,59.9871097404,spanish_cond2,001,1056,
images/ceilingfan02.jpg,paper clip,x,sounds/greatgatsby_spanish.wav,,,,,,,,,0,0,0,0,0,160,160,208,471.171168851,8.98027792573e-06,472.172049232,1.0008900027,,,,,x,1,0.98382440093,2018_Nov_27_1533,59.9871097404,spanish_cond2,001,1056,
images/blueberry02.jpg,blueberry,z,sounds/greatgatsby_spanish.wav,,,,,,,,,0,0,0,0,0,161,161,46,473.286830397,8.98027792573e-06,474.472671304,1.18585116975,,,,,z,1,1.16724931111,2018_Nov_27_1533,59.9871097404,spanish_cond2,001,1056,
images/dreamcatcher.jpg,dream catcher,z,sounds/greatgatsby_spanish.wav,,,,,,,,,0,0,0,0,0,162,162,48,475.571180974,8.98027792573e-06,476.573180353,1.00200932147,,,,,z,1,0.983841719921,2018_Nov_27_1533,59.9871097404,spanish_cond2,001,1056,
images/graduationcap.jpg,graduation cap,z,sounds/greatgatsby_spanish.wav,,,,,,,,,0,0,0,0,0,163,163,35,477.677317727,8.98016151041e-06,478.707037404,1.02972961869,,,,,z,1,1.0171643839,2018_Nov_27_1533,59.9871097404,spanish_cond2,001,1056,
images/candy.jpg,candy,z,sounds/greatgatsby_spanish.wav,,,,,,,,,0,0,0,0,0,164,164,31,479.809767451,1.02630583569e-05,480.690870144,0.881113276351,,,,,z,1,0.867136545363,2018_Nov_27_1533,59.9871097404,spanish_cond2,001,1056,
images/egg01b (1).jpg,egg,z,sounds/greatgatsby_spanish.wav,,,,,,,,,0,0,0,0,0,165,165,19,481.804973624,9.30100213736e-06,482.941438142,1.13647478097,,,,,z,1,1.11719459598,2018_Nov_27_1533,59.9871097404,spanish_cond2,001,1056,
images/desktopcomputer.jpg,desktop computer,z,sounds/greatgatsby_spanish.wav,,,,,,,,,0,0,0,0,0,166,166,16,484.07772947,8.98016151041e-06,485.475402249,1.39768304222,,,,,z,1,1.3839208741,2018_Nov_27_1533,59.9871097404,spanish_cond2,001,1056,
images/hairpin.jpg,hair pin,z,sounds/greatgatsby_spanish.wav,,,,,,,,,0,0,0,0,0,167,167,28,486.566577656,9.30088572204e-06,487.359243263,0.792675550212,,,,,z,1,0.783781616716,2018_Nov_27_1533,59.9871097404,spanish_cond2,001,1056,
images/backpack01b.jpg,swallow,x,sounds/greatgatsby_spanish.wav,,,,,,,,,0,0,0,0,0,168,168,228,488.49152076,9.621726349e-06,489.943041109,1.45153029158,,,,,x,1,1.43376744085,2018_Nov_27_1533,59.9871097404,spanish_cond2,001,1056,
images/parkingmeter.jpg,ear,x,sounds/greatgatsby_spanish.wav,,,,,,,,,0,0,0,0,0,169,169,171,491.04547962,8.17840918899e-05,492.010468677,0.965053522028,,,,,x,1,0.950532205519,2018_Nov_27_1533,59.9871097404,spanish_cond2,001,1056,
images/parkbench03.jpg,park bench,z,sounds/greatgatsby_spanish.wav,,,,,,,,,0,0,0,0,0,170,170,71,493.117851755,8.98016151041e-06,494.077587711,0.95974589861,,,,,z,1,0.950478324434,2018_Nov_27_1533,59.9871097404,spanish_cond2,001,1056,
images/flashlight05.jpg,flash light,z,sounds/greatgatsby_spanish.wav,,,,,,,,,0,0,0,0,0,171,171,8,495.18025618,8.98027792573e-06,496.028081109,0.84783519269,,,,,z,1,0.833789827186,2018_Nov_27_1533,59.9871097404,spanish_cond2,001,1056,
images/cherry01.jpg,highlighter,x,sounds/greatgatsby_spanish.wav,,,,,,,,,0,0,0,0,0,172,172,187,497.137697693,8.6595537141e-06,498.028578549,0.890890477342,,,,,x,1,0.867121471325,2018_Nov_27_1533,59.9871097404,spanish_cond2,001,1056,
images/envelope02a.jpg,grand piano,x,sounds/greatgatsby_spanish.wav,,,,,,,,,0,0,0,0,0,173,173,182,499.153351798,8.98027792573e-06,500.312508018,1.15916584141,,,,,x,1,1.15054484201,2018_Nov_27_1533,59.9871097404,spanish_cond2,001,1056,
images/computerkeyboard01a.jpg,computer keyboard,z,sounds/greatgatsby_spanish.wav,,,,,,,,,0,0,0,0,0,174,174,61,501.43057177,9.62160993367e-06,502.196319847,0.76575801929,,,,,z,1,0.750408278662,2018_Nov_27_1533,59.9871097404,spanish_cond2,001,1056,
images/bowlingball.jpg,bowling ball,z,sounds/greatgatsby_spanish.wav,,,,,,,,,0,0,0,0,0,175,175,20,503.330225326,9.62160993367e-06,504.346861802,1.01664834272,,,,,z,1,1.00049872231,2018_Nov_27_1533,59.9871097404,spanish_cond2,001,1056,
images/doll.jpg,carrot,x,sounds/greatgatsby_spanish.wav,,,,,,,,,0,0,0,0,0,176,176,146,505.458495725,9.30088572204e-06,506.697445259,1.23895947624,,,,,x,1,1.21721390344,2018_Nov_27_1533,59.9871097404,spanish_cond2,001,1056,
images/bullet (2).jpg,rubber glove,x,sounds/greatgatsby_spanish.wav,,,,,,,,,0,0,0,0,0,177,177,217,507.803076876,9.94233414531e-06,509.531512511,1.72844557732,,,,,x,1,1.71733962628,2018_Nov_27_1533,59.9871097404,spanish_cond2,001,1056,
images/gps.jpg,gps,z,sounds/greatgatsby_spanish.wav,,,,,,,,,0,0,0,0,0,178,178,21,510.651744983,9.30100213736e-06,511.882111362,1.23037664278,,,,,z,1,1.21714655182,2018_Nov_27_1533,59.9871097404,spanish_cond2,001,1056,
images/seagull.jpg,seagull,z,sounds/greatgatsby_spanish.wav,,,,,,,,,0,0,0,0,0,179,179,50,512.990253909,8.98027792573e-06,513.84926946,0.859025172889,,,,,z,1,0.850436566398,2018_Nov_27_1533,59.9871097404,spanish_cond2,001,1056,
images/bus.jpg,microphone,x,sounds/greatgatsby_spanish.wav,,,,,,,,,0,0,0,0,0,180,180,203,514.967668687,9.30100213736e-06,515.816428841,0.848770417157,,,,,x,1,0.833801693865,2018_Nov_27_1533,59.9871097404,spanish_cond2,001,1056,
images/nailpolish02b.jpg,nail polish,z,sounds/greatgatsby_spanish.wav,,,,,,,,,0,0,0,0,0,181,181,94,516.926604122,9.30088572204e-06,518.217035261,1.29044108209,,,,,z,1,1.2672423193,2018_Nov_27_1533,59.9871097404,spanish_cond2,001,1056,
images/feather03b.jpg,feather,z,sounds/greatgatsby_spanish.wav,,,,,,,,,0,0,0,0,0,182,182,114,519.31934356,8.98016151041e-06,520.350900651,1.0315673541,,,,,z,1,1.0171480272,2018_Nov_27_1533,59.9871097404,spanish_cond2,001,1056,
images/ladybug03.jpg,giraffe,x,sounds/greatgatsby_spanish.wav,,,,,,,,,0,0,0,0,0,183,183,178,521.455719558,9.30088572204e-06,522.834896959,1.37918734248,,,,,x,1,1.3672770214,2018_Nov_27_1533,59.9871097404,spanish_cond2,001,1056,
images/marker01a.jpg,marker,z,sounds/greatgatsby_spanish.wav,,,,,,,,,0,0,0,0,0,184,184,95,523.933317789,9.621726349e-06,525.98566374,2.05235525186,,,,,z,1,2.0340933582,2018_Nov_27_1533,59.9871097404,spanish_cond2,001,1056,
images/snowman.jpg,globe,x,sounds/greatgatsby_spanish.wav,,,,,,,,,0,0,0,0,0,185,185,180,527.098537252,9.30088572204e-06,528.202890152,1.10436284135,,,,,x,1,1.08384948142,2018_Nov_27_1533,59.9871097404,spanish_cond2,001,1056,
images/djmixer01.jpg,light bulb,x,sounds/greatgatsby_spanish.wav,,,,,,,,,0,0,0,0,0,186,186,196,529.326492446,9.62160993367e-06,530.386778504,1.06029632117,,,,,x,1,1.0505101399,2018_Nov_27_1533,59.9871097404,spanish_cond2,001,1056,
images/grandpiano.jpg,tulip,x,sounds/greatgatsby_spanish.wav,,,,,,,,,0,0,0,0,0,187,187,236,531.501474678,8.98016151041e-06,532.770725036,1.2692599796,,,,,x,1,1.25057312974,2018_Nov_27_1533,59.9871097404,spanish_cond2,001,1056,
images/baseball01a.jpg,baseball,z,sounds/greatgatsby_spanish.wav,,,,,,,,,0,0,0,0,0,188,188,74,533.903122162,9.30088572204e-06,535.221336139,1.31822359946,,,,,z,1,1.30058358517,2018_Nov_27_1533,59.9871097404,spanish_cond2,001,1056,
images/headphones02b.jpg,headphones,z,sounds/greatgatsby_spanish.wav,,,,,,,,,0,0,0,0,0,189,189,101,536.32929395,9.30088572204e-06,537.188510273,0.859226906672,,,,,z,1,0.850475373678,2018_Nov_27_1533,59.9871097404,spanish_cond2,001,1056,
images/scooter.jpg,pen,x,sounds/greatgatsby_spanish.wav,,,,,,,,,0,0,0,0,0,190,190,212,538.283468272,8.98027792573e-06,539.389056591,1.10559826146,,,,,x,1,1.08385429229,2018_Nov_27_1533,59.9871097404,spanish_cond2,001,1056,
images/globe.jpg,cloud,x,sounds/greatgatsby_spanish.wav,,,,,,,,,0,0,0,0,0,191,191,154,540.518680115,9.30088572204e-06,541.773170219,1.25450004614,,,,,x,1,1.2340659044,2018_Nov_27_1533,59.9871097404,spanish_cond2,001,1056,
images/parkfountain.jpg,park fountain,z,sounds/greatgatsby_spanish.wav,,,,,,,,,0,0,0,0,0,192,192,93,542.894303598,9.62160993367e-06,544.223612622,1.32931928744,,,,,z,1,1.31724379468,2018_Nov_27_1533,59.9871097404,spanish_cond2,001,1056,
images/chessknight02b (1).jpg,cockroach,x,sounds/greatgatsby_spanish.wav,,,,,,,,,0,0,0,0,0,193,193,155,545.332974873,9.30088572204e-06,546.190779379,0.857814127696,,,,,x,1,0.833795279497,2018_Nov_27_1533,59.9871097404,spanish_cond2,001,1056,
images/cloud.jpg,ceiling fan,x,sounds/greatgatsby_spanish.wav,,,,,,,,,0,0,0,0,0,194,194,149,547.297574253,9.30088572204e-06,549.374920782,2.07735647063,,,,,x,1,2.06743526552,2018_Nov_27_1533,59.9871097404,spanish_cond2,001,1056,
images/bracelet02a.jpg,chess knight,x,sounds/greatgatsby_spanish.wav,,,,,,,,,0,0,0,0,0,195,195,152,550.4860191,9.30100213736e-06,552.275662868,1.78965338971,,,,,x,1,1.76737862616,2018_Nov_27_1533,59.9871097404,spanish_cond2,001,1056,
images/nametag01a.jpg,name tag,z,sounds/greatgatsby_spanish.wav,,,,,,,,,0,0,0,0,0,196,196,108,553.396821584,8.98016151041e-06,554.809644615,1.4128332939,,,,,z,1,1.40061989089,2018_Nov_27_1533,59.9871097404,spanish_cond2,001,1056,
images/hammer02a.jpg,flower,x,sounds/greatgatsby_spanish.wav,,,,,,,,,0,0,0,0,0,197,197,176,555.906686021,9.30100213736e-06,557.893736241,1.98706016224,,,,,x,1,1.96739831835,2018_Nov_27_1533,59.9871097404,spanish_cond2,001,1056,
images/belt02a.jpg,snowman,x,sounds/greatgatsby_spanish.wav,,,,,,,,,0,0,0,0,0,198,198,224,558.997577268,9.30088572204e-06,560.110969067,1.11340206186,,,,,x,1,1.10051963327,2018_Nov_27_1533,59.9871097404,spanish_cond2,001,1056,
images/beermug01b.jpg,beer mug,z,sounds/greatgatsby_spanish.wav,,,,,,,,,0,0,0,0,0,199,199,111,561.229454888,9.62160993367e-06,562.628286756,1.39884245116,,,,,z,1,1.38393883442,2018_Nov_27_1533,59.9871097404,spanish_cond2,001,1056,
,,,sounds/greatgatsby_spanish.wav,,,,,,,,,0,0,0,0,,,,,,,,,,,,,,,,2018_Nov_27_1533,59.9871097404,spanish_cond2,001,1056,
images/cactus.jpg,cactus,z,sounds/animalfarm_english.wav,,,,,,,,,0,1,1,1,0,0,0,70,583.765132612,9.621726349e-06,584.817062587,1.05194087944,,,,573.631375947,z,1,1.03368668316,2018_Nov_27_1533,59.9871097404,spanish_cond2,001,1056,
images/beermug01b.jpg,beer mug,z,sounds/animalfarm_english.wav,,,,,,,,,0,1,1,1,0,1,1,111,585.931251379,9.30100213736e-06,586.934427807,1.00318637013,,,,,z,1,0.983829211793,2018_Nov_27_1533,59.9871097404,spanish_cond2,001,1056,
images/ostrich.jpg,ostrich,z,sounds/animalfarm_english.wav,,,,,,,,,0,1,1,1,0,2,2,76,588.032135994,8.98016151041e-06,588.668198006,0.636071954505,,,,,z,1,0.61707496678,2018_Nov_27_1533,59.9871097404,spanish_cond2,001,1056,
images/marker01a.jpg,marker,z,sounds/animalfarm_english.wav,,,,,,,,,0,1,1,1,0,3,3,95,589.763968392,9.30088572204e-06,590.718709429,0.954751299578,,,,,z,1,0.933818435646,2018_Nov_27_1533,59.9871097404,spanish_cond2,001,1056,
images/showerhead01.jpg,skateboard,x,sounds/animalfarm_english.wav,,,,,,,,,0,1,1,1,0,4,4,223,591.823986327,9.62160993367e-06,592.535848027,0.711871642037,,,,,x,1,0.70043438545,2018_Nov_27_1533,59.9871097404,spanish_cond2,001,1056,
images/scooter.jpg,pen,x,sounds/animalfarm_english.wav,,,,,,,,,0,1,1,1,0,5,5,212,593.625930093,9.621726349e-06,594.969804373,1.34388422209,,,,,x,1,1.33394505654,2018_Nov_27_1533,59.9871097404,spanish_cond2,001,1056,
images/mushroom01.jpg,shower head,x,sounds/animalfarm_english.wav,,,,,,,,,0,1,1,1,0,6,6,222,596.083623373,9.30088572204e-06,596.936948359,0.853334928281,,,,,x,1,0.833784374874,2018_Nov_27_1533,59.9871097404,spanish_cond2,001,1056,
images/charcoalbarbecue.jpg,charcoal barbecue,z,sounds/animalfarm_english.wav,,,,,,,,,0,1,1,1,0,7,7,77,598.052475202,9.621726349e-06,598.870775454,0.818310515024,,,,,z,1,0.800439901883,2018_Nov_27_1533,59.9871097404,spanish_cond2,001,1056,
images/broom02.jpg,broom,z,sounds/animalfarm_english.wav,,,,,,,,,0,1,1,1,0,8,8,116,599.961686265,9.62160993367e-06,600.654558033,0.692881710129,,,,,z,1,0.683752687648,2018_Nov_27_1533,59.9871097404,spanish_cond2,001,1056,
images/banana04a.jpg,banana,z,sounds/animalfarm_english.wav,,,,,,,,,0,1,1,1,0,9,9,118,601.759002979,9.30088572204e-06,602.505068686,0.746075969888,,,,,z,1,0.733807402779,2018_Nov_27_1533,59.9871097404,spanish_cond2,001,1056,
images/50dollarbill.jpg,cherry,x,sounds/animalfarm_english.wav,,,,,,,,,0,1,1,1,0,10,10,151,603.624032383,9.30088572204e-06,604.439029201,0.815017665387,,,,,x,1,0.800589678809,2018_Nov_27_1533,59.9871097404,spanish_cond2,001,1056,
images/grandpiano.jpg,tulip,x,sounds/animalfarm_english.wav,,,,,,,,,0,1,1,1,0,11,11,236,605.551231764,9.30088572204e-06,606.822785866,1.27156436502,,,,,x,1,1.25056414946,2018_Nov_27_1533,59.9871097404,spanish_cond2,001,1056,
images/coffeepot03b.jpg,coffee pot,z,sounds/animalfarm_english.wav,,,,,,,,,0,1,1,1,0,12,12,107,607.943421805,8.98016151041e-06,608.756607508,0.813195966068,,,,,z,1,0.800455617253,2018_Nov_27_1533,59.9871097404,spanish_cond2,001,1056,
images/giraffe.jpg,lettuce,x,sounds/animalfarm_english.wav,,,,,,,,,0,1,1,1,0,13,13,195,609.855551436,9.30088572204e-06,610.77379306,0.918251566356,,,,,x,1,0.900472679641,2018_Nov_27_1533,59.9871097404,spanish_cond2,001,1056,
images/cockroach02.jpg,belt,x,sounds/animalfarm_english.wav,,,,,,,,,0,1,1,1,0,14,14,129,611.872365592,9.94245056063e-06,612.657600719,0.785246032057,,,,,x,1,0.767111144145,2018_Nov_27_1533,59.9871097404,spanish_cond2,001,1056,
images/pipe.jpg,icecube,x,sounds/animalfarm_english.wav,,,,,,,,,0,1,1,1,0,15,15,188,613.764427024,9.30088572204e-06,614.574749003,0.810331921326,,,,,x,1,0.80045465508,2018_Nov_27_1533,59.9871097404,spanish_cond2,001,1056,
images/saltshaker03c.jpg,salt shaker,z,sounds/animalfarm_english.wav,,,,,,,,,0,1,1,1,0,16,16,63,615.68394031,9.621726349e-06,616.925343044,1.24141267652,,,,,z,1,1.21719081153,2018_Nov_27_1533,59.9871097404,spanish_cond2,001,1056,
images/acousticguitar02.jpg,acoustic guitar,z,sounds/animalfarm_english.wav,,,,,,,,,0,1,1,1,0,17,17,97,618.038880771,8.98027792573e-06,618.925859085,0.886987935752,,,,,z,1,0.8671317345,2018_Nov_27_1533,59.9871097404,spanish_cond2,001,1056,
images/tissuebox03.jpg,tissue box,z,sounds/animalfarm_english.wav,,,,,,,,,0,1,1,1,0,18,18,58,620.0496304,8.98027792573e-06,620.793020647,0.743400188861,,,,,z,1,0.733789442456,2018_Nov_27_1533,59.9871097404,spanish_cond2,001,1056,
images/wallet01.jpg,lamp,x,sounds/animalfarm_english.wav,,,,,,,,,0,1,1,1,0,19,19,193,621.897118572,9.94233414531e-06,622.593449003,0.696341014351,,,,,x,1,0.68375942274,2018_Nov_27_1533,59.9871097404,spanish_cond2,001,1056,
images/magnifyingglass01b.jpg,magnifying glass,z,sounds/animalfarm_english.wav,,,,,,,,,0,1,1,1,0,20,20,64,623.698388822,9.30088572204e-06,624.543942722,0.845563841518,,,,,z,1,0.833800410968,2018_Nov_27_1533,59.9871097404,spanish_cond2,001,1056,
images/leaf01a.jpg,leaf,z,sounds/animalfarm_english.wav,,,,,,,,,0,1,1,1,0,21,21,68,625.644278581,8.98016151041e-06,626.628041725,0.983772764797,,,,,z,1,0.96740248776,2018_Nov_27_1533,59.9871097404,spanish_cond2,001,1056,
images/chameleon.jpg,50 dollar bill,x,sounds/animalfarm_english.wav,,,,,,,,,0,1,1,1,0,22,22,120,627.738547028,9.94245056063e-06,628.411587932,0.673051166697,,,,,x,1,0.6504143083,2018_Nov_27_1533,59.9871097404,spanish_cond2,001,1056,
images/lock02a.jpg,lock,z,sounds/animalfarm_english.wav,,,,,,,,,0,1,1,1,0,23,23,65,629.519738176,9.62160993367e-06,630.178703245,0.658975332626,,,,,z,1,0.650409176713,2018_Nov_27_1533,59.9871097404,spanish_cond2,001,1056,
images/ear.jpg,bullet,x,sounds/animalfarm_english.wav,,,,,,,,,0,1,1,1,0,24,24,139,631.28179667,8.98016151041e-06,631.945811182,0.66402381286,,,,,x,1,0.650415591081,2018_Nov_27_1533,59.9871097404,spanish_cond2,001,1056,
images/dresser02.jpg,dresser,z,sounds/animalfarm_english.wav,,,,,,,,,0,1,1,1,0,25,25,87,633.067589533,3.07892914861e-05,634.063032077,0.99546339165,,,,,z,1,0.983847813797,2018_Nov_27_1533,59.9871097404,spanish_cond2,001,1056,
images/apple06.jpg,apple,z,sounds/animalfarm_english.wav,,,,,,,,,0,1,1,1,0,26,26,13,635.188235094,9.30088572204e-06,636.063533045,0.875308213523,,,,,z,1,0.867149374215,2018_Nov_27_1533,59.9871097404,spanish_cond2,001,1056,
images/atm.jpg,atm,z,sounds/animalfarm_english.wav,,,,,,,,,0,1,1,1,0,27,27,96,637.200399427,8.65943729877e-06,637.863987058,0.663597253035,,,,,z,1,0.650417836267,2018_Nov_27_1533,59.9871097404,spanish_cond2,001,1056,
images/graduationcap.jpg,graduation cap,z,sounds/animalfarm_english.wav,,,,,,,,,0,1,1,1,0,28,28,35,638.963914318,9.94233414531e-06,639.697782658,0.733878602972,,,,,z,1,0.71711095178,2018_Nov_27_1533,59.9871097404,spanish_cond2,001,1056,
images/floorlamp.jpg,floor lamp,z,sounds/animalfarm_english.wav,,,,,,,,,0,1,1,1,0,29,29,26,640.788824965,8.98027792573e-06,641.464894123,0.676079100231,,,,,z,1,0.667093119584,2018_Nov_27_1533,59.9871097404,spanish_cond2,001,1056,
images/globe.jpg,cloud,x,sounds/animalfarm_english.wav,,,,,,,,,0,1,1,1,0,30,30,154,642.591143655,9.62160993367e-06,643.615432551,1.0242985175,,,,,x,1,1.0005000052,2018_Nov_27_1533,59.9871097404,spanish_cond2,001,1056,
images/watermelon01.jpg,orange,x,sounds/animalfarm_english.wav,,,,,,,,,0,1,1,1,0,31,31,207,644.744011484,9.30088572204e-06,645.715984577,0.971983035095,,,,,x,1,0.950507509988,2018_Nov_27_1533,59.9871097404,spanish_cond2,001,1056,
images/cocktailshrimp01.jpg,cocktail shrimp,z,sounds/animalfarm_english.wav,,,,,,,,,0,1,1,1,0,32,32,30,646.828464564,9.30100213736e-06,647.549779857,0.721325234976,,,,,z,1,0.700451062992,2018_Nov_27_1533,59.9871097404,spanish_cond2,001,1056,
images/cauliflower01.jpg,glue stick,x,sounds/animalfarm_english.wav,,,,,,,,,0,1,1,1,0,33,33,181,648.663805722,9.30100213736e-06,649.483586746,0.819791607908,,,,,x,1,0.800459786667,2018_Nov_27_1533,59.9871097404,spanish_cond2,001,1056,
images/dragonfly02.jpg,dragon fly,z,sounds/animalfarm_english.wav,,,,,,,,,0,1,1,1,0,34,34,29,650.580345597,9.30088572204e-06,651.584123057,1.00378740253,,,,,z,1,0.983842361369,2018_Nov_27_1533,59.9871097404,spanish_cond2,001,1056,
images/parrot01.jpg,chameleon,x,sounds/animalfarm_english.wav,,,,,,,,,0,1,1,1,0,35,35,150,652.695135421,9.30088572204e-06,654.218134375,1.52300921618,,,,,x,1,1.50064753706,2018_Nov_27_1533,59.9871097404,spanish_cond2,001,1056,
images/teapot.jpg,light switch,x,sounds/animalfarm_english.wav,,,,,,,,,0,1,1,1,0,36,36,197,655.333511441,9.62160993367e-06,656.452032542,1.11853136402,,,,,x,1,1.10054753604,2018_Nov_27_1533,59.9871097404,spanish_cond2,001,1056,
images/raisin.jpg,ruler,x,sounds/animalfarm_english.wav,,,,,,,,,0,1,1,1,0,37,37,218,657.556472998,9.30100213736e-06,658.319157862,0.762694485718,,,,,x,1,0.750440671691,2018_Nov_27_1533,59.9871097404,spanish_cond2,001,1056,
images/gluestick.jpg,squirrel,x,sounds/animalfarm_english.wav,,,,,,,,,0,1,1,1,0,38,38,226,659.424648361,8.98027792573e-06,660.203034476,0.778396058013,,,,,x,1,0.767168232705,2018_Nov_27_1533,59.9871097404,spanish_cond2,001,1056,
images/tank.jpg,wallet,x,sounds/animalfarm_english.wav,,,,,,,,,0,1,1,1,0,39,39,237,661.306011479,8.6595537141e-06,662.33683508,1.03083258076,,,,,x,1,1.01717400562,2018_Nov_27_1533,59.9871097404,spanish_cond2,001,1056,
images/doorhandle.jpg,doll,x,sounds/animalfarm_english.wav,,,,,,,,,0,1,1,1,0,40,40,168,663.438365628,9.30088572204e-06,664.520719584,1.08236389852,,,,,x,1,1.06717932958,2018_Nov_27_1533,59.9871097404,spanish_cond2,001,1056,
images/lettuce.jpg,mushroom,x,sounds/animalfarm_english.wav,,,,,,,,,0,1,1,1,0,41,41,205,665.642207681,8.98016151041e-06,667.571495923,1.92929786316,,,,,x,1,1.91740293673,2018_Nov_27_1533,59.9871097404,spanish_cond2,001,1056,
images/lightswitch02a.jpg,fork,x,sounds/animalfarm_english.wav,,,,,,,,,0,1,1,1,0,42,42,177,668.681741763,9.30100213736e-06,669.471973093,0.790241272538,,,,,x,1,0.767102484708,2018_Nov_27_1533,59.9871097404,spanish_cond2,001,1056,
images/clothespin02a.jpg,clothes pin,z,sounds/animalfarm_english.wav,,,,,,,,,0,1,1,1,0,43,43,79,670.574725591,8.98016151041e-06,672.089310089,1.51459444093,,,,,z,1,1.50063374615,2018_Nov_27_1533,59.9871097404,spanish_cond2,001,1056,
images/notebook02b.jpg,notebook,z,sounds/animalfarm_english.wav,,,,,,,,,0,1,1,1,0,44,44,7,673.193959976,9.62160993367e-06,674.356565558,1.16261584463,,,,,z,1,1.15054644563,2018_Nov_27_1533,59.9871097404,spanish_cond2,001,1056,
images/bed.jpg,bed,z,sounds/animalfarm_english.wav,,,,,,,,,0,1,1,1,0,45,45,103,675.475707897,9.62160993367e-06,676.507099816,1.03140218242,,,,,z,1,1.0171858723,2018_Nov_27_1533,59.9871097404,spanish_cond2,001,1056,
images/flower01.jpg,bus,x,sounds/animalfarm_english.wav,,,,,,,,,0,1,1,1,0,46,46,140,677.620946719,8.98016151041e-06,679.207778912,1.58684213564,,,,,x,1,1.56731948501,2018_Nov_27_1533,59.9871097404,spanish_cond2,001,1056,
images/mitten01.jpg,mitten,z,sounds/animalfarm_english.wav,,,,,,,,,0,1,1,1,0,47,47,102,680.326243566,9.30088572204e-06,681.20827988,0.882046576473,,,,,z,1,0.867140714778,2018_Nov_27_1533,59.9871097404,spanish_cond2,001,1056,
images/egg01b (1).jpg,egg,z,sounds/animalfarm_english.wav,,,,,,,,,0,1,1,1,0,48,48,19,682.318972164,9.94233414531e-06,683.24212981,0.923167909379,,,,,x,0,0.900482622092,2018_Nov_27_1533,59.9871097404,spanish_cond2,001,1056,
images/apricot.jpg,apricot,z,sounds/animalfarm_english.wav,,,,,,,,,0,1,1,1,0,49,49,32,684.357040868,9.62160993367e-06,685.259322418,0.902293095947,,,,,z,1,0.883824978257,2018_Nov_27_1533,59.9871097404,spanish_cond2,001,1056,
images/baseball01a.jpg,baseball,z,sounds/animalfarm_english.wav,,,,,,,,,0,1,1,1,0,50,50,74,686.389700279,8.6595537141e-06,687.643244254,1.25355359644,,,,,z,1,1.23389944981,2018_Nov_27_1533,59.9871097404,spanish_cond2,001,1056,
images/licenseplate.jpg,license plate,z,sounds/animalfarm_english.wav,,,,,,,,,0,1,1,1,0,51,51,40,688.759605936,8.98016151041e-06,690.060520185,1.30092483305,,,,,z,1,1.2839076604,2018_Nov_27_1533,59.9871097404,spanish_cond2,001,1056,
images/grasshopper.jpg,cauliflower,x,sounds/animalfarm_english.wav,,,,,,,,,0,1,1,1,0,52,52,148,691.15310388,9.30088572204e-06,691.894319634,0.741225695703,,,,,x,1,0.717100047157,2018_Nov_27_1533,59.9871097404,spanish_cond2,001,1056,
images/ceilingfan02.jpg,paper clip,x,sounds/animalfarm_english.wav,,,,,,,,,0,1,1,1,0,53,53,208,692.991210622,9.30088572204e-06,693.828144163,0.836943804403,,,,,x,1,0.817125769099,2018_Nov_27_1533,59.9871097404,spanish_cond2,001,1056,
images/snowman.jpg,globe,x,sounds/animalfarm_english.wav,,,,,,,,,0,1,1,1,0,54,54,180,694.937305001,8.98027792573e-06,696.062053235,1.12475817581,,,,,x,1,1.10053470719,2018_Nov_27_1533,59.9871097404,spanish_cond2,001,1056,
images/parkingmeter.jpg,ear,x,sounds/animalfarm_english.wav,,,,,,,,,0,1,1,1,0,55,55,171,697.162335534,8.98027792573e-06,697.929178234,0.766852321802,,,,,x,1,0.750438426621,2018_Nov_27_1533,59.9871097404,spanish_cond2,001,1056,
images/lollipop03b.jpg,lollipop,z,sounds/animalfarm_english.wav,,,,,,,,,0,1,1,1,0,56,56,42,699.020773465,8.65943729877e-06,699.863039326,0.842275161296,,,,,z,1,0.833835369791,2018_Nov_27_1533,59.9871097404,spanish_cond2,001,1056,
images/panda.jpg,panda,z,sounds/animalfarm_english.wav,,,,,,,,,0,1,1,1,0,57,57,83,700.972205937,9.62160993367e-06,701.880170034,0.907973718829,,,,,z,1,0.883796113427,2018_Nov_27_1533,59.9871097404,spanish_cond2,001,1056,
images/sportshorts02.jpg,tape,x,sounds/animalfarm_english.wav,,,,,,,,,0,1,1,1,0,58,58,230,702.986405569,9.30100213736e-06,704.097404463,1.11100947799,,,,,x,1,1.1005295756,2018_Nov_27_1533,59.9871097404,spanish_cond2,001,1056,
images/ashtray02b.jpg,ashtray,z,sounds/animalfarm_english.wav,,,,,,,,,0,1,1,1,0,59,59,43,705.211177921,9.30088572204e-06,706.481345864,1.2701782058,,,,,z,1,1.25054907554,2018_Nov_27_1533,59.9871097404,spanish_cond2,001,1056,
images/broadsword.jpg,teapot,x,sounds/animalfarm_english.wav,,,,,,,,,0,1,1,1,0,60,60,231,707.572459371,8.98027792573e-06,708.415163016,0.842713587801,,,,,x,1,0.833791110083,2018_Nov_27_1533,59.9871097404,spanish_cond2,001,1056,
images/eraser.jpg,eraser,z,sounds/animalfarm_english.wav,,,,,,,,,0,1,1,1,0,61,61,110,709.519943438,9.30088572204e-06,710.26564705,0.745714837336,,,,,z,1,0.733787838719,2018_Nov_27_1533,59.9871097404,spanish_cond2,001,1056,
images/bench02.jpg,electric toothbrush,x,sounds/animalfarm_english.wav,,,,,,,,,0,1,1,1,0,62,62,172,711.375978843,9.30100213736e-06,712.733104702,1.35713612195,,,,,x,1,1.33410509664,2018_Nov_27_1533,59.9871097404,spanish_cond2,001,1056,
images/blueberry02.jpg,blueberry,z,sounds/animalfarm_english.wav,,,,,,,,,0,1,1,1,0,63,63,46,713.844113859,9.30088572204e-06,715.150199745,1.30609582912,,,,,z,1,1.28390605678,2018_Nov_27_1533,59.9871097404,spanish_cond2,001,1056,
images/key03b.jpg,cigar,x,sounds/animalfarm_english.wav,,,,,,,,,0,1,1,1,0,64,64,153,716.249882616,9.62160993367e-06,717.550807128,1.3009347755,,,,,x,1,1.2839076604,2018_Nov_27_1533,59.9871097404,spanish_cond2,001,1056,
images/knife04.jpg,tooth brush,x,sounds/animalfarm_english.wav,,,,,,,,,0,1,1,1,0,65,65,233,718.646343067,9.30088572204e-06,719.634672966,0.988340162556,,,,,x,1,0.967159380787,2018_Nov_27_1533,59.9871097404,spanish_cond2,001,1056,
images/axe01.jpg,axe,z,sounds/animalfarm_english.wav,,,,,,,,,0,1,1,1,0,66,66,104,720.736904291,9.62160993367e-06,721.752115801,1.01524037449,,,,,z,1,1.00065683806,2018_Nov_27_1533,59.9871097404,spanish_cond2,001,1056,
images/cigar.jpg,crocodile,x,sounds/animalfarm_english.wav,,,,,,,,,0,1,1,1,0,67,67,162,722.848949059,9.30088572204e-06,723.735711528,0.886772731435,,,,,x,1,0.867133658845,2018_Nov_27_1533,59.9871097404,spanish_cond2,001,1056,
images/remotecontrol01c.jpg,remote control,z,sounds/animalfarm_english.wav,,,,,,,,,0,1,1,1,0,68,68,85,724.845464739,8.98027792573e-06,726.036288377,1.19083326065,,,,,z,1,1.16721371096,2018_Nov_27_1533,59.9871097404,spanish_cond2,001,1056,
images/candycane01a.jpg,lip,x,sounds/animalfarm_english.wav,,,,,,,,,0,1,1,1,0,69,69,200,727.129902231,9.621726349e-06,728.937033991,1.80714170262,,,,,x,1,1.78405006079,2018_Nov_27_1533,59.9871097404,spanish_cond2,001,1056,
images/candy.jpg,candy,z,sounds/animalfarm_english.wav,,,,,,,,,0,1,1,1,0,70,70,31,730.037457087,9.30088572204e-06,730.937527582,0.900080436957,,,,,z,1,0.883798037772,2018_Nov_27_1533,59.9871097404,spanish_cond2,001,1056,
images/donut.jpg,rhinoceros,x,sounds/animalfarm_english.wav,,,,,,,,,0,1,1,1,0,71,71,216,732.062398331,9.62160993367e-06,733.354814738,1.29242634948,,,,,x,1,1.28391664056,2018_Nov_27_1533,59.9871097404,spanish_cond2,001,1056,
images/lantern03.jpg,lantern,z,sounds/animalfarm_english.wav,,,,,,,,,0,1,1,1,0,72,72,5,734.459802346,9.621726349e-06,735.672087719,1.21229659836,,,,,z,1,1.20055401465,2018_Nov_27_1533,59.9871097404,spanish_cond2,001,1056,
images/barrel01.jpg,barrel,z,sounds/animalfarm_english.wav,,,,,,,,,0,1,1,1,0,73,73,9,736.800628807,3.68829350919e-05,737.572540834,0.771927421913,,,,,z,1,0.750438426505,2018_Nov_27_1533,59.9871097404,spanish_cond2,001,1056,
images/cola.jpg,comb,x,sounds/animalfarm_english.wav,,,,,,,,,0,1,1,1,0,74,74,157,738.692037571,8.65943729877e-06,739.73976994,1.04774199089,,,,,x,1,1.03385762777,2018_Nov_27_1533,59.9871097404,spanish_cond2,001,1056,
images/dreamcatcher.jpg,dream catcher,z,sounds/animalfarm_english.wav,,,,,,,,,0,1,1,1,0,75,75,48,740.837245604,9.30088572204e-06,741.99033441,1.1530990696,,,,,z,1,1.133856409,2018_Nov_27_1533,59.9871097404,spanish_cond2,001,1056,
images/ladder.jpg,ladder,z,sounds/animalfarm_english.wav,,,,,,,,,0,1,1,1,0,76,76,113,743.081768318,9.30100213736e-06,744.741032942,1.65927456599,,,,,z,1,1.65066158469,2018_Nov_27_1533,59.9871097404,spanish_cond2,001,1056,
images/gamecontroller01.jpg,game controller,z,sounds/animalfarm_english.wav,,,,,,,,,0,1,1,1,0,77,77,112,745.859191307,9.30088572204e-06,746.574817958,0.71563627338,,,,,z,1,0.700424443115,2018_Nov_27_1533,59.9871097404,spanish_cond2,001,1056,
images/diaper01a.jpg,camera,x,sounds/animalfarm_english.wav,,,,,,,,,0,1,1,1,0,78,78,143,747.693044316,8.98027792573e-06,748.958765773,1.26573172014,,,,,x,1,1.25057601614,2018_Nov_27_1533,59.9871097404,spanish_cond2,001,1056,
images/hat05.jpg,hat,z,sounds/animalfarm_english.wav,,,,,,,,,0,1,1,1,0,79,79,15,750.062214237,9.621726349e-06,751.159147239,1.09694358637,,,,,z,1,1.0836891206,2018_Nov_27_1533,59.9871097404,spanish_cond2,001,1056,
images/camera01a.jpg,bull,x,sounds/animalfarm_english.wav,,,,,,,,,0,1,1,1,0,80,80,138,752.270112779,9.621726349e-06,753.709983874,1.43988103792,,,,,x,1,1.41730447521,2018_Nov_27_1533,59.9871097404,spanish_cond2,001,1056,
images/paintbrush03a.jpg,paint brush,z,sounds/animalfarm_english.wav,,,,,,,,,0,1,1,1,0,81,81,0,754.808967892,9.94233414531e-06,755.877174493,1.06821718498,,,,,z,1,1.05051655439,2018_Nov_27_1533,59.9871097404,spanish_cond2,001,1056,
images/volleyball.jpg,volley ball,z,sounds/animalfarm_english.wav,,,,,,,,,0,1,1,1,0,82,82,2,757.007887829,9.30088572204e-06,758.161091454,1.15321388794,,,,,z,1,1.13386923785,2018_Nov_27_1533,59.9871097404,spanish_cond2,001,1056,
images/tie01.jpg,bench,x,sounds/animalfarm_english.wav,,,,,,,,,0,1,1,1,0,83,83,130,759.258254735,9.30088572204e-06,760.528348912,1.27010347764,,,,,x,1,1.25056254584,2018_Nov_27_1533,59.9871097404,spanish_cond2,001,1056,
images/flipflop01b.jpg,flip flop,z,sounds/animalfarm_english.wav,,,,,,,,,0,1,1,1,0,84,84,27,761.644850428,9.62160993367e-06,762.378847057,0.73400721245,,,,,z,1,0.717125063529,2018_Nov_27_1533,59.9871097404,spanish_cond2,001,1056,
images/lip.jpg,boxing glove,x,sounds/animalfarm_english.wav,,,,,,,,,0,1,1,1,0,85,85,136,763.481919635,9.30088572204e-06,764.446012595,0.964103544364,,,,,x,1,0.950495964033,2018_Nov_27_1533,59.9871097404,spanish_cond2,001,1056,
images/cloud.jpg,ceiling fan,x,sounds/animalfarm_english.wav,,,,,,,,,0,1,1,1,0,86,86,149,765.549842077,9.621726349e-06,766.996660646,1.44682851143,,,,,x,1,1.43394993152,2018_Nov_27_1533,59.9871097404,spanish_cond2,001,1056,
images/feather03b.jpg,feather,z,sounds/animalfarm_english.wav,,,,,,,,,0,1,1,1,0,87,87,114,768.097095288,9.30088572204e-06,768.997162254,0.900076908991,,,,,z,1,0.883805735037,2018_Nov_27_1533,59.9871097404,spanish_cond2,001,1056,
images/highlighter03b.jpg,coin,x,sounds/animalfarm_english.wav,,,,,,,,,0,1,1,1,0,88,88,156,770.100115845,8.98027792573e-06,771.397770599,1.29766469705,,,,,x,1,1.2839076604,2018_Nov_27_1533,59.9871097404,spanish_cond2,001,1056,
images/aquarium.jpg,computer mouse,x,sounds/animalfarm_english.wav,,,,,,,,,0,1,1,1,0,89,89,159,772.533007715,9.30100213736e-06,773.765040886,1.23204279202,,,,,x,1,1.2172334675,2018_Nov_27_1533,59.9871097404,spanish_cond2,001,1056,
images/daisy.jpg,daisy,z,sounds/animalfarm_english.wav,,,,,,,,,0,1,1,1,0,90,90,6,774.865319978,9.62160993367e-06,775.782230927,0.916921533528,,,,,z,1,0.900499940966,2018_Nov_27_1533,59.9871097404,spanish_cond2,001,1056,
images/8ball.jpg,nail clipper,x,sounds/animalfarm_english.wav,,,,,,,,,0,1,1,1,0,91,91,206,776.899451181,8.98016151041e-06,779.449828542,2.55038730346,,,,,x,1,2.5342412109,2018_Nov_27_1533,59.9871097404,spanish_cond2,001,1056,
images/djmixer01.jpg,light bulb,x,sounds/animalfarm_english.wav,,,,,,,,,0,1,1,1,0,92,92,196,780.569796739,8.98027792573e-06,782.717312365,2.14752492658,,,,,x,1,2.13414024771,2018_Nov_27_1533,59.9871097404,spanish_cond2,001,1056,
images/chessknight02b (1).jpg,cockroach,x,sounds/animalfarm_english.wav,,,,,,,,,0,1,1,1,0,93,93,155,783.824642203,9.30100213736e-06,785.134586692,1.30995411123,,,,,x,1,1.30058871675,2018_Nov_27_1533,59.9871097404,spanish_cond2,001,1056,
images/toucan.jpg,toucan,z,sounds/animalfarm_english.wav,,,,,,,,,0,1,1,1,0,94,94,81,786.233537676,8.98016151041e-06,787.901948962,1.66842090746,,,,,z,1,1.65067120641,2018_Nov_27_1533,59.9871097404,spanish_cond2,001,1056,
images/banjo.jpg,knife,x,sounds/animalfarm_english.wav,,,,,,,,,0,1,1,1,0,95,95,191,788.996950578,8.98016151041e-06,790.602625492,1.6056848563,,,,,x,1,1.58397199714,2018_Nov_27_1533,59.9871097404,spanish_cond2,001,1056,
images/bowl02b (1).jpg,bowl,z,sounds/animalfarm_english.wav,,,,,,,,,0,1,1,1,0,96,96,24,791.719634069,9.62160993367e-06,792.603134157,0.883510350366,,,,,z,1,0.867134941742,2018_Nov_27_1533,59.9871097404,spanish_cond2,001,1056,
images/coin01b.jpg,arrow,x,sounds/animalfarm_english.wav,,,,,,,,,0,1,1,1,0,97,97,124,793.704748092,9.94233414531e-06,795.237147719,1.53241021081,,,,,x,1,1.51731191599,2018_Nov_27_1533,59.9871097404,spanish_cond2,001,1056,
images/hairdryer03a.jpg,hairdryer,z,sounds/animalfarm_english.wav,,,,,,,,,0,1,1,1,0,98,98,119,796.334963669,9.621726349e-06,797.287661066,0.952707340242,,,,,z,1,0.933810738265,2018_Nov_27_1533,59.9871097404,spanish_cond2,001,1056,
images/electricguitar02.jpg,electric guitar,z,sounds/animalfarm_english.wav,,,,,,,,,0,1,1,1,0,99,99,100,798.388431504,8.98016151041e-06,800.788373389,2.3999518276,,,,,z,1,2.38401869417,2018_Nov_27_1533,59.9871097404,spanish_cond2,001,1056,
images/birthdaycandle.jpg,birthday candle,z,sounds/animalfarm_english.wav,,,,,,,,,0,1,1,1,0,100,100,55,801.883075452,9.30088572204e-06,802.588992575,0.705926744617,,,,,z,1,0.683745311107,2018_Nov_27_1533,59.9871097404,spanish_cond2,001,1056,
images/swan.jpg,swan,z,sounds/animalfarm_english.wav,,,,,,,,,0,1,1,1,0,101,101,54,803.679138785,9.30100213736e-06,804.772893115,1.09376459289,,,,,z,1,1.08387096983,2018_Nov_27_1533,59.9871097404,spanish_cond2,001,1056,
images/lamp04b.jpg,parking meter,x,sounds/animalfarm_english.wav,,,,,,,,,0,1,1,1,0,102,102,209,805.893532583,9.62160993367e-06,806.739878985,0.846356665599,,,,,x,1,0.833631390706,2018_Nov_27_1533,59.9871097404,spanish_cond2,001,1056,
images/corkscrew02a.jpg,masquerade mask,x,sounds/animalfarm_english.wav,,,,,,,,,0,1,1,1,0,103,103,201,807.84343906,9.94245056063e-06,808.840580468,0.997152632801,,,,,x,1,0.983824080322,2018_Nov_27_1533,59.9871097404,spanish_cond2,001,1056,
images/croissant02b.jpg,croissant,z,sounds/animalfarm_english.wav,,,,,,,,,0,1,1,1,0,104,104,39,809.951137407,9.94233414531e-06,810.857781735,0.906654590392,,,,,z,1,0.883815356647,2018_Nov_27_1533,59.9871097404,spanish_cond2,001,1056,
images/bracelet02a.jpg,chess knight,x,sounds/animalfarm_english.wav,,,,,,,,,0,1,1,1,0,105,105,152,811.965367509,9.62160993367e-06,812.70825358,0.742896335083,,,,,x,1,0.733805799158,2018_Nov_27_1533,59.9871097404,spanish_cond2,001,1056,
images/radio03a.jpg,radio,z,sounds/animalfarm_english.wav,,,,,,,,,0,1,1,1,0,106,106,37,813.820169418,1.18667958304e-05,814.542017109,0.721858274424,,,,,z,1,0.70042476384,2018_Nov_27_1533,59.9871097404,spanish_cond2,001,1056,
images/bandaid01.jpg,door handle,x,sounds/animalfarm_english.wav,,,,,,,,,0,1,1,1,0,107,107,170,815.646943779,9.621726349e-06,816.292471251,0.645537734847,,,,,x,1,0.633757626754,2018_Nov_27_1533,59.9871097404,spanish_cond2,001,1056,
images/handbag02a.jpg,candle,x,sounds/animalfarm_english.wav,,,,,,,,,0,1,1,1,0,108,108,144,817.40745415,9.30088572204e-06,818.292970935,0.885527369101,,,,,x,1,0.867058930686,2018_Nov_27_1533,59.9871097404,spanish_cond2,001,1056,
images/triangleruler02.jpg,bottle of red wine,x,sounds/animalfarm_english.wav,,,,,,,,,0,1,1,1,0,109,109,134,819.402890921,9.621726349e-06,820.3268276,0.923946621711,,,,,x,1,0.900481339195,2018_Nov_27_1533,59.9871097404,spanish_cond2,001,1056,
images/bottleofredwine02.jpg,pipe,x,sounds/animalfarm_english.wav,,,,,,,,,0,1,1,1,0,110,110,213,821.423872214,9.30100213736e-06,822.394005647,0.970143054728,,,,,x,1,0.950475758524,2018_Nov_27_1533,59.9871097404,spanish_cond2,001,1056,
images/hammer02a.jpg,flower,x,sounds/animalfarm_english.wav,,,,,,,,,0,1,1,1,0,111,111,176,823.487778579,8.98016151041e-06,824.311170609,0.823401330621,,,,,x,1,0.800464918255,2018_Nov_27_1533,59.9871097404,spanish_cond2,001,1056,
images/lemon02.jpg,lemon,z,sounds/animalfarm_english.wav,,,,,,,,,0,1,1,1,0,112,112,14,825.42144403,8.98016151041e-06,826.178288873,0.756855105632,,,,,z,1,0.733763143187,2018_Nov_27_1533,59.9871097404,spanish_cond2,001,1056,
images/pouch01b.jpg,pouch,z,sounds/animalfarm_english.wav,,,,,,,,,0,1,1,1,0,113,113,25,827.288863452,8.6595537141e-06,828.395537414,1.10668390442,,,,,z,1,1.08386936621,2018_Nov_27_1533,59.9871097404,spanish_cond2,001,1056,
images/antelope.jpg,antelope,z,sounds/animalfarm_english.wav,,,,,,,,,0,1,1,1,0,114,114,12,829.499618341,8.98016151041e-06,830.479383047,0.979774327367,,,,,z,1,0.967162908637,2018_Nov_27_1533,59.9871097404,spanish_cond2,001,1056,
images/cat.jpg,black olive,x,sounds/animalfarm_english.wav,,,,,,,,,0,1,1,1,0,115,115,133,831.608900412,9.62160993367e-06,833.746892527,2.13800205768,,,,,x,1,2.11746688862,2018_Nov_27_1533,59.9871097404,spanish_cond2,001,1056,
images/rhinoceros01.jpg,envelope,x,sounds/animalfarm_english.wav,,,,,,,,,0,1,1,1,0,116,116,173,834.859457506,9.30100213736e-06,836.981037329,2.12158944551,,,,,x,1,2.10079320881,2018_Nov_27_1533,59.9871097404,spanish_cond2,001,1056,
images/bat.jpg,hand,x,sounds/animalfarm_english.wav,,,,,,,,,0,1,1,1,0,117,117,185,838.077887586,9.30100213736e-06,839.214937421,1.13706009812,,,,,x,1,1.11720453831,2018_Nov_27_1533,59.9871097404,spanish_cond2,001,1056,
images/weight01.jpg,weight,z,sounds/animalfarm_english.wav,,,,,,,,,0,1,1,1,0,118,118,67,840.31963253,9.30100213736e-06,841.69888562,1.37926239148,,,,,z,1,1.36726098543,2018_Nov_27_1533,59.9871097404,spanish_cond2,001,1056,
images/mattress.jpg,cat,x,sounds/animalfarm_english.wav,,,,,,,,,0,1,1,1,0,119,119,147,842.802107975,8.98016151041e-06,843.599365677,0.797267322778,,,,,x,1,0.783766863518,2018_Nov_27_1533,59.9871097404,spanish_cond2,001,1056,
images/calculator02b.jpg,dice,x,sounds/animalfarm_english.wav,,,,,,,,,0,1,1,1,0,120,120,165,844.700291343,9.30088572204e-06,846.850213665,2.14993226354,,,,,x,1,2.13414249278,2018_Nov_27_1533,59.9871097404,spanish_cond2,001,1056,
images/cookingpot.jpg,grasshopper,x,sounds/animalfarm_english.wav,,,,,,,,,0,1,1,1,0,121,121,183,847.962412379,9.30088572204e-06,848.817351878,0.854949762113,,,,,x,1,0.833785016439,2018_Nov_27_1533,59.9871097404,spanish_cond2,001,1056,
images/treadmill.jpg,lily,x,sounds/animalfarm_english.wav,,,,,,,,,0,1,1,1,0,122,122,199,849.921708305,9.30088572204e-06,851.41803091,1.49633254739,,,,,x,1,1.48396166996,2018_Nov_27_1533,59.9871097404,spanish_cond2,001,1056,
images/belt02a.jpg,snowman,x,sounds/animalfarm_english.wav,,,,,,,,,0,1,1,1,0,123,123,224,852.520234011,9.94245056063e-06,853.768616291,1.24839254282,,,,,x,1,1.23388726241,2018_Nov_27_1533,59.9871097404,spanish_cond2,001,1056,
images/razor04a.jpg,razor,z,sounds/animalfarm_english.wav,,,,,,,,,0,1,1,1,0,124,124,36,854.866948282,9.30100213736e-06,857.586243027,2.719305009,,,,,z,1,2.70092092035,2018_Nov_27_1533,59.9871097404,spanish_cond2,001,1056,
images/table02.jpg,table,z,sounds/animalfarm_english.wav,,,,,,,,,0,1,1,1,0,125,125,49,858.700155678,9.30088572204e-06,859.853727812,1.15358175582,,,,,z,1,1.13411138277,2018_Nov_27_1533,59.9871097404,spanish_cond2,001,1056,
images/lighter02b.jpg,stapler,x,sounds/animalfarm_english.wav,,,,,,,,,0,1,1,1,0,126,126,227,860.954224033,9.621726349e-06,862.620859804,1.66664635437,,,,,x,1,1.65067441366,2018_Nov_27_1533,59.9871097404,spanish_cond2,001,1056,
images/lion.jpg,lion,z,sounds/animalfarm_english.wav,,,,,,,,,0,1,1,1,0,127,127,44,863.732082882,9.62160993367e-06,865.088142662,1.35606972233,,,,,z,1,1.33391138073,2018_Nov_27_1533,59.9871097404,spanish_cond2,001,1056,
images/plate01b.jpg,plate,z,sounds/animalfarm_english.wav,,,,,,,,,0,1,1,1,0,128,128,3,866.186031095,9.30088572204e-06,866.921937942,0.735916789388,,,,,z,1,0.717093953514,2018_Nov_27_1533,59.9871097404,spanish_cond2,001,1056,
images/mirror02.jpg,8 ball,x,sounds/animalfarm_english.wav,,,,,,,,,0,1,1,1,0,129,129,121,868.022236918,9.30088572204e-06,869.355897495,1.33366987726,,,,,x,1,1.31725501991,2018_Nov_27_1533,59.9871097404,spanish_cond2,001,1056,
images/aloe02.jpg,broad sword,x,sounds/animalfarm_english.wav,,,,,,,,,0,1,1,1,0,130,130,137,870.478505873,9.30100213736e-06,871.57312102,1.09462573065,,,,,x,1,1.08386776259,2018_Nov_27_1533,59.9871097404,spanish_cond2,001,1056,
images/fork01.jpg,cooking pot,x,sounds/animalfarm_english.wav,,,,,,,,,0,1,1,1,0,131,131,160,872.667139945,9.621726349e-06,873.373589787,0.706460425514,,,,,x,1,0.683770647971,2018_Nov_27_1533,59.9871097404,spanish_cond2,001,1056,
images/parkbench03.jpg,park bench,z,sounds/animalfarm_english.wav,,,,,,,,,0,1,1,1,0,132,132,71,874.479280095,8.98027792573e-06,875.390747115,0.911476961919,,,,,z,1,0.900481018354,2018_Nov_27_1533,59.9871097404,spanish_cond2,001,1056,
images/hairband.jpg,hairband,z,sounds/animalfarm_english.wav,,,,,,,,,0,1,1,1,0,133,133,66,876.500458632,9.621726349e-06,877.341251738,0.840803369414,,,,,z,1,0.81712961779,2018_Nov_27_1533,59.9871097404,spanish_cond2,001,1056,
images/doll.jpg,carrot,x,sounds/animalfarm_english.wav,,,,,,,,,0,1,1,1,0,134,134,146,878.452325681,8.98016151041e-06,880.175291408,1.72297598945,,,,,x,1,1.70067556819,2018_Nov_27_1533,59.9871097404,spanish_cond2,001,1056,
images/battery03b.jpg,battery,z,sounds/animalfarm_english.wav,,,,,,,,,0,1,1,1,0,135,135,34,881.284519918,8.65943729877e-06,882.792633856,1.50812355988,,,,,z,1,1.48396455636,2018_Nov_27_1533,59.9871097404,spanish_cond2,001,1056,
images/dolphin01.jpg,dolphin,z,sounds/animalfarm_english.wav,,,,,,,,,0,1,1,1,0,136,136,99,883.894582305,9.621726349e-06,884.659761101,0.765189059079,,,,,z,1,0.750428484287,2018_Nov_27_1533,59.9871097404,spanish_cond2,001,1056,
images/elbow.jpg,elbow,z,sounds/animalfarm_english.wav,,,,,,,,,0,1,1,1,0,137,137,105,885.773582346,8.98027792573e-06,886.760303185,0.986730781035,,,,,x,0,0.967146551935,2018_Nov_27_1533,59.9871097404,spanish_cond2,001,1056,
images/computermouse02a.jpg,world map,x,sounds/animalfarm_english.wav,,,,,,,,,0,1,1,1,0,138,138,239,887.862359075,9.30088572204e-06,890.661293188,2.79894437664,,,,,x,1,2.78430022381,2018_Nov_27_1533,59.9871097404,spanish_cond2,001,1056,
images/puzzle.jpg,puzzle,z,sounds/animalfarm_english.wav,,,,,,,,,0,1,1,1,0,139,139,57,891.782922083,9.30088572204e-06,892.595100399,0.812188258511,,,,,z,1,0.800452410011,2018_Nov_27_1533,59.9871097404,spanish_cond2,001,1056,
images/hairpin.jpg,hair pin,z,sounds/animalfarm_english.wav,,,,,,,,,0,1,1,1,0,140,140,28,893.685995815,9.94245056063e-06,894.495580776,0.809595544357,,,,,z,1,0.800455617253,2018_Nov_27_1533,59.9871097404,spanish_cond2,001,1056,
images/tape01a.jpg,tie,x,sounds/animalfarm_english.wav,,,,,,,,,0,1,1,1,0,141,141,232,895.621403427,9.30088572204e-06,898.196517091,2.57512360613,,,,,x,1,2.55088634649,2018_Nov_27_1533,59.9871097404,spanish_cond2,001,1056,
images/screw03c.jpg,screw,z,sounds/animalfarm_english.wav,,,,,,,,,0,1,1,1,0,142,142,84,899.291062961,9.94233414531e-06,901.030567985,1.73951496615,,,,,z,1,1.71734764439,2018_Nov_27_1533,59.9871097404,spanish_cond2,001,1056,
images/masquerademask02b.jpg,mirror,x,sounds/animalfarm_english.wav,,,,,,,,,0,1,1,1,0,143,143,204,902.13598119,8.98016151041e-06,903.014423176,0.878451606841,,,,,x,1,0.867151619168,2018_Nov_27_1533,59.9871097404,spanish_cond2,001,1056,
images/envelope02a.jpg,grand piano,x,sounds/animalfarm_english.wav,,,,,,,,,0,1,1,1,0,144,144,182,904.137844583,9.621726349e-06,905.131623544,0.993788903579,,,,,x,1,0.983843965107,2018_Nov_27_1533,59.9871097404,spanish_cond2,001,1056,
images/orange.jpg,bat,x,sounds/animalfarm_english.wav,,,,,,,,,0,1,1,1,0,145,145,128,906.257044011,8.98027792573e-06,907.332174993,1.07514124585,,,,,x,1,1.05051623366,2018_Nov_27_1533,59.9871097404,spanish_cond2,001,1056,
images/arrow02.jpg,hammer,x,sounds/animalfarm_english.wav,,,,,,,,,0,1,1,1,0,146,146,184,908.429342764,9.62160993367e-06,909.482715345,1.05338316492,,,,,x,1,1.03384704399,2018_Nov_27_1533,59.9871097404,spanish_cond2,001,1056,
images/radish01.jpg,raisin,x,sounds/animalfarm_english.wav,,,,,,,,,0,1,1,1,0,147,147,214,910.592812049,8.98016151041e-06,911.749983002,1.15718121536,,,,,x,1,1.13389778219,2018_Nov_27_1533,59.9871097404,spanish_cond2,001,1056,
images/nailclipper03a.jpg,aquarium,x,sounds/animalfarm_english.wav,,,,,,,,,0,1,1,1,0,148,148,123,912.849730016,8.98027792573e-06,913.633782322,0.784061927581,,,,,x,1,0.767127821688,2018_Nov_27_1533,59.9871097404,spanish_cond2,001,1056,
images/electrictoothbrush01a.jpg,banjo,x,sounds/animalfarm_english.wav,,,,,,,,,0,1,1,1,0,149,149,127,914.728650839,8.98016151041e-06,915.701145105,0.972503566416,,,,,x,1,0.950646382524,2018_Nov_27_1533,59.9871097404,spanish_cond2,001,1056,
images/printer03a.jpg,printer,z,sounds/animalfarm_english.wav,,,,,,,,,0,1,1,1,0,150,150,72,916.811100691,9.621726349e-06,917.584763218,0.7736734309,,,,,z,1,0.750430087792,2018_Nov_27_1533,59.9871097404,spanish_cond2,001,1056,
images/ladybug03.jpg,giraffe,x,sounds/animalfarm_english.wav,,,,,,,,,0,1,1,1,0,151,151,178,918.688159083,9.30088572204e-06,919.368551249,0.680402749451,,,,,x,1,0.667090874515,2018_Nov_27_1533,59.9871097404,spanish_cond2,001,1056,
images/desktopcomputer.jpg,desktop computer,z,sounds/animalfarm_english.wav,,,,,,,,,0,1,1,1,0,152,152,16,920.505173241,9.30100213736e-06,921.285706909,0.780543931178,,,,,z,1,0.767122369376,2018_Nov_27_1533,59.9871097404,spanish_cond2,001,1056,
images/puma.jpg,puma,z,sounds/animalfarm_english.wav,,,,,,,,,0,1,1,1,0,153,153,4,922.384819536,9.94233414531e-06,923.436253034,1.05144376075,,,,,z,1,1.03385217546,2018_Nov_27_1533,59.9871097404,spanish_cond2,001,1056,
images/leek.jpg,donut,x,sounds/animalfarm_english.wav,,,,,,,,,0,1,1,1,0,154,154,169,924.537297368,8.98016151041e-06,925.486760287,0.949472541106,,,,,x,1,0.933821642888,2018_Nov_27_1533,59.9871097404,spanish_cond2,001,1056,
images/binder03b.jpg,dj mixer,x,sounds/animalfarm_english.wav,,,,,,,,,0,1,1,1,0,155,155,167,926.600325276,8.98027792573e-06,927.57063703,0.970321375993,,,,,x,1,0.950496284757,2018_Nov_27_1533,59.9871097404,spanish_cond2,001,1056,
images/cheetah.jpg,cheetah,z,sounds/animalfarm_english.wav,,,,,,,,,0,1,1,1,0,156,156,82,928.6736259,8.98016151041e-06,929.554460469,0.880844511557,,,,,z,1,0.8671452048,2018_Nov_27_1533,59.9871097404,spanish_cond2,001,1056,
images/nametag01a.jpg,name tag,z,sounds/animalfarm_english.wav,,,,,,,,,0,1,1,1,0,157,157,108,930.674656379,9.62160993367e-06,931.654989403,0.980343287694,,,,,z,1,0.967163229478,2018_Nov_27_1533,59.9871097404,spanish_cond2,001,1056,
images/beachumbrella01.jpg,beach umbrella,z,sounds/animalfarm_english.wav,,,,,,,,,0,1,1,1,0,158,158,92,932.761339116,8.98027792573e-06,933.572142498,0.810813003918,,,,,z,1,0.80045465508,2018_Nov_27_1533,59.9871097404,spanish_cond2,001,1056,
images/ruler02b.jpg,watermelon,x,sounds/animalfarm_english.wav,,,,,,,,,0,1,1,1,0,159,159,238,934.675903345,9.30088572204e-06,935.505970876,0.83007747354,,,,,x,1,0.817122241133,2018_Nov_27_1533,59.9871097404,spanish_cond2,001,1056,
images/eyedrops.jpg,bicycle,x,sounds/animalfarm_english.wav,,,,,,,,,0,1,1,1,0,160,160,131,936.608388219,9.62160993367e-06,937.956609561,1.3482319254,,,,,x,1,1.33394762222,2018_Nov_27_1533,59.9871097404,spanish_cond2,001,1056,
images/headphones02b.jpg,headphones,z,sounds/animalfarm_english.wav,,,,,,,,,0,1,1,1,0,161,161,101,939.064877831,9.30100213736e-06,940.940689577,1.87582425482,,,,,z,1,1.86740915885,2018_Nov_27_1533,59.9871097404,spanish_cond2,001,1056,
images/backpack01b.jpg,swallow,x,sounds/animalfarm_english.wav,,,,,,,,,0,1,1,1,0,162,162,228,942.071953272,9.30100213736e-06,942.974541432,0.902598423068,,,,,x,1,0.883823054028,2018_Nov_27_1533,59.9871097404,spanish_cond2,001,1056,
images/candle08a.jpg,screw driver,x,sounds/animalfarm_english.wav,,,,,,,,,0,1,1,1,0,163,163,221,944.088616047,9.62160993367e-06,945.858595085,1.76998930075,,,,,x,1,1.75069789041,2018_Nov_27_1533,59.9871097404,spanish_cond2,001,1056,
images/basketball01.jpg,basket ball,z,sounds/animalfarm_english.wav,,,,,,,,,0,1,1,1,0,164,164,33,946.997820055,1.02630583569e-05,948.27585947,1.27804967843,,,,,z,1,1.26721217146,2018_Nov_27_1533,59.9871097404,spanish_cond2,001,1056,
images/bowlingball.jpg,bowling ball,z,sounds/animalfarm_english.wav,,,,,,,,,0,1,1,1,0,165,165,20,949.40798751,8.98016151041e-06,951.44334387,2.03536630259,,,,,z,1,2.01744405332,2018_Nov_27_1533,59.9871097404,spanish_cond2,001,1056,
images/tent.jpg,tent,z,sounds/animalfarm_english.wav,,,,,,,,,0,1,1,1,0,166,166,11,952.570145043,8.98016151041e-06,953.227158842,0.657024061773,,,,,z,1,0.633785850252,2018_Nov_27_1533,59.9871097404,spanish_cond2,001,1056,
images/lychee02a.jpg,lychee,z,sounds/animalfarm_english.wav,,,,,,,,,0,1,1,1,0,167,167,62,954.351580901,8.98016151041e-06,955.494365882,1.14279460208,,,,,x,0,1.13388527394,2018_Nov_27_1533,59.9871097404,spanish_cond2,001,1056,
images/shotglass.jpg,shot glass,z,sounds/animalfarm_english.wav,,,,,,,,,0,1,1,1,0,168,168,86,956.602898105,9.30100213736e-06,957.411514486,0.808626644081,,,,,z,1,0.800467163208,2018_Nov_27_1533,59.9871097404,spanish_cond2,001,1056,
images/bowtie.jpg,bowtie,z,sounds/animalfarm_english.wav,,,,,,,,,0,1,1,1,0,169,169,89,958.522311646,8.98016151041e-06,959.328670467,0.806368442485,,,,,z,1,0.78379187989,2018_Nov_27_1533,59.9871097404,spanish_cond2,001,1056,
images/drink.jpg,drink,z,sounds/animalfarm_english.wav,,,,,,,,,0,1,1,1,0,170,170,117,960.428790161,8.98016151041e-06,961.512547274,1.083767056,,,,,z,1,1.06718863058,2018_Nov_27_1533,59.9871097404,spanish_cond2,001,1056,
images/pictureframe04.jpg,picture frame,z,sounds/animalfarm_english.wav,,,,,,,,,0,1,1,1,0,171,171,41,962.636696079,9.30100213736e-06,963.429708708,0.793022571132,,,,,z,1,0.783796369913,2018_Nov_27_1533,59.9871097404,spanish_cond2,001,1056,
images/seagull.jpg,seagull,z,sounds/animalfarm_english.wav,,,,,,,,,0,1,1,1,0,172,172,50,964.53792021,8.98016151041e-06,965.396857825,0.858947237371,,,,,z,1,0.850468317745,2018_Nov_27_1533,59.9871097404,spanish_cond2,001,1056,
images/microphone01.jpg,diaper,x,sounds/animalfarm_english.wav,,,,,,,,,0,1,1,1,0,173,173,164,966.498116401,9.30088572204e-06,967.1139614,0.615855582873,,,,,x,1,0.600402249256,2018_Nov_27_1533,59.9871097404,spanish_cond2,001,1056,
images/comb02a.jpg,diploma,x,sounds/animalfarm_english.wav,,,,,,,,,0,1,1,1,0,174,174,166,968.219074089,8.98016151041e-06,969.031113854,0.812049706699,,,,,x,1,0.800449844217,2018_Nov_27_1533,59.9871097404,spanish_cond2,001,1056,
images/kiwi03.jpg,backpack,x,sounds/animalfarm_english.wav,,,,,,,,,0,1,1,1,0,175,175,125,970.160247315,9.94233414531e-06,970.981600517,0.821364106378,,,,,x,1,0.800442467676,2018_Nov_27_1533,59.9871097404,spanish_cond2,001,1056,
images/dryingmachine01.jpg,drying machine,z,sounds/animalfarm_english.wav,,,,,,,,,0,1,1,1,0,176,176,18,972.103751867,8.98016151041e-06,972.848750853,0.745008928934,,,,,z,1,0.733782065683,2018_Nov_27_1533,59.9871097404,spanish_cond2,001,1056,
images/butterfly.jpg,butterfly,z,sounds/animalfarm_english.wav,,,,,,,,,0,1,1,1,0,177,177,91,973.957820285,9.30088572204e-06,974.765914852,0.808105150471,,,,,z,1,0.783800539328,2018_Nov_27_1533,59.9871097404,spanish_cond2,001,1056,
images/gps.jpg,gps,z,sounds/animalfarm_english.wav,,,,,,,,,0,1,1,1,0,178,178,21,975.8846967,8.98016151041e-06,976.649732133,0.765044734231,,,,,z,1,0.750463763601,2018_Nov_27_1533,59.9871097404,spanish_cond2,001,1056,
images/pineapple01a.jpg,pineapple,z,sounds/animalfarm_english.wav,,,,,,,,,0,1,1,1,0,179,179,51,977.762824057,9.62160993367e-06,979.267048283,1.50423448859,,,,,z,1,1.48397321592,2018_Nov_27_1533,59.9871097404,spanish_cond2,001,1056,
images/ant.jpg,ant,z,sounds/animalfarm_english.wav,,,,,,,,,0,1,1,1,0,180,180,98,980.362153172,8.98016151041e-06,981.184182775,0.822039225488,,,,,z,1,0.800445354078,2018_Nov_27_1533,59.9871097404,spanish_cond2,001,1056,
images/tulip02.jpg,sport shorts,x,sounds/animalfarm_english.wav,,,,,,,,,0,1,1,1,0,181,181,225,982.279400558,9.94233414531e-06,983.451434075,1.17204345902,,,,,x,1,1.15054420056,2018_Nov_27_1533,59.9871097404,spanish_cond2,001,1056,
images/bull.jpg,button,x,sounds/animalfarm_english.wav,,,,,,,,,0,1,1,1,0,182,182,141,984.558475584,9.30088572204e-06,987.202376035,2.64391039289,,,,,x,1,2.63424801023,2018_Nov_27_1533,59.9871097404,spanish_cond2,001,1056,
images/crocodile.jpg,triangle ruler,x,sounds/animalfarm_english.wav,,,,,,,,,0,1,1,1,0,183,183,235,988.30048801,9.30088572204e-06,989.302909459,1.00243107043,,,,,x,1,0.98382824962,2018_Nov_27_1533,59.9871097404,spanish_cond2,001,1056,
images/parkfountain.jpg,park fountain,z,sounds/animalfarm_english.wav,,,,,,,,,0,1,1,1,0,184,184,93,990.42324392,9.30088572204e-06,991.220063836,0.796829537721,,,,,z,1,0.783758845413,2018_Nov_27_1533,59.9871097404,spanish_cond2,001,1056,
images/flamingo.jpg,flamingo,z,sounds/animalfarm_english.wav,,,,,,,,,0,1,1,1,0,185,185,52,992.31965466,9.30088572204e-06,993.237253878,0.91760948149,,,,,z,1,0.900481980643,2018_Nov_27_1533,59.9871097404,spanish_cond2,001,1056,
images/dice05a.jpg,band aid,x,sounds/animalfarm_english.wav,,,,,,,,,0,1,1,1,0,186,186,126,994.350094677,8.98016151041e-06,995.304496069,0.954411013867,,,,,x,1,0.9338851457,2018_Nov_27_1533,59.9871097404,spanish_cond2,001,1056,
images/fryingpan01.jpg,frying pan,z,sounds/animalfarm_english.wav,,,,,,,,,0,1,1,1,0,187,187,45,996.405088186,9.30088572204e-06,997.32160593,0.916527687223,,,,,z,1,0.900472038193,2018_Nov_27_1533,59.9871097404,spanish_cond2,001,1056,
images/pen03c.jpg,pepper,x,sounds/animalfarm_english.wav,,,,,,,,,0,1,1,1,0,188,188,211,998.419028996,9.94233414531e-06,999.222077006,0.803058273857,,,,,x,1,0.783735753503,2018_Nov_27_1533,59.9871097404,spanish_cond2,001,1056,
images/nailpolish02b.jpg,nail polish,z,sounds/animalfarm_english.wav,,,,,,,,,0,1,1,1,0,189,189,94,1000.33096491,9.30100213736e-06,1001.78940098,1.45844601362,,,,,z,1,1.43393517833,2018_Nov_27_1533,59.9871097404,spanish_cond2,001,1056,
images/diploma01.jpg,glasses,x,sounds/animalfarm_english.wav,,,,,,,,,0,1,1,1,0,190,190,179,1002.92090105,8.98027792573e-06,1003.80658333,0.885692220065,,,,,x,1,0.867138148868,2018_Nov_27_1533,59.9871097404,spanish_cond2,001,1056,
images/paperclip04.jpg,eye drops,x,sounds/animalfarm_english.wav,,,,,,,,,0,1,1,1,0,191,191,174,1004.91211616,9.94233414531e-06,1006.10716851,1.19506261765,,,,,x,1,1.18389316369,2018_Nov_27_1533,59.9871097404,spanish_cond2,001,1056,
images/hanger02a.jpg,hanger,z,sounds/animalfarm_english.wav,,,,,,,,,0,1,1,1,0,192,192,88,1007.20106075,9.30088572204e-06,1008.02414553,0.823094720719,,,,,z,1,0.800237847259,2018_Nov_27_1533,59.9871097404,spanish_cond2,001,1056,
images/skateboard.jpg,key,x,sounds/animalfarm_english.wav,,,,,,,,,0,1,1,1,0,193,193,189,1009.11747779,9.94233414531e-06,1010.12504747,1.00757993665,,,,,x,1,0.984031907981,2018_Nov_27_1533,59.9871097404,spanish_cond2,001,1056,
images/mailbox01.jpg,mail box,z,sounds/animalfarm_english.wav,,,,,,,,,0,1,1,1,0,194,194,73,1011.24671068,9.30100213736e-06,1013.07558416,1.82888342661,,,,,z,1,1.81736727245,2018_Nov_27_1533,59.9871097404,spanish_cond2,001,1056,
images/safe.jpg,safe,z,sounds/animalfarm_english.wav,,,,,,,,,0,1,1,1,0,195,195,78,1014.18685503,9.30100213736e-06,1015.02609039,0.839245624142,,,,,z,1,0.817125127651,2018_Nov_27_1533,59.9871097404,spanish_cond2,001,1056,
images/fireextinguisher02.jpg,fire extinguisher,z,sounds/animalfarm_english.wav,,,,,,,,,0,1,1,1,0,196,196,175,1016.13846807,9.30100213736e-06,1017.64342418,1.50496669626,,,,,z,1,1.48396551854,2018_Nov_27_1533,59.9871097404,spanish_cond2,001,1056,
images/swallow.jpg,mattress,x,sounds/animalfarm_english.wav,,,,,,,,,0,1,1,1,0,197,197,202,1018.74581875,9.30100213736e-06,1020.39411886,1.64831005328,,,,,x,1,1.63400394109,2018_Nov_27_1533,59.9871097404,spanish_cond2,001,1056,
images/boxingglove02a.jpg,bracelet,x,sounds/animalfarm_english.wav,,,,,,,,,0,1,1,1,0,198,198,135,1021.50641796,9.621726349e-06,1022.5279958,1.02158777777,,,,,x,1,1.00050192943,2018_Nov_27_1533,59.9871097404,spanish_cond2,001,1056,
images/stapler03a.jpg,candy cane,x,sounds/animalfarm_english.wav,,,,,,,,,0,1,1,1,0,199,199,145,1023.63925031,9.62160993367e-06,1024.39512176,0.755881073768,,,,,x,1,0.733773085522,2018_Nov_27_1533,59.9871097404,spanish_cond2,001,1056,
images/flashlight05.jpg,flash light,z,sounds/animalfarm_english.wav,,,,,,,,,0,1,1,1,0,200,200,8,1025.49863822,9.94233414531e-06,1026.29560855,0.796980918269,,,,,z,1,0.783788351924,2018_Nov_27_1533,59.9871097404,spanish_cond2,001,1056,
images/hand01a.jpg,cupcake,x,sounds/animalfarm_english.wav,,,,,,,,,0,1,1,1,0,201,201,163,1027.40724857,9.621726349e-06,1028.24609585,0.838856909424,,,,,x,1,0.817122241133,2018_Nov_27_1533,59.9871097404,spanish_cond2,001,1056,
images/umbrella01.jpg,umbrella,z,sounds/animalfarm_english.wav,,,,,,,,,0,1,1,1,0,202,202,53,1029.35966277,8.98027792573e-06,1031.03016195,1.6705091265,,,,,z,1,1.65069461905,2018_Nov_27_1533,59.9871097404,spanish_cond2,001,1056,
images/lightbulb03b.jpg,treadmill,x,sounds/animalfarm_english.wav,,,,,,,,,0,1,1,1,0,203,203,234,1032.13300008,4.93911793455e-05,1033.03047241,0.897487722803,,,,,x,1,0.883634790312,2018_Nov_27_1533,59.9871097404,spanish_cond2,001,1056,
images/bicycle.jpg,hand bag,x,sounds/animalfarm_english.wav,,,,,,,,,0,1,1,1,0,204,204,186,1034.14096168,9.62160993367e-06,1035.68131777,1.54036667466,,,,,x,1,1.51729780424,2018_Nov_27_1533,59.9871097404,spanish_cond2,001,1056,
images/toothbrush03a.jpg,parrot,x,sounds/animalfarm_english.wav,,,,,,,,,0,1,1,1,0,205,205,210,1036.77427735,9.94245056063e-06,1038.14861698,1.37435085932,,,,,x,1,1.35060462449,2018_Nov_27_1533,59.9871097404,spanish_cond2,001,1056,
images/lipstick04.jpg,lipstick,z,sounds/animalfarm_english.wav,,,,,,,,,0,1,1,1,0,206,206,56,1039.24976202,9.62160993367e-06,1040.58256307,1.3328113053,,,,,z,1,1.31725854788,2018_Nov_27_1533,59.9871097404,spanish_cond2,001,1056,
images/glasses01b.jpg,calculator,x,sounds/animalfarm_english.wav,,,,,,,,,0,1,1,1,0,207,207,142,1041.67587352,9.62160993367e-06,1042.46637073,0.790507150814,,,,,x,1,0.767115634284,2018_Nov_27_1533,59.9871097404,spanish_cond2,001,1056,
images/plant01.jpg,plant,z,sounds/animalfarm_english.wav,,,,,,,,,0,1,1,1,0,208,208,47,1043.57812107,8.98016151041e-06,1044.50022322,0.922111772699,,,,,z,1,0.900484867045,2018_Nov_27_1533,59.9871097404,spanish_cond2,001,1056,
images/icecube02 (2).jpg,aloe,x,sounds/animalfarm_english.wav,,,,,,,,,0,1,1,1,0,209,209,122,1045.61090428,9.62160993367e-06,1046.36735079,0.756456769304,,,,,x,1,0.733766671154,2018_Nov_27_1533,59.9871097404,spanish_cond2,001,1056,
images/pingpongpaddle01c (1).jpg,ping pong paddle,z,sounds/animalfarm_english.wav,,,,,,,,,0,1,1,1,0,210,210,10,1047.47935739,8.98027792573e-06,1048.4845595,1.00521172769,,,,,z,1,0.983846210176,2018_Nov_27_1533,59.9871097404,spanish_cond2,001,1056,
images/thumbtack02a.jpg,thumb tack,z,sounds/animalfarm_english.wav,,,,,,,,,0,1,1,1,0,211,211,60,1049.59697277,8.98016151041e-06,1050.41838018,0.821417346131,,,,,z,1,0.800461390172,2018_Nov_27_1533,59.9871097404,spanish_cond2,001,1056,
images/sock03.jpg,sock,z,sounds/animalfarm_english.wav,,,,,,,,,0,1,1,1,0,212,212,90,1051.52436491,8.6595537141e-06,1053.15251696,1.6281616746,,,,,z,1,1.61743994802,2018_Nov_27_1533,59.9871097404,spanish_cond2,001,1056,
,,,sounds/animalfarm_english.wav,,,,,,,,,0,1,1,1,,,,,,,,,,,,,,,,2018_Nov_27_1533,59.9871097404,spanish_cond2,001,1056,
