images,name,corrAns,sounds,trials_3.thisRepN,trials_3.thisTrialN,trials_3.thisN,trials_3.thisIndex,trials_4.thisRepN,trials_4.thisTrialN,trials_4.thisN,trials_4.thisIndex,trials_2.thisRepN,trials_2.thisTrialN,trials_2.thisN,trials_2.thisIndex,trials.thisRepN,trials.thisTrialN,trials.thisN,trials.thisIndex,begin_global,begin_routine,end_global,end_routine,key_resp_2.keys,key_resp_2.corr,key_resp_2.rt,begin_book,key_resp_1.keys,key_resp_1.corr,key_resp_1.rt,date,frameRate,expName,session,participant,
images/volleyball.jpg,volley ball,z,,0,0,0,0,,,,,,,,,,,,,,,,,,,,,,,,2018_Nov_27_1533,59.9877829445,spanish_cond1,001,1057,
images/puma.jpg,puma,z,,,,,,0,0,0,0,,,,,,,,,48.1537825026,1.02630583569e-05,49.5764157785,1.42264385975,z,1,1.40062778455,,,,,2018_Nov_27_1533,59.9877829445,spanish_cond1,001,1057,
images/stapler03a.jpg,candy cane,x,sounds/greatgatsby_english.wav,,,,,,,,,0,0,0,0,0,0,0,145,91.765274865,9.94233414531e-06,92.9377100139,1.17244701565,,,,81.5766284183,x,1,1.15056692716,2018_Nov_27_1533,59.9877829445,spanish_cond1,001,1057,
images/printer03a.jpg,printer,z,sounds/greatgatsby_english.wav,,,,,,,,,0,0,0,0,0,1,1,72,94.0532519936,9.30100213736e-06,94.8714748061,0.818232754944,,,,,z,1,0.800469475216,2018_Nov_27_1533,59.9877829445,spanish_cond1,001,1057,
images/thumbtack02a.jpg,thumb tack,z,sounds/greatgatsby_english.wav,,,,,,,,,0,0,0,0,0,2,2,60,95.9841719669,9.94245056063e-06,96.7552974728,0.771135769086,,,,,z,1,0.750455507776,2018_Nov_27_1533,59.9877829445,spanish_cond1,001,1057,
images/broom02.jpg,broom,z,sounds/greatgatsby_english.wav,,,,,,,,,0,0,0,0,0,3,3,116,97.8512602355,9.30100213736e-06,98.5224120087,0.67116171564,,,,,z,1,0.650417309487,2018_Nov_27_1533,59.9877829445,spanish_cond1,001,1057,
images/ceilingfan02.jpg,paper clip,x,sounds/greatgatsby_english.wav,,,,,,,,,0,0,0,0,0,4,4,208,99.6227651575,8.6595537141e-06,100.556271767,0.933516231366,,,,,x,1,0.917147778906,2018_Nov_27_1533,59.9877829445,spanish_cond1,001,1057,
images/cloud.jpg,ceiling fan,x,sounds/greatgatsby_english.wav,,,,,,,,,0,0,0,0,0,5,5,149,101.663852424,8.98027792573e-06,102.707066087,1.04322360631,,,,,x,1,1.03408298222,2018_Nov_27_1533,59.9877829445,spanish_cond1,001,1057,
images/diploma01.jpg,glasses,x,sounds/greatgatsby_english.wav,,,,,,,,,0,0,0,0,0,6,6,179,103.839830286,8.6595537141e-06,104.64068463,0.800864286139,,,,,z,0,0.783809164306,2018_Nov_27_1533,59.9877829445,spanish_cond1,001,1057,
images/fireextinguisher02.jpg,fire extinguisher,z,sounds/greatgatsby_english.wav,,,,,,,,,0,0,0,0,0,7,7,175,105.752595055,9.30088572204e-06,106.707870462,0.955285349395,,,,,z,1,0.933822843246,2018_Nov_27_1533,59.9877829445,spanish_cond1,001,1057,
images/teapot.jpg,light switch,x,sounds/greatgatsby_english.wav,,,,,,,,,0,0,0,0,0,8,8,197,107.826220057,9.621726349e-06,108.625042616,0.798832822475,,,,,x,1,0.783789279405,2018_Nov_27_1533,59.9877829445,spanish_cond1,001,1057,
images/mitten01.jpg,mitten,z,sounds/greatgatsby_english.wav,,,,,,,,,0,0,0,0,0,9,9,102,109.747130566,9.30100213736e-06,110.575531864,0.828411240829,,,,,z,1,0.81713138998,2018_Nov_27_1533,59.9877829445,spanish_cond1,001,1057,
images/corn01.jpg,corn,z,sounds/greatgatsby_english.wav,,,,,,,,,0,0,0,0,0,10,10,22,111.676699972,9.30088572204e-06,112.759438977,1.08274894801,,,,,x,0,1.0671983409,2018_Nov_27_1533,59.9877829445,spanish_cond1,001,1057,
images/plant01.jpg,plant,z,sounds/greatgatsby_english.wav,,,,,,,,,0,0,0,0,0,11,11,47,113.872263466,8.98027792573e-06,114.62660005,0.754346527159,,,,,x,0,0.733794234693,2018_Nov_27_1533,59.9877829445,spanish_cond1,001,1057,
images/basketball01.jpg,basket ball,z,sounds/greatgatsby_english.wav,,,,,,,,,0,0,0,0,0,12,12,33,115.766045885,8.98027792573e-06,116.543760979,0.777725036605,,,,,z,1,0.767106197076,2018_Nov_27_1533,59.9877829445,spanish_cond1,001,1057,
images/lightbulb03b.jpg,treadmill,x,sounds/greatgatsby_english.wav,,,,,,,,,0,0,0,0,0,13,13,234,117.646999037,9.621726349e-06,118.377563905,0.730574810528,,,,,x,1,0.71711435949,2018_Nov_27_1533,59.9877829445,spanish_cond1,001,1057,
images/key03b.jpg,cigar,x,sounds/greatgatsby_english.wav,,,,,,,,,0,0,0,0,0,14,14,153,119.479108542,9.30100213736e-06,120.378089892,0.898990971386,,,,,x,1,0.883830684819,2018_Nov_27_1533,59.9877829445,spanish_cond1,001,1057,
images/blueberry02.jpg,blueberry,z,sounds/greatgatsby_english.wav,,,,,,,,,0,0,0,0,0,15,15,46,121.491356658,8.98027792573e-06,122.211882876,0.720535839442,,,,,z,1,0.700436729356,2018_Nov_27_1533,59.9877829445,spanish_cond1,001,1057,
images/bandaid01.jpg,door handle,x,sounds/greatgatsby_english.wav,,,,,,,,,0,0,0,0,0,16,16,170,123.320502997,9.30100213736e-06,123.995926489,0.67543311324,,,,,x,1,0.667343179812,2018_Nov_27_1533,59.9877829445,spanish_cond1,001,1057,
images/8ball.jpg,nail clipper,x,sounds/greatgatsby_english.wav,,,,,,,,,0,0,0,0,0,17,17,206,125.112752005,9.30100213736e-06,126.062875307,0.950133565348,,,,,x,1,0.933817070094,2018_Nov_27_1533,59.9877829445,spanish_cond1,001,1057,
images/sportshorts02.jpg,tape,x,sounds/greatgatsby_english.wav,,,,,,,,,0,0,0,0,0,18,18,230,127.172331876,9.621726349e-06,127.980050347,0.80772905529,,,,,x,1,0.783794731717,2018_Nov_27_1533,59.9877829445,spanish_cond1,001,1057,
images/sock03.jpg,sock,z,sounds/greatgatsby_english.wav,,,,,,,,,0,0,0,0,0,19,19,90,129.087253512,8.98027792573e-06,129.797173398,0.709929508157,,,,,z,1,0.700424221228,2018_Nov_27_1533,59.9877829445,spanish_cond1,001,1057,
images/dryingmachine01.jpg,drying machine,z,sounds/greatgatsby_english.wav,,,,,,,,,0,0,0,0,0,20,20,18,130.918478141,9.621726349e-06,131.731031842,0.81256332295,,,,,z,1,0.800477172597,2018_Nov_27_1533,59.9877829445,spanish_cond1,001,1057,
images/razor04a.jpg,razor,z,sounds/greatgatsby_english.wav,,,,,,,,,0,0,0,0,0,21,21,36,132.833293938,8.6595537141e-06,133.648187959,0.814903964056,,,,,z,1,0.800465305918,2018_Nov_27_1533,59.9877829445,spanish_cond1,001,1057,
images/pepper05a.jpg,lighter,x,sounds/greatgatsby_english.wav,,,,,,,,,0,0,0,0,0,22,22,198,134.769553319,9.30100213736e-06,135.431982691,0.662439314998,,,,,x,1,0.650427893503,2018_Nov_27_1533,59.9877829445,spanish_cond1,001,1057,
images/button07.jpg,radish,x,sounds/greatgatsby_english.wav,,,,,,,,,0,0,0,0,0,23,23,215,136.544116982,8.98027792573e-06,137.415826558,0.871719197487,,,,,x,1,0.850466765231,2018_Nov_27_1533,59.9877829445,spanish_cond1,001,1057,
images/hanger02a.jpg,hanger,z,sounds/greatgatsby_english.wav,,,,,,,,,0,0,0,0,0,24,24,88,138.510962816,8.98016151041e-06,139.249653538,0.738700023619,,,,,z,1,0.717119490961,2018_Nov_27_1533,59.9877829445,spanish_cond1,001,1057,
images/toucan.jpg,toucan,z,sounds/greatgatsby_english.wav,,,,,,,,,0,0,0,0,0,25,25,81,140.351369442,8.6595537141e-06,141.216651716,0.865291895461,,,,,z,1,0.850302875391,2018_Nov_27_1533,59.9877829445,spanish_cond1,001,1057,
images/dresser02.jpg,dresser,z,sounds/greatgatsby_english.wav,,,,,,,,,0,0,0,0,0,26,26,87,142.339089575,9.621726349e-06,143.36738125,1.02830097603,,,,,z,1,1.01720265474,2018_Nov_27_1533,59.9877829445,spanish_cond1,001,1057,
images/seagull.jpg,seagull,z,sounds/greatgatsby_english.wav,,,,,,,,,0,0,0,0,0,27,27,50,144.477358995,8.98027792573e-06,145.184798404,0.707464746898,,,,,z,1,0.684002207941,2018_Nov_27_1533,59.9877829445,spanish_cond1,001,1057,
images/gluestick.jpg,squirrel,x,sounds/greatgatsby_english.wav,,,,,,,,,0,0,0,0,0,28,28,226,146.293809809,9.30100213736e-06,147.085016785,0.791217559949,,,,,x,1,0.767136024311,2018_Nov_27_1533,59.9877829445,spanish_cond1,001,1057,
images/honeycomb.jpg,honey comb,z,sounds/greatgatsby_english.wav,,,,,,,,,0,0,0,0,0,29,29,59,148.199400311,9.30100213736e-06,149.202221396,1.00283102773,,,,,x,0,0.983833603445,2018_Nov_27_1533,59.9877829445,spanish_cond1,001,1057,
images/remotecontrol01c.jpg,remote control,z,sounds/greatgatsby_english.wav,,,,,,,,,0,0,0,0,0,30,30,85,150.3135991,8.6595537141e-06,151.219473763,0.905884605483,,,,,z,1,0.883881359128,2018_Nov_27_1533,59.9877829445,spanish_cond1,001,1057,
images/hand01a.jpg,cupcake,x,sounds/greatgatsby_english.wav,,,,,,,,,0,0,0,0,0,31,31,163,152.330987133,8.98027792573e-06,153.036536197,0.705559006892,,,,,x,1,0.683761344291,2018_Nov_27_1533,59.9877829445,spanish_cond1,001,1057,
images/kiwi03.jpg,backpack,x,sounds/greatgatsby_english.wav,,,,,,,,,0,0,0,0,0,32,32,125,154.167600561,8.6595537141e-06,154.90369278,0.73610248277,,,,,x,1,0.717108907178,2018_Nov_27_1533,59.9877829445,spanish_cond1,001,1057,
images/hairpin.jpg,hair pin,z,sounds/greatgatsby_english.wav,,,,,,,,,0,0,0,0,0,33,33,28,155.996030403,9.30088572204e-06,157.00424157,1.00822143012,,,,,x,0,0.983843866619,2018_Nov_27_1533,59.9877829445,spanish_cond1,001,1057,
images/mirror02.jpg,8 ball,x,sounds/greatgatsby_english.wav,,,,,,,,,0,0,0,0,0,34,34,121,158.107948527,8.6595537141e-06,159.038095235,0.930156330345,,,,,z,0,0.917156759067,2018_Nov_27_1533,59.9877829445,spanish_cond1,001,1057,
images/charcoalbarbecue.jpg,charcoal barbecue,z,sounds/greatgatsby_english.wav,,,,,,,,,0,0,0,0,0,35,35,77,160.156627642,9.30100213736e-06,161.088623643,0.932006264455,,,,,z,1,0.917149703251,2018_Nov_27_1533,59.9877829445,spanish_cond1,001,1057,
images/wallet01.jpg,lamp,x,sounds/greatgatsby_english.wav,,,,,,,,,0,0,0,0,0,36,36,193,162.194897672,1.02631747723e-05,163.272540699,1.07765361143,,,,,z,0,1.06719513366,2018_Nov_27_1533,59.9877829445,spanish_cond1,001,1057,
images/magnifyingglass01b.jpg,magnifying glass,z,sounds/greatgatsby_english.wav,,,,,,,,,0,0,0,0,0,37,37,64,164.381637416,9.30100213736e-06,165.356398068,0.97476995294,,,,,z,1,0.950495341676,2018_Nov_27_1533,59.9877829445,spanish_cond1,001,1057,
images/treadmill.jpg,lily,x,sounds/greatgatsby_english.wav,,,,,,,,,0,0,0,0,0,38,38,199,166.463949539,9.30100213736e-06,167.24022747,0.776287873858,,,,,x,1,0.767110687215,2018_Nov_27_1533,59.9877829445,spanish_cond1,001,1057,
images/tent.jpg,tent,z,sounds/greatgatsby_english.wav,,,,,,,,,0,0,0,0,0,39,39,11,168.367776381,9.621726349e-06,169.29075652,0.92299104319,,,,,z,1,0.900484260637,2018_Nov_27_1533,59.9877829445,spanish_cond1,001,1057,
images/ruler02b.jpg,watermelon,x,sounds/greatgatsby_english.wav,,,,,,,,,0,0,0,0,0,40,40,238,170.39422165,9.30100213736e-06,171.107882137,0.713670749683,,,,,x,1,0.700427428354,2018_Nov_27_1533,59.9877829445,spanish_cond1,001,1057,
images/lip.jpg,boxing glove,x,sounds/greatgatsby_english.wav,,,,,,,,,0,0,0,0,0,41,41,136,172.211200696,9.621726349e-06,172.975054435,0.763864001608,,,,,z,0,0.750457111397,2018_Nov_27_1533,59.9877829445,spanish_cond1,001,1057,
images/barrel01.jpg,barrel,z,sounds/greatgatsby_english.wav,,,,,,,,,0,0,0,0,0,42,42,9,174.106716306,8.98027792573e-06,174.892201252,0.785494567128,,,,,z,1,0.767116780858,2018_Nov_27_1533,59.9877829445,spanish_cond1,001,1057,
images/marker01a.jpg,marker,z,sounds/greatgatsby_english.wav,,,,,,,,,0,0,0,0,0,43,43,95,175.993437994,8.98027792573e-06,176.776047652,0.782619600301,,,,,z,1,0.767147249775,2018_Nov_27_1533,59.9877829445,spanish_cond1,001,1057,
images/plate01b.jpg,plate,z,sounds/greatgatsby_english.wav,,,,,,,,,0,0,0,0,0,44,44,3,177.876191689,9.62160993367e-06,178.543164112,0.666982044932,,,,,z,1,0.650437194388,2018_Nov_27_1533,59.9877829445,spanish_cond1,001,1057,
images/nametag01a.jpg,name tag,z,sounds/greatgatsby_english.wav,,,,,,,,,0,0,0,0,0,45,45,108,179.665333205,9.30100213736e-06,180.643738881,0.978415939491,,,,,z,1,0.967219155864,2018_Nov_27_1533,59.9877829445,spanish_cond1,001,1057,
images/donut.jpg,rhinoceros,x,sounds/greatgatsby_english.wav,,,,,,,,,0,0,0,0,0,46,46,216,181.771292603,9.30100213736e-06,182.677553417,0.906270756852,,,,,x,1,0.883808875573,2018_Nov_27_1533,59.9877829445,spanish_cond1,001,1057,
images/skateboard.jpg,key,x,sounds/greatgatsby_english.wav,,,,,,,,,0,0,0,0,0,47,47,189,183.769739659,8.98027792573e-06,184.87816446,1.10843442276,,,,,x,1,1.08391221287,2018_Nov_27_1533,59.9877829445,spanish_cond1,001,1057,
images/doorhandle.jpg,doll,x,sounds/greatgatsby_english.wav,,,,,,,,,0,0,0,0,0,48,48,168,185.982330051,9.30100213736e-06,187.278777812,1.29645834491,,,,,x,1,1.28394178348,2018_Nov_27_1533,59.9877829445,spanish_cond1,001,1057,
images/crocodile.jpg,triangle ruler,x,sounds/greatgatsby_english.wav,,,,,,,,,0,0,0,0,0,49,49,235,188.377860574,8.98027792573e-06,189.429329986,1.05147903319,,,,,x,1,1.03388028475,2018_Nov_27_1533,59.9877829445,spanish_cond1,001,1057,
images/radish01.jpg,raisin,x,sounds/greatgatsby_english.wav,,,,,,,,,0,0,0,0,0,50,50,214,190.540272147,9.621726349e-06,191.67988572,1.13962351531,,,,,x,1,1.11719595164,2018_Nov_27_1533,59.9877829445,spanish_cond1,001,1057,
images/bull.jpg,button,x,sounds/greatgatsby_english.wav,,,,,,,,,0,0,0,0,0,51,51,141,192.787077659,8.98016151041e-06,193.613723316,0.82665624097,,,,,x,1,0.817132031429,2018_Nov_27_1533,59.9877829445,spanish_cond1,001,1057,
images/blackolive.jpg,tank,x,sounds/greatgatsby_english.wav,,,,,,,,,0,0,0,0,0,52,52,229,194.729782944,9.30100213736e-06,195.730943643,1.00117160357,,,,,x,1,0.983840017929,2018_Nov_27_1533,59.9877829445,spanish_cond1,001,1057,
images/bench02.jpg,electric toothbrush,x,sounds/greatgatsby_english.wav,,,,,,,,,0,0,0,0,0,53,53,172,196.841756552,8.98027792573e-06,197.631448751,0.789702140726,,,,,x,1,0.767137627932,2018_Nov_27_1533,59.9877829445,spanish_cond1,001,1057,
images/shotglass.jpg,shot glass,z,sounds/greatgatsby_english.wav,,,,,,,,,0,0,0,0,0,54,54,86,198.741946389,9.30100213736e-06,199.565266783,0.823330336716,,,,,z,1,0.800459853606,2018_Nov_27_1533,59.9877829445,spanish_cond1,001,1057,
images/diaper01a.jpg,camera,x,sounds/greatgatsby_english.wav,,,,,,,,,0,0,0,0,0,55,55,143,200.686378129,9.621726349e-06,201.38241902,0.696051474893,,,,,x,1,0.683781870757,2018_Nov_27_1533,59.9877829445,spanish_cond1,001,1057,
images/broadsword.jpg,teapot,x,sounds/greatgatsby_english.wav,,,,,,,,,0,0,0,0,0,56,56,231,202.4766255,9.621726349e-06,203.632992714,1.15637779841,,,,,x,1,1.13388993847,2018_Nov_27_1533,59.9877829445,spanish_cond1,001,1057,
images/coffeepot03b.jpg,coffee pot,z,sounds/greatgatsby_english.wav,,,,,,,,,0,0,0,0,0,57,57,107,204.756118846,8.6595537141e-06,205.766893557,1.01078497432,,,,,x,0,1.00052342098,2018_Nov_27_1533,59.9877829445,spanish_cond1,001,1057,
images/scissors04a.jpg,leek,x,sounds/greatgatsby_english.wav,,,,,,,,,0,0,0,0,0,58,58,194,206.86284766,8.98027792573e-06,207.617354549,0.754518435104,,,,,x,1,0.733779481379,2018_Nov_27_1533,59.9877829445,spanish_cond1,001,1057,
images/snowman.jpg,globe,x,sounds/greatgatsby_english.wav,,,,,,,,,0,0,0,0,0,59,59,180,208.729626752,9.621726349e-06,209.717893718,0.988276908989,,,,,x,1,0.967162708519,2018_Nov_27_1533,59.9877829445,spanish_cond1,001,1057,
images/panda.jpg,panda,z,sounds/greatgatsby_english.wav,,,,,,,,,0,0,0,0,0,60,60,83,210.827703724,9.621726349e-06,211.651752803,0.824059341568,,,,,z,1,0.800477814162,2018_Nov_27_1533,59.9877829445,spanish_cond1,001,1057,
images/lily.jpg,kiwi,x,sounds/greatgatsby_english.wav,,,,,,,,,0,0,0,0,0,61,61,190,212.751918328,8.98016151041e-06,213.969000134,1.21709142765,,,,,x,1,1.20056036836,2018_Nov_27_1533,59.9877829445,spanish_cond1,001,1057,
images/fryingpan01.jpg,frying pan,z,sounds/greatgatsby_english.wav,,,,,,,,,0,0,0,0,0,62,62,45,215.071299755,9.621726349e-06,215.752802243,0.681512430077,,,,,z,1,0.667107447865,2018_Nov_27_1533,59.9877829445,spanish_cond1,001,1057,
images/flipflop01b.jpg,flip flop,z,sounds/greatgatsby_english.wav,,,,,,,,,0,0,0,0,0,63,63,27,216.871801623,9.30100213736e-06,217.853342053,0.98155037174,,,,,z,1,0.967174575431,2018_Nov_27_1533,59.9877829445,spanish_cond1,001,1057,
images/carrot02.jpg,corkscrew,x,sounds/greatgatsby_english.wav,,,,,,,,,0,0,0,0,0,64,64,161,218.95734664,8.98027792573e-06,220.17062274,1.21328604151,,,,,x,1,1.20057929109,2018_Nov_27_1533,59.9877829445,spanish_cond1,001,1057,
images/dice05a.jpg,band aid,x,sounds/greatgatsby_english.wav,,,,,,,,,0,0,0,0,0,65,65,126,221.284868675,9.621726349e-06,222.271180189,0.986321456847,,,,,x,1,0.967203761218,2018_Nov_27_1533,59.9877829445,spanish_cond1,001,1057,
images/apricot.jpg,apricot,z,sounds/greatgatsby_english.wav,,,,,,,,,0,0,0,0,0,66,66,32,223.389276091,9.94245056063e-06,224.27168565,0.882419500733,,,,,z,1,0.867156582768,2018_Nov_27_1533,59.9877829445,spanish_cond1,001,1057,
images/worldmap.jpg,scooter,x,sounds/greatgatsby_english.wav,,,,,,,,,0,0,0,0,0,67,67,220,225.403705769,9.30100213736e-06,226.155494205,0.751798698446,,,,,x,1,0.733781405725,2018_Nov_27_1533,59.9877829445,spanish_cond1,001,1057,
images/pouch01b.jpg,pouch,z,sounds/greatgatsby_english.wav,,,,,,,,,0,0,0,0,0,68,68,25,227.270205831,9.94233414531e-06,228.172689804,0.902494235779,,,,,z,1,0.883817214402,2018_Nov_27_1533,59.9877829445,spanish_cond1,001,1057,
images/50dollarbill.jpg,cherry,x,sounds/greatgatsby_english.wav,,,,,,,,,0,0,0,0,0,69,69,151,229.294423353,9.30088572204e-06,230.206534809,0.912121076952,,,,,x,1,0.900480411947,2018_Nov_27_1533,59.9877829445,spanish_cond1,001,1057,
images/leek.jpg,donut,x,sounds/greatgatsby_english.wav,,,,,,,,,0,0,0,0,0,70,70,169,231.309693327,8.98027792573e-06,232.223734898,0.914051191998,,,,,x,1,0.900482015568,2018_Nov_27_1533,59.9877829445,spanish_cond1,001,1057,
images/showerhead01.jpg,skateboard,x,sounds/greatgatsby_english.wav,,,,,,,,,0,0,0,0,0,71,71,223,233.333010258,8.65943729877e-06,234.0908825,0.757881863974,,,,,z,0,0.733771783998,2018_Nov_27_1533,59.9877829445,spanish_cond1,001,1057,
images/croissant02b.jpg,croissant,z,sounds/greatgatsby_english.wav,,,,,,,,,0,0,0,0,0,72,72,39,235.203797753,9.30100213736e-06,235.841351158,0.637563667726,,,,,z,1,0.617092518136,2018_Nov_27_1533,59.9877829445,spanish_cond1,001,1057,
images/triangleruler02.jpg,bottle of red wine,x,sounds/greatgatsby_english.wav,,,,,,,,,0,0,0,0,0,73,73,134,236.953726953,8.6595537141e-06,237.741831569,0.788114237948,,,,,x,1,0.767128006206,2018_Nov_27_1533,59.9877829445,spanish_cond1,001,1057,
images/bottleofredwine02.jpg,pipe,x,sounds/greatgatsby_english.wav,,,,,,,,,0,0,0,0,0,74,74,213,238.841607095,8.6595537141e-06,239.692338136,0.850740663125,,,,,x,1,0.83381222724,2018_Nov_27_1533,59.9877829445,spanish_cond1,001,1057,
images/dragonfly02.jpg,dragon fly,z,sounds/greatgatsby_english.wav,,,,,,,,,0,0,0,0,0,75,75,29,240.791604994,9.621726349e-06,241.77621507,0.984620017814,,,,,z,1,0.967153728241,2018_Nov_27_1533,59.9877829445,spanish_cond1,001,1057,
images/hairdryer03a.jpg,hairdryer,z,sounds/greatgatsby_english.wav,,,,,,,,,0,0,0,0,0,76,76,119,242.876880603,8.98027792573e-06,243.743390928,0.866520267096,,,,,z,1,0.850481197704,2018_Nov_27_1533,59.9877829445,spanish_cond1,001,1057,
images/paperclip04.jpg,eye drops,x,sounds/greatgatsby_english.wav,,,,,,,,,0,0,0,0,0,77,77,174,244.852274684,9.30100213736e-06,245.710548826,0.858284083544,,,,,x,1,0.850450087572,2018_Nov_27_1533,59.9877829445,spanish_cond1,001,1057,
images/puzzle.jpg,puzzle,z,sounds/greatgatsby_english.wav,,,,,,,,,0,0,0,0,0,78,78,57,246.832094111,8.98027792573e-06,247.677742965,0.845658476115,,,,,z,1,0.833811585791,2018_Nov_27_1533,59.9877829445,spanish_cond1,001,1057,
images/chameleon.jpg,50 dollar bill,x,sounds/greatgatsby_english.wav,,,,,,,,,0,0,0,0,0,79,79,120,248.791374073,8.98016151041e-06,249.72826528,0.936900507309,,,,,x,1,0.91716253222,2018_Nov_27_1533,59.9877829445,spanish_cond1,001,1057,
images/flashlight05.jpg,flash light,z,sounds/greatgatsby_english.wav,,,,,,,,,0,0,0,0,0,80,80,8,250.83303768,9.30100213736e-06,251.97886816,1.14584010188,,,,,z,1,1.13390148466,2018_Nov_27_1533,59.9877829445,spanish_cond1,001,1057,
images/cola.jpg,comb,x,sounds/greatgatsby_english.wav,,,,,,,,,0,0,0,0,0,81,81,157,253.101029876,9.94245056063e-06,253.762488739,0.661469126004,,,,,x,1,0.650267210905,2018_Nov_27_1533,59.9877829445,spanish_cond1,001,1057,
images/lychee02a.jpg,lychee,z,sounds/greatgatsby_english.wav,,,,,,,,,0,0,0,0,0,82,82,62,254.888186433,8.6595537141e-06,255.896526851,1.00835036102,,,,,x,0,0.983842904447,2018_Nov_27_1533,59.9877829445,spanish_cond1,001,1057,
images/apple06.jpg,apple,z,sounds/greatgatsby_english.wav,,,,,,,,,0,0,0,0,0,83,83,13,257.025111059,9.621726349e-06,257.663651009,0.638550213655,,,,,z,1,0.617073916248,2018_Nov_27_1533,59.9877829445,spanish_cond1,001,1057,
images/mattress.jpg,cat,x,sounds/greatgatsby_english.wav,,,,,,,,,0,0,0,0,0,84,84,147,258.768666197,9.30100213736e-06,259.564149382,0.795492806355,,,,,x,1,0.783798259683,2018_Nov_27_1533,59.9877829445,spanish_cond1,001,1057,
images/lemon02.jpg,lemon,z,sounds/greatgatsby_english.wav,,,,,,,,,0,0,0,0,0,85,85,14,260.677588697,9.621726349e-06,261.864734157,1.18715572322,,,,,z,1,1.16720382532,2018_Nov_27_1533,59.9877829445,spanish_cond1,001,1057,
images/pen03c.jpg,pepper,x,sounds/greatgatsby_english.wav,,,,,,,,,0,0,0,0,0,86,86,211,262.961165176,8.98027792573e-06,263.9319511,0.970795224654,,,,,x,1,0.950450440287,2018_Nov_27_1533,59.9877829445,spanish_cond1,001,1057,
images/birthdaycandle.jpg,birthday candle,z,sounds/greatgatsby_english.wav,,,,,,,,,0,0,0,0,0,87,87,55,265.029449808,9.30088572204e-06,265.849137686,0.819697820581,,,,,z,1,0.800486152875,2018_Nov_27_1533,59.9877829445,spanish_cond1,001,1057,
images/cactus.jpg,cactus,z,sounds/greatgatsby_english.wav,,,,,,,,,0,0,0,0,0,88,88,70,266.962490406,9.30100213736e-06,267.882966335,0.920485549956,,,,,z,1,0.900485543534,2018_Nov_27_1533,59.9877829445,spanish_cond1,001,1057,
images/computerkeyboard01a.jpg,computer keyboard,z,sounds/greatgatsby_english.wav,,,,,,,,,0,0,0,0,0,89,89,61,269.000220979,8.98027792573e-06,269.733457154,0.733245797222,,,,,z,1,0.717113076593,2018_Nov_27_1533,59.9877829445,spanish_cond1,001,1057,
images/elbow.jpg,elbow,z,sounds/greatgatsby_english.wav,,,,,,,,,0,0,0,0,0,90,90,105,270.84671943,9.30100213736e-06,271.717287871,0.870578704169,,,,,z,1,0.850452973973,2018_Nov_27_1533,59.9877829445,spanish_cond1,001,1057,
images/gorilla.jpg,gorilla,z,sounds/greatgatsby_english.wav,,,,,,,,,0,0,0,0,0,91,91,80,272.830443346,9.30100213736e-06,273.584439001,0.754005597904,,,,,z,1,0.73376889748,2018_Nov_27_1533,59.9877829445,spanish_cond1,001,1057,
images/drink.jpg,drink,z,sounds/greatgatsby_english.wav,,,,,,,,,0,0,0,0,0,92,92,117,274.685840917,8.98027792573e-06,275.518287823,0.832456528326,,,,,z,1,0.817124333931,2018_Nov_27_1533,59.9877829445,spanish_cond1,001,1057,
images/axe01.jpg,axe,z,sounds/greatgatsby_english.wav,,,,,,,,,0,0,0,0,0,93,93,104,276.622949894,8.98016151041e-06,277.485458871,0.86251859786,,,,,x,0,0.850471896701,2018_Nov_27_1533,59.9877829445,spanish_cond1,001,1057,
images/globe.jpg,cloud,x,sounds/greatgatsby_english.wav,,,,,,,,,0,0,0,0,0,94,94,154,278.615101466,9.94233414531e-06,279.502644848,0.887553324224,,,,,x,1,0.867138942936,2018_Nov_27_1533,59.9877829445,spanish_cond1,001,1057,
images/tank.jpg,wallet,x,sounds/greatgatsby_english.wav,,,,,,,,,0,0,0,0,0,95,95,237,280.609512535,9.30100213736e-06,281.469825838,0.860323244473,,,,,x,1,0.850453936262,2018_Nov_27_1533,59.9877829445,spanish_cond1,001,1057,
images/electricguitar02.jpg,electric guitar,z,sounds/greatgatsby_english.wav,,,,,,,,,0,0,0,0,0,96,96,100,282.573032465,8.98016151041e-06,283.603710644,1.03068844287,,,,,z,1,1.01718790142,2018_Nov_27_1533,59.9877829445,spanish_cond1,001,1057,
images/eyedrops.jpg,bicycle,x,sounds/greatgatsby_english.wav,,,,,,,,,0,0,0,0,0,97,97,131,284.705614492,9.621726349e-06,286.154374558,1.4487693673,,,,,x,1,1.43395514158,2018_Nov_27_1533,59.9877829445,spanish_cond1,001,1057,
images/lock02a.jpg,lock,z,sounds/greatgatsby_english.wav,,,,,,,,,0,0,0,0,0,98,98,65,287.266514622,9.62160993367e-06,288.354959302,1.08845558402,,,,,z,1,1.06721277349,2018_Nov_27_1533,59.9877829445,spanish_cond1,001,1057,
images/saltshaker03c.jpg,salt shaker,z,sounds/greatgatsby_english.wav,,,,,,,,,0,0,0,0,0,99,99,63,289.468401183,8.98027792573e-06,290.322120728,0.853728845483,,,,,z,1,0.833806133363,2018_Nov_27_1533,59.9877829445,spanish_cond1,001,1057,
images/rubberglove02a.jpg,lady bug,x,sounds/greatgatsby_english.wav,,,,,,,,,0,0,0,0,0,100,100,192,291.428486162,9.94245056063e-06,292.122595655,0.694120076951,,,,,x,1,0.683778984239,2018_Nov_27_1533,59.9877829445,spanish_cond1,001,1057,
images/desktopcomputer.jpg,desktop computer,z,sounds/greatgatsby_english.wav,,,,,,,,,0,0,0,0,0,101,101,16,293.26036186,8.98027792573e-06,294.023082481,0.762730884948,,,,,z,1,0.750446527498,2018_Nov_27_1533,59.9877829445,spanish_cond1,001,1057,
images/swallow.jpg,mattress,x,sounds/greatgatsby_english.wav,,,,,,,,,0,0,0,0,0,102,102,202,295.127037998,8.98027792573e-06,295.92357893,0.796549911494,,,,,x,1,0.783786713611,2018_Nov_27_1533,59.9877829445,spanish_cond1,001,1057,
images/tape01a.jpg,tie,x,sounds/greatgatsby_english.wav,,,,,,,,,0,0,0,0,0,103,103,232,297.050024872,9.30100213736e-06,297.890757354,0.840742423898,,,,,x,1,0.817138766521,2018_Nov_27_1533,59.9877829445,spanish_cond1,001,1057,
images/volleyball.jpg,volley ball,z,sounds/greatgatsby_english.wav,,,,,,,,,0,0,0,0,0,104,104,2,299.022764324,9.30100213736e-06,299.807902246,0.785148506286,,,,,z,1,0.767104272731,2018_Nov_27_1533,59.9877829445,spanish_cond1,001,1057,
images/orange.jpg,bat,x,sounds/greatgatsby_english.wav,,,,,,,,,0,0,0,0,0,105,105,128,300.934054406,8.98027792573e-06,301.708398694,0.774354551686,,,,,x,1,0.750434981543,2018_Nov_27_1533,59.9877829445,spanish_cond1,001,1057,
images/nailpolish02b.jpg,nail polish,z,sounds/greatgatsby_english.wav,,,,,,,,,0,0,0,0,0,106,106,94,302.818034868,8.98027792573e-06,304.325753885,1.50772863836,,,,,z,1,1.48397873086,2018_Nov_27_1533,59.9877829445,spanish_cond1,001,1057,
images/cauliflower01.jpg,glue stick,x,sounds/greatgatsby_english.wav,,,,,,,,,0,0,0,0,0,107,107,181,305.44370482,9.30100213736e-06,306.142898104,0.699202905525,,,,,x,1,0.683778984123,2018_Nov_27_1533,59.9877829445,spanish_cond1,001,1057,
images/umbrella01.jpg,umbrella,z,sounds/greatgatsby_english.wav,,,,,,,,,0,0,0,0,0,108,108,53,307.257103949,8.98027792573e-06,308.060046203,0.802951876307,,,,,z,1,0.783776450437,2018_Nov_27_1533,59.9877829445,spanish_cond1,001,1057,
images/ladder.jpg,ladder,z,sounds/greatgatsby_english.wav,,,,,,,,,0,0,0,0,0,109,109,113,309.15394094,8.98027792573e-06,309.843856009,0.689925011597,,,,,z,1,0.66709942976,2018_Nov_27_1533,59.9877829445,spanish_cond1,001,1057,
images/tie01.jpg,bench,x,sounds/greatgatsby_english.wav,,,,,,,,,0,0,0,0,0,110,110,130,310.943690548,9.30088572204e-06,311.627640478,0.683959872345,,,,,x,1,0.667092373827,2018_Nov_27_1533,59.9877829445,spanish_cond1,001,1057,
images/acousticguitar02.jpg,acoustic guitar,z,sounds/greatgatsby_english.wav,,,,,,,,,0,0,0,0,0,111,111,97,312.742797268,9.30088572204e-06,313.62816005,0.885372724151,,,,,z,1,0.867143432959,2018_Nov_27_1533,59.9877829445,spanish_cond1,001,1057,
images/table02.jpg,table,z,sounds/greatgatsby_english.wav,,,,,,,,,0,0,0,0,0,112,112,49,314.744533025,9.621726349e-06,316.178824285,1.43430120242,,,,,x,0,1.41728937835,2018_Nov_27_1533,59.9877829445,spanish_cond1,001,1057,
images/ashtray02b.jpg,ashtray,z,sounds/greatgatsby_english.wav,,,,,,,,,0,0,0,0,0,113,113,43,317.293968246,8.98027792573e-06,318.279378207,0.985419902718,,,,,z,1,0.967180348351,2018_Nov_27_1533,59.9877829445,spanish_cond1,001,1057,
images/daisy.jpg,daisy,z,sounds/greatgatsby_english.wav,,,,,,,,,0,0,0,0,0,114,114,6,319.382021322,8.98027792573e-06,320.163184196,0.781172495103,,,,,z,1,0.767104272731,2018_Nov_27_1533,59.9877829445,spanish_cond1,001,1057,
images/toothbrush03a.jpg,parrot,x,sounds/greatgatsby_english.wav,,,,,,,,,0,0,0,0,0,115,115,210,321.257407995,9.30100213736e-06,321.996990009,0.739591635414,,,,,x,1,0.71710217197,2018_Nov_27_1533,59.9877829445,spanish_cond1,001,1057,
images/parkbench03.jpg,park bench,z,sounds/greatgatsby_english.wav,,,,,,,,,0,0,0,0,0,116,116,71,323.103979892,8.6595537141e-06,323.997506374,0.893535782583,,,,,z,1,0.883808554965,2018_Nov_27_1533,59.9877829445,spanish_cond1,001,1057,
images/pictureframe04.jpg,picture frame,z,sounds/greatgatsby_english.wav,,,,,,,,,0,0,0,0,0,117,117,41,325.121408978,9.30100213736e-06,325.764645285,0.643246570136,,,,,z,1,0.633741603815,2018_Nov_27_1533,59.9877829445,spanish_cond1,001,1057,
images/butterfly.jpg,butterfly,z,sounds/greatgatsby_english.wav,,,,,,,,,0,0,0,0,0,118,118,91,326.873690365,9.621726349e-06,328.198608444,1.32492834225,,,,,z,1,1.30059728364,2018_Nov_27_1533,59.9877829445,spanish_cond1,001,1057,
images/hairband.jpg,hairband,z,sounds/greatgatsby_english.wav,,,,,,,,,0,0,0,0,0,119,119,66,329.309820655,9.30100213736e-06,330.232458902,0.922648189589,,,,,z,1,0.900488109328,2018_Nov_27_1533,59.9877829445,spanish_cond1,001,1057,
images/comb02a.jpg,diploma,x,sounds/greatgatsby_english.wav,,,,,,,,,0,0,0,0,0,120,120,166,331.338776228,9.30100213736e-06,332.016258765,0.677492800518,,,,,x,1,0.667093015392,2018_Nov_27_1533,59.9877829445,spanish_cond1,001,1057,
images/headphones02b.jpg,headphones,z,sounds/greatgatsby_english.wav,,,,,,,,,0,0,0,0,0,121,121,101,333.126235869,8.98027792573e-06,334.250172148,1.1239507125,,,,,z,1,1.10053884785,2018_Nov_27_1533,59.9877829445,spanish_cond1,001,1057,
images/ear.jpg,bullet,x,sounds/greatgatsby_english.wav,,,,,,,,,0,0,0,0,0,122,122,139,335.356090494,8.98016151041e-06,336.384059842,1.02798089385,,,,,x,1,1.01719014649,2018_Nov_27_1533,59.9877829445,spanish_cond1,001,1057,
images/dreamcatcher.jpg,dream catcher,z,sounds/greatgatsby_english.wav,,,,,,,,,0,0,0,0,0,123,123,48,337.484664759,8.98027792573e-06,338.301221091,0.816566274851,,,,,z,1,0.800456967088,2018_Nov_27_1533,59.9877829445,spanish_cond1,001,1057,
images/corkscrew02a.jpg,masquerade mask,x,sounds/greatgatsby_english.wav,,,,,,,,,0,0,0,0,0,124,124,201,339.407090687,8.98016151041e-06,341.402014273,1.99493352836,,,,,x,1,1.98409563466,2018_Nov_27_1533,59.9877829445,spanish_cond1,001,1057,
images/parkfountain.jpg,park fountain,z,sounds/greatgatsby_english.wav,,,,,,,,,0,0,0,0,0,125,125,93,342.523832494,9.621726349e-06,344.369456332,1.84563345963,,,,,z,1,1.83405437355,2018_Nov_27_1533,59.9877829445,spanish_cond1,001,1057,
images/eraser.jpg,eraser,z,sounds/greatgatsby_english.wav,,,,,,,,,0,0,0,0,0,126,126,110,345.478789743,9.30100213736e-06,346.336642453,0.857862652629,,,,,z,1,0.833813830861,2018_Nov_27_1533,59.9877829445,spanish_cond1,001,1057,
images/bowlingball.jpg,bowling ball,z,sounds/greatgatsby_english.wav,,,,,,,,,0,0,0,0,0,127,127,20,347.470855681,8.98027792573e-06,348.587222883,1.1163768234,,,,,z,1,1.10053596133,2018_Nov_27_1533,59.9877829445,spanish_cond1,001,1057,
images/lipstick04.jpg,lipstick,z,sounds/greatgatsby_english.wav,,,,,,,,,0,0,0,0,0,128,128,56,349.688870793,9.30100213736e-06,350.704449303,1.0155887733,,,,,z,1,1.00052374182,2018_Nov_27_1533,59.9877829445,spanish_cond1,001,1057,
images/glasses01b.jpg,calculator,x,sounds/greatgatsby_english.wav,,,,,,,,,0,0,0,0,0,129,129,142,351.799171186,8.98027792573e-06,352.888327231,1.08916630782,,,,,x,1,1.06719673728,2018_Nov_27_1533,59.9877829445,spanish_cond1,001,1057,
images/banana04a.jpg,banana,z,sounds/greatgatsby_english.wav,,,,,,,,,0,0,0,0,0,130,130,118,353.996379671,9.30100213736e-06,355.255613225,1.25924317562,,,,,z,1,1.25058235403,2018_Nov_27_1533,59.9877829445,spanish_cond1,001,1057,
images/pineapple01a.jpg,pineapple,z,sounds/greatgatsby_english.wav,,,,,,,,,0,0,0,0,0,131,131,51,356.370092647,8.6595537141e-06,357.839620853,1.46953814826,,,,,z,1,1.45063277171,2018_Nov_27_1533,59.9877829445,spanish_cond1,001,1057,
images/hat05.jpg,hat,z,sounds/greatgatsby_english.wav,,,,,,,,,0,0,0,0,0,132,132,15,358.9455129,9.30100213736e-06,359.573406749,0.627904112684,,,,,z,1,0.617081292788,2018_Nov_27_1533,59.9877829445,spanish_cond1,001,1057,
images/pingpongpaddle01c (1).jpg,ping pong paddle,z,sounds/greatgatsby_english.wav,,,,,,,,,0,0,0,0,0,133,133,10,360.68682618,9.30100213736e-06,361.623952477,0.937136239256,,,,,z,1,0.917184662074,2018_Nov_27_1533,59.9877829445,spanish_cond1,001,1057,
images/computermouse02a.jpg,world map,x,sounds/greatgatsby_english.wav,,,,,,,,,0,0,0,0,0,134,134,239,362.726406045,8.98027792573e-06,363.441077452,0.714681029087,,,,,x,1,0.700438333093,2018_Nov_27_1533,59.9877829445,spanish_cond1,001,1057,
images/gps.jpg,gps,z,sounds/greatgatsby_english.wav,,,,,,,,,0,0,0,0,0,135,135,21,364.561363576,9.30100213736e-06,365.441597666,0.880244032247,,,,,z,1,0.867152734078,2018_Nov_27_1533,59.9877829445,spanish_cond1,001,1057,
images/giraffe.jpg,lettuce,x,sounds/greatgatsby_english.wav,,,,,,,,,0,0,0,0,0,136,136,195,366.544935469,8.98027792573e-06,367.408932924,0.864006755757,,,,,x,1,0.850643163198,2018_Nov_27_1533,59.9877829445,spanish_cond1,001,1057,
images/weight01.jpg,weight,z,sounds/greatgatsby_english.wav,,,,,,,,,0,0,0,0,0,137,137,67,368.51582242,9.30100213736e-06,369.192563445,0.676751287538,,,,,z,1,0.667086280067,2018_Nov_27_1533,59.9877829445,spanish_cond1,001,1057,
images/flower01.jpg,bus,x,sounds/greatgatsby_english.wav,,,,,,,,,0,0,0,0,0,138,138,140,370.310041954,9.30100213736e-06,371.509818474,1.19978710357,,,,,x,1,1.18388819054,2018_Nov_27_1533,59.9877829445,spanish_cond1,001,1057,
images/tissuebox03.jpg,tissue box,z,sounds/greatgatsby_english.wav,,,,,,,,,0,0,0,0,0,139,139,58,372.635817648,9.621726349e-06,375.110753255,2.47494586988,,,,,z,1,2.45088133251,2018_Nov_27_1533,59.9877829445,spanish_cond1,001,1057,
images/floorlamp.jpg,floor lamp,z,sounds/greatgatsby_english.wav,,,,,,,,,0,0,0,0,0,140,140,26,376.205138378,9.30100213736e-06,377.394674512,1.18954543513,,,,,z,1,1.16720190097,2018_Nov_27_1533,59.9877829445,spanish_cond1,001,1057,
images/highlighter03b.jpg,coin,x,sounds/greatgatsby_english.wav,,,,,,,,,0,0,0,0,0,141,141,156,378.496883368,9.621726349e-06,379.31183512,0.814962335862,,,,,x,1,0.800451194053,2018_Nov_27_1533,59.9877829445,spanish_cond1,001,1057,
images/notebook02b.jpg,notebook,z,sounds/greatgatsby_english.wav,,,,,,,,,0,0,0,0,0,142,142,7,380.42025511,8.98027792573e-06,381.745799883,1.32555439498,,,,,z,1,1.31724123773,2018_Nov_27_1533,59.9877829445,spanish_cond1,001,1057,
images/ant.jpg,ant,z,sounds/greatgatsby_english.wav,,,,,,,,,0,0,0,0,0,143,143,98,382.895375454,9.621726349e-06,383.612967691,0.717602821533,,,,,z,1,0.700436729472,2018_Nov_27_1533,59.9877829445,spanish_cond1,001,1057,
images/candle08a.jpg,screw driver,x,sounds/greatgatsby_english.wav,,,,,,,,,0,0,0,0,0,144,144,221,384.729052656,9.94245056063e-06,385.363408766,0.634366373532,,,,,x,1,0.617071350454,2018_Nov_27_1533,59.9877829445,spanish_cond1,001,1057,
images/envelope02a.jpg,grand piano,x,sounds/greatgatsby_english.wav,,,,,,,,,0,0,0,0,0,145,145,182,386.488536535,9.30100213736e-06,387.247239772,0.758713179734,,,,,x,1,0.750451979809,2018_Nov_27_1533,59.9877829445,spanish_cond1,001,1057,
images/knife04.jpg,tooth brush,x,sounds/greatgatsby_english.wav,,,,,,,,,0,0,0,0,0,146,146,233,388.346596753,9.30100213736e-06,389.414465727,1.0678785959,,,,,x,1,1.05051846581,2018_Nov_27_1533,59.9877829445,spanish_cond1,001,1057,
images/squirrel.jpg,binder,x,sounds/greatgatsby_english.wav,,,,,,,,,0,0,0,0,0,147,147,132,390.518588021,9.30100213736e-06,391.331482009,0.812904893537,,,,,x,1,0.800286662765,2018_Nov_27_1533,59.9877829445,spanish_cond1,001,1057,
images/parkingmeter.jpg,ear,x,sounds/greatgatsby_english.wav,,,,,,,,,0,0,0,0,0,148,148,171,392.434422115,9.621726349e-06,393.415505834,0.981093982002,,,,,x,1,0.967171688913,2018_Nov_27_1533,59.9877829445,spanish_cond1,001,1057,
images/icecube02 (2).jpg,aloe,x,sounds/greatgatsby_english.wav,,,,,,,,,0,0,0,0,0,149,149,122,394.528317493,9.30100213736e-06,395.382699011,0.85439146054,,,,,x,1,0.833821528242,2018_Nov_27_1533,59.9877829445,spanish_cond1,001,1057,
images/lamp04b.jpg,parking meter,x,sounds/greatgatsby_english.wav,,,,,,,,,0,0,0,0,0,150,150,209,396.505350152,9.94245056063e-06,398.333452536,1.82811232645,,,,,x,1,1.81740336365,2018_Nov_27_1533,59.9877829445,spanish_cond1,001,1057,
images/camera01a.jpg,bull,x,sounds/greatgatsby_english.wav,,,,,,,,,0,0,0,0,0,151,151,138,399.446409803,9.62160993367e-06,400.383974529,0.937574668438,,,,,x,1,0.917163494392,2018_Nov_27_1533,59.9877829445,spanish_cond1,001,1057,
images/straw.jpg,straw,z,sounds/greatgatsby_english.wav,,,,,,,,,0,0,0,0,0,152,152,109,401.476997539,9.621726349e-06,402.084417353,0.607429755852,,,,,z,1,0.583741106791,2018_Nov_27_1533,59.9877829445,spanish_cond1,001,1057,
images/bowtie.jpg,bowtie,z,sounds/greatgatsby_english.wav,,,,,,,,,0,0,0,0,0,153,153,89,403.196652671,9.30100213736e-06,403.884883621,0.688241212396,,,,,z,1,0.667097505531,2018_Nov_27_1533,59.9877829445,spanish_cond1,001,1057,
images/handbag02a.jpg,candle,x,sounds/greatgatsby_english.wav,,,,,,,,,0,0,0,0,0,154,154,144,405.003234177,9.621726349e-06,405.81854963,0.815325394971,,,,,x,1,0.80029083218,2018_Nov_27_1533,59.9877829445,spanish_cond1,001,1057,
images/lollipop03b.jpg,lollipop,z,sounds/greatgatsby_english.wav,,,,,,,,,0,0,0,0,0,155,155,42,406.912504021,9.30100213736e-06,407.852572957,0.940078558051,,,,,z,1,0.917155797011,2018_Nov_27_1533,59.9877829445,spanish_cond1,001,1057,
images/safe.jpg,safe,z,sounds/greatgatsby_english.wav,,,,,,,,,0,0,0,0,0,156,156,78,408.9654834,9.30100213736e-06,409.769732282,0.804259145982,,,,,z,1,0.783777092001,2018_Nov_27_1533,59.9877829445,spanish_cond1,001,1057,
images/binder03b.jpg,dj mixer,x,sounds/greatgatsby_english.wav,,,,,,,,,0,0,0,0,0,157,157,167,410.884343522,8.98027792573e-06,412.303725302,1.4193910805,,,,,x,1,1.40061559703,2018_Nov_27_1533,59.9877829445,spanish_cond1,001,1057,
images/cherry01.jpg,highlighter,x,sounds/greatgatsby_english.wav,,,,,,,,,0,0,0,0,0,158,158,187,413.414758548,8.98027792573e-06,414.187557269,0.772808022215,,,,,x,1,0.750449414016,2018_Nov_27_1533,59.9877829445,spanish_cond1,001,1057,
images/candy.jpg,candy,z,sounds/greatgatsby_english.wav,,,,,,,,,0,0,0,0,0,159,159,31,415.291907918,8.98027792573e-06,415.954671805,0.662773509161,,,,,z,1,0.6504121779,2018_Nov_27_1533,59.9877829445,spanish_cond1,001,1057,
images/highheelshoe02a.jpg,high heel shoe,z,sounds/greatgatsby_english.wav,,,,,,,,,0,0,0,0,0,160,160,75,417.063432725,9.30100213736e-06,418.15527932,1.09185653774,,,,,z,1,1.08387661248,2018_Nov_27_1533,59.9877829445,spanish_cond1,001,1057,
images/backpack01b.jpg,swallow,x,sounds/greatgatsby_english.wav,,,,,,,,,0,0,0,0,0,161,161,228,419.288073025,9.30100213736e-06,421.606146541,2.31808345811,,,,,x,1,2.3008477689,2018_Nov_27_1533,59.9877829445,spanish_cond1,001,1057,
images/swan.jpg,swan,z,sounds/greatgatsby_english.wav,,,,,,,,,0,0,0,0,0,162,162,54,422.700382527,9.94233414531e-06,423.640022335,0.939650071203,,,,,z,1,0.917181134224,2018_Nov_27_1533,59.9877829445,spanish_cond1,001,1057,
images/cheetah.jpg,cheetah,z,sounds/greatgatsby_english.wav,,,,,,,,,0,0,0,0,0,163,163,82,424.744274842,9.62160993367e-06,425.573891363,0.829627424944,,,,,z,1,0.817185271415,2018_Nov_27_1533,59.9877829445,spanish_cond1,001,1057,
images/cake.jpg,cake,z,sounds/greatgatsby_english.wav,,,,,,,,,0,0,0,0,0,164,164,23,426.690639584,8.6595537141e-06,427.574356733,0.883726449683,,,,,z,1,0.867144074524,2018_Nov_27_1533,59.9877829445,spanish_cond1,001,1057,
images/ostrich.jpg,ostrich,z,sounds/greatgatsby_english.wav,,,,,,,,,0,0,0,0,0,165,165,76,428.676581945,9.30100213736e-06,429.441506901,0.764935218613,,,,,z,1,0.750441716635,2018_Nov_27_1533,59.9877829445,spanish_cond1,001,1057,
images/pipe.jpg,icecube,x,sounds/greatgatsby_english.wav,,,,,,,,,0,0,0,0,0,166,166,188,430.552479851,9.621726349e-06,431.47537564,0.922906372114,,,,,x,1,0.900496127317,2018_Nov_27_1533,59.9877829445,spanish_cond1,001,1057,
images/rhinoceros01.jpg,envelope,x,sounds/greatgatsby_english.wav,,,,,,,,,0,0,0,0,0,167,167,173,432.587828409,9.30100213736e-06,433.359186119,0.77136797295,,,,,x,1,0.750447168946,2018_Nov_27_1533,59.9877829445,spanish_cond1,001,1057,
images/atm.jpg,atm,z,sounds/greatgatsby_english.wav,,,,,,,,,0,0,0,0,0,168,168,96,434.49872336,9.621726349e-06,435.476424727,0.977710988838,,,,,z,1,0.967189007904,2018_Nov_27_1533,59.9877829445,spanish_cond1,001,1057,
images/cockroach02.jpg,belt,x,sounds/greatgatsby_english.wav,,,,,,,,,0,0,0,0,0,169,169,129,436.575930203,9.30100213736e-06,438.093741431,1.517821491,,,,,x,1,1.50063775899,2018_Nov_27_1533,59.9877829445,spanish_cond1,001,1057,
images/electrictoothbrush01a.jpg,banjo,x,sounds/greatgatsby_english.wav,,,,,,,,,0,0,0,0,0,170,170,127,439.19043833,9.621726349e-06,440.777781805,1.58735373802,,,,,x,1,1.56732807367,2018_Nov_27_1533,59.9877829445,spanish_cond1,001,1057,
images/chessknight02b (1).jpg,cockroach,x,sounds/greatgatsby_english.wav,,,,,,,,,0,0,0,0,0,171,171,155,441.888631918,9.30100213736e-06,442.84498207,0.956360415206,,,,,x,1,0.933837596443,2018_Nov_27_1533,59.9877829445,spanish_cond1,001,1057,
images/bus.jpg,microphone,x,sounds/greatgatsby_english.wav,,,,,,,,,0,0,0,0,0,172,172,203,443.965672947,9.30100213736e-06,446.962549419,2.99688705616,,,,,None,0,,2018_Nov_27_1533,59.9877829445,spanish_cond1,001,1057,
images/doll.jpg,carrot,x,sounds/greatgatsby_english.wav,,,,,,,,,0,0,0,0,0,173,173,146,448.075757814,9.94245056063e-06,448.879874238,0.804127007956,,,,,x,1,0.783791845199,2018_Nov_27_1533,59.9877829445,spanish_cond1,001,1057,
images/cupcake.jpg,scissors,x,sounds/greatgatsby_english.wav,,,,,,,,,0,0,0,0,0,174,174,219,449.99966773,9.30100213736e-06,450.947069051,0.947411583737,,,,,x,1,0.933827012544,2018_Nov_27_1533,59.9877829445,spanish_cond1,001,1057,
images/grasshopper.jpg,cauliflower,x,sounds/greatgatsby_english.wav,,,,,,,,,0,0,0,0,0,175,175,148,452.040729659,9.621726349e-06,452.880927494,0.840208419133,,,,,x,1,0.817152236821,2018_Nov_27_1533,59.9877829445,spanish_cond1,001,1057,
images/radio03a.jpg,radio,z,sounds/greatgatsby_english.wav,,,,,,,,,0,0,0,0,0,176,176,37,453.996527846,8.98027792573e-06,454.698049583,0.701532000676,,,,,z,1,0.68376840034,2018_Nov_27_1533,59.9877829445,spanish_cond1,001,1057,
images/djmixer01.jpg,light bulb,x,sounds/greatgatsby_english.wav,,,,,,,,,0,0,0,0,0,177,177,196,455.82204648,9.94245056063e-06,456.615223341,0.793187124073,,,,,x,1,0.78379954258,2018_Nov_27_1533,59.9877829445,spanish_cond1,001,1057,
images/lettuce.jpg,mushroom,x,sounds/greatgatsby_english.wav,,,,,,,,,0,0,0,0,0,178,178,205,457.740947655,9.621726349e-06,459.26590621,1.5249688176,,,,,x,1,1.50065026723,2018_Nov_27_1533,59.9877829445,spanish_cond1,001,1057,
images/bullet (2).jpg,rubber glove,x,sounds/greatgatsby_english.wav,,,,,,,,,0,0,0,0,0,179,179,217,460.37223893,9.30100213736e-06,461.249744303,0.877515636035,,,,,x,1,0.867150489008,2018_Nov_27_1533,59.9877829445,spanish_cond1,001,1057,
images/licenseplate.jpg,license plate,z,sounds/greatgatsby_english.wav,,,,,,,,,0,0,0,0,0,180,180,40,462.369328684,9.621726349e-06,463.000205584,0.630886842613,,,,,z,1,0.617081613629,2018_Nov_27_1533,59.9877829445,spanish_cond1,001,1057,
images/beachumbrella01.jpg,beach umbrella,z,sounds/greatgatsby_english.wav,,,,,,,,,0,0,0,0,0,181,181,92,464.107534152,8.98027792573e-06,465.017387071,0.909862541012,,,,,z,1,0.900486826431,2018_Nov_27_1533,59.9877829445,spanish_cond1,001,1057,
images/antelope.jpg,antelope,z,sounds/greatgatsby_english.wav,,,,,,,,,0,0,0,0,0,182,182,12,466.123669117,9.621726349e-06,467.101261759,0.977602584288,,,,,z,1,0.967172971694,2018_Nov_27_1533,59.9877829445,spanish_cond1,001,1057,
images/raisin.jpg,ruler,x,sounds/greatgatsby_english.wav,,,,,,,,,0,0,0,0,0,183,183,218,468.20695624,9.621726349e-06,469.26849894,1.06155360467,,,,,x,1,1.0505194281,2018_Nov_27_1533,59.9877829445,spanish_cond1,001,1057,
images/bracelet02a.jpg,chess knight,x,sounds/greatgatsby_english.wav,,,,,,,,,0,0,0,0,0,184,184,152,470.379460023,9.30100213736e-06,471.402379898,1.02293013781,,,,,x,1,1.00051957229,2018_Nov_27_1533,59.9877829445,spanish_cond1,001,1057,
images/bat.jpg,hand,x,sounds/greatgatsby_english.wav,,,,,,,,,0,0,0,0,0,185,185,185,472.50239308,9.621726349e-06,473.369556718,0.867173901876,,,,,x,1,0.850474783219,2018_Nov_27_1533,59.9877829445,spanish_cond1,001,1057,
images/parrot01.jpg,chameleon,x,sounds/greatgatsby_english.wav,,,,,,,,,0,0,0,0,0,186,186,150,474.483695532,9.30100213736e-06,475.453433972,0.969748382689,,,,,x,1,0.950508491253,2018_Nov_27_1533,59.9877829445,spanish_cond1,001,1057,
images/lighter02b.jpg,stapler,x,sounds/greatgatsby_english.wav,,,,,,,,,0,0,0,0,0,187,187,227,476.557202507,8.98027792573e-06,477.18722949,0.630036604241,,,,,x,1,0.617102460703,2018_Nov_27_1533,59.9877829445,spanish_cond1,001,1057,
images/screw03c.jpg,screw,z,sounds/greatgatsby_english.wav,,,,,,,,,0,0,0,0,0,188,188,84,478.283132277,9.621726349e-06,478.820959227,0.537837212905,,,,,z,1,0.517037963029,2018_Nov_27_1533,59.9877829445,spanish_cond1,001,1057,
images/cocktailshrimp01.jpg,cocktail shrimp,z,sounds/greatgatsby_english.wav,,,,,,,,,0,0,0,0,0,189,189,30,479.938288279,9.30100213736e-06,480.738131381,0.799853044446,,,,,z,1,0.783795373281,2018_Nov_27_1533,59.9877829445,spanish_cond1,001,1057,
images/leaf01a.jpg,leaf,z,sounds/greatgatsby_english.wav,,,,,,,,,0,0,0,0,0,190,190,68,481.843006412,8.6595537141e-06,482.488594265,0.645597474533,,,,,z,1,0.633761167992,2018_Nov_27_1533,59.9877829445,spanish_cond1,001,1057,
images/paintbrush03a.jpg,paint brush,z,sounds/greatgatsby_english.wav,,,,,,,,,0,0,0,0,0,191,191,0,483.590442948,9.30100213736e-06,484.205697078,0.615264072665,,,,,z,1,0.600410718704,2018_Nov_27_1533,59.9877829445,spanish_cond1,001,1057,
images/clothespin02a.jpg,clothes pin,z,sounds/greatgatsby_english.wav,,,,,,,,,0,0,0,0,0,192,192,79,485.313840605,9.94245056063e-06,486.006168157,0.692338136374,,,,,z,1,0.683726385469,2018_Nov_27_1533,59.9877829445,spanish_cond1,001,1057,
images/ladybug03.jpg,giraffe,x,sounds/greatgatsby_english.wav,,,,,,,,,0,0,0,0,0,193,193,178,487.111485788,9.621726349e-06,487.739941866,0.628466661903,,,,,x,1,0.617047616979,2018_Nov_27_1533,59.9877829445,spanish_cond1,001,1057,
images/mailbox01.jpg,mail box,z,sounds/greatgatsby_english.wav,,,,,,,,,0,0,0,0,0,194,194,73,488.861065399,9.94245056063e-06,489.623782493,0.76272799843,,,,,z,1,0.75043401937,2018_Nov_27_1533,59.9877829445,spanish_cond1,001,1057,
images/watermelon01.jpg,orange,x,sounds/greatgatsby_english.wav,,,,,,,,,0,0,0,0,0,195,195,207,490.754464233,8.98027792573e-06,491.40756632,0.653111708933,,,,,x,1,0.633758281474,2018_Nov_27_1533,59.9877829445,spanish_cond1,001,1057,
images/peach01.jpg,peach,z,sounds/greatgatsby_english.wav,,,,,,,,,0,0,0,0,0,196,196,106,492.538516185,9.621726349e-06,493.574827876,1.03632227471,,,,,z,1,1.01722382242,2018_Nov_27_1533,59.9877829445,spanish_cond1,001,1057,
images/scooter.jpg,pen,x,sounds/greatgatsby_english.wav,,,,,,,,,0,0,0,0,0,197,197,212,494.669571889,8.98027792573e-06,495.458607245,0.789044977981,,,,,x,1,0.767109724926,2018_Nov_27_1533,59.9877829445,spanish_cond1,001,1057,
images/graduationcap.jpg,graduation cap,z,sounds/greatgatsby_english.wav,,,,,,,,,0,0,0,0,0,198,198,35,496.562775722,8.98027792573e-06,497.409114132,0.846347711282,,,,,z,1,0.833794266684,2018_Nov_27_1533,59.9877829445,spanish_cond1,001,1057,
images/calculator02b.jpg,dice,x,sounds/greatgatsby_english.wav,,,,,,,,,0,0,0,0,0,199,199,165,498.512779394,9.30100213736e-06,499.276488166,0.76371871389,,,,,x,1,0.750615869532,2018_Nov_27_1533,59.9877829445,spanish_cond1,001,1057,
images/banjo.jpg,knife,x,sounds/greatgatsby_english.wav,,,,,,,,,0,0,0,0,0,200,200,191,500.374628321,9.30100213736e-06,501.24343631,0.868818572722,,,,,x,1,0.850465482217,2018_Nov_27_1533,59.9877829445,spanish_cond1,001,1057,
images/fork01.jpg,cooking pot,x,sounds/greatgatsby_english.wav,,,,,,,,,0,0,0,0,0,201,201,160,502.339266614,9.94245056063e-06,503.377336833,1.03808048181,,,,,x,1,1.01719720231,2018_Nov_27_1533,59.9877829445,spanish_cond1,001,1057,
images/puma.jpg,puma,z,sounds/greatgatsby_english.wav,,,,,,,,,0,0,0,0,0,202,202,4,504.476920245,8.98027792573e-06,505.26114635,0.784236047417,,,,,z,1,0.767111649388,2018_Nov_27_1533,59.9877829445,spanish_cond1,001,1057,
images/boxingglove02a.jpg,bracelet,x,sounds/greatgatsby_english.wav,,,,,,,,,0,0,0,0,0,203,203,135,506.374718765,8.6595537141e-06,507.111629472,0.736920007388,,,,,x,1,0.717102492694,2018_Nov_27_1533,59.9877829445,spanish_cond1,001,1057,
images/coin01b.jpg,arrow,x,sounds/greatgatsby_english.wav,,,,,,,,,0,0,0,0,0,204,204,124,508.218020885,8.98027792573e-06,508.962116763,0.744106141618,,,,,x,1,0.733780443552,2018_Nov_27_1533,59.9877829445,spanish_cond1,001,1057,
images/microphone01.jpg,diaper,x,sounds/greatgatsby_english.wav,,,,,,,,,0,0,0,0,0,205,205,164,510.062896475,9.30100213736e-06,511.06265497,0.999768437585,,,,,x,1,0.983840017929,2018_Nov_27_1533,59.9877829445,spanish_cond1,001,1057,
images/lightswitch02a.jpg,fork,x,sounds/greatgatsby_english.wav,,,,,,,,,0,0,0,0,0,206,206,177,512.176340922,1.02631747723e-05,512.812948512,0.636618815828,,,,,x,1,0.616901366971,2018_Nov_27_1533,59.9877829445,spanish_cond1,001,1057,
images/cookingpot.jpg,grasshopper,x,sounds/greatgatsby_english.wav,,,,,,,,,0,0,0,0,0,207,207,183,513.929019686,9.30100213736e-06,514.630281958,0.70127221453,,,,,x,1,0.683768079616,2018_Nov_27_1533,59.9877829445,spanish_cond1,001,1057,
images/grandpiano.jpg,tulip,x,sounds/greatgatsby_english.wav,,,,,,,,,0,0,0,0,0,208,208,236,515.746369488,9.621726349e-06,516.614094394,0.867735168198,,,,,x,1,0.85046644439,2018_Nov_27_1533,59.9877829445,spanish_cond1,001,1057,
images/bed.jpg,bed,z,sounds/greatgatsby_english.wav,,,,,,,,,0,0,0,0,0,209,209,103,517.735784646,9.621726349e-06,518.531261416,0.795486712595,,,,,z,1,0.783791203867,2018_Nov_27_1533,59.9877829445,spanish_cond1,001,1057,
images/battery03b.jpg,battery,z,sounds/greatgatsby_english.wav,,,,,,,,,0,0,0,0,0,210,210,34,519.64264361,9.30100213736e-06,520.348387674,0.705754327588,,,,,z,1,0.68375621282,2018_Nov_27_1533,59.9877829445,spanish_cond1,001,1057,
images/belt02a.jpg,snowman,x,sounds/greatgatsby_english.wav,,,,,,,,,0,0,0,0,0,211,211,224,521.453891003,9.621726349e-06,522.232217718,0.778336977353,,,,,x,1,0.767049749615,2018_Nov_27_1533,59.9877829445,spanish_cond1,001,1057,
images/hammer02a.jpg,flower,x,sounds/greatgatsby_english.wav,,,,,,,,,0,0,0,0,0,212,212,176,523.329608983,9.621726349e-06,524.216078903,0.886479862267,,,,,x,1,0.867152734078,2018_Nov_27_1533,59.9877829445,spanish_cond1,001,1057,
images/bicycle.jpg,hand bag,x,sounds/greatgatsby_english.wav,,,,,,,,,0,0,0,0,0,213,213,186,525.327933523,9.621726349e-06,526.183257006,0.855333105195,,,,,x,1,0.833821207518,2018_Nov_27_1533,59.9877829445,spanish_cond1,001,1057,
images/sunglasses03a.jpg,sun glasses,z,sounds/greatgatsby_english.wav,,,,,,,,,0,0,0,0,0,214,214,17,527.292206191,8.98027792573e-06,528.317120004,1.02492407663,,,,,z,1,1.00050578127,2018_Nov_27_1533,59.9877829445,spanish_cond1,001,1057,
images/gamecontroller01.jpg,game controller,z,sounds/greatgatsby_english.wav,,,,,,,,,0,0,0,0,0,215,215,112,529.439698661,9.62160993367e-06,530.084271744,0.64458366693,,,,,z,1,0.63377399696,2018_Nov_27_1533,59.9877829445,spanish_cond1,001,1057,
images/medal01.jpg,medal,z,sounds/greatgatsby_english.wav,,,,,,,,,0,0,0,0,0,216,216,115,531.187439243,9.30100213736e-06,531.851372168,0.663943188265,,,,,z,1,0.650405442808,2018_Nov_27_1533,59.9877829445,spanish_cond1,001,1057,
images/lion.jpg,lion,z,sounds/greatgatsby_english.wav,,,,,,,,,0,0,0,0,0,217,217,44,532.965719131,8.98027792573e-06,533.535161095,0.569451585063,,,,,z,1,0.550398354768,2018_Nov_27_1533,59.9877829445,spanish_cond1,001,1057,
images/candycane01a.jpg,lip,x,sounds/greatgatsby_english.wav,,,,,,,,,0,0,0,0,0,218,218,200,534.63101866,8.98027792573e-06,535.418961952,0.787952913903,,,,,x,1,0.767117743031,2018_Nov_27_1533,59.9877829445,spanish_cond1,001,1057,
images/tulip02.jpg,sport shorts,x,sounds/greatgatsby_english.wav,,,,,,,,,0,0,0,0,0,219,219,225,536.515873736,9.621726349e-06,537.41950173,0.903637615615,,,,,x,1,0.883828119026,2018_Nov_27_1533,59.9877829445,spanish_cond1,001,1057,
images/bowl02b (1).jpg,bowl,z,sounds/greatgatsby_english.wav,,,,,,,,,0,0,0,0,0,220,220,24,538.539414532,9.62160993367e-06,539.286651257,0.74724666751,,,,,z,1,0.733780443436,2018_Nov_27_1533,59.9877829445,spanish_cond1,001,1057,
images/lantern03.jpg,lantern,z,sounds/greatgatsby_english.wav,,,,,,,,,0,0,0,0,0,221,221,5,540.395873056,9.621726349e-06,541.070425142,0.67456780083,,,,,z,1,0.650413781521,2018_Nov_27_1533,59.9877829445,spanish_cond1,001,1057,
images/dolphin01.jpg,dolphin,z,sounds/greatgatsby_english.wav,,,,,,,,,0,0,0,0,0,222,222,99,542.173022715,8.6595537141e-06,542.720866506,0.547853733297,,,,,z,1,0.533718158957,2018_Nov_27_1533,59.9877829445,spanish_cond1,001,1057,
images/arrow02.jpg,hammer,x,sounds/greatgatsby_english.wav,,,,,,,,,0,0,0,0,0,223,223,184,543.819957286,8.98016151041e-06,544.521345923,0.701398258912,,,,,x,1,0.683782832813,2018_Nov_27_1533,59.9877829445,spanish_cond1,001,1057,
images/aquarium.jpg,computer mouse,x,sounds/greatgatsby_english.wav,,,,,,,,,0,0,0,0,0,224,224,159,545.659056001,9.62160993367e-06,547.488776115,1.82972973573,,,,,x,1,1.8173828373,2018_Nov_27_1533,59.9877829445,spanish_cond1,001,1057,
images/cat.jpg,black olive,x,sounds/greatgatsby_english.wav,,,,,,,,,0,0,0,0,0,225,225,133,548.62135237,2.18091299757e-05,549.522639081,0.90130948252,,,,,x,1,0.883822025266,2018_Nov_27_1533,59.9877829445,spanish_cond1,001,1057,
images/aloe02.jpg,broad sword,x,sounds/greatgatsby_english.wav,,,,,,,,,0,0,0,0,0,226,226,137,550.645467902,9.30100213736e-06,551.973268646,1.32781068585,,,,,x,1,1.31727651728,2018_Nov_27_1533,59.9877829445,spanish_cond1,001,1057,
images/beermug01b.jpg,beer mug,z,sounds/greatgatsby_english.wav,,,,,,,,,0,0,0,0,0,227,227,111,553.092395033,9.621726349e-06,554.09047935,0.998094580835,,,,,x,0,0.983837772859,2018_Nov_27_1533,59.9877829445,spanish_cond1,001,1057,
images/nailclipper03a.jpg,aquarium,x,sounds/greatgatsby_english.wav,,,,,,,,,0,0,0,0,0,228,228,123,555.192837663,8.65943729877e-06,556.324387602,1.13155956042,,,,,x,1,1.11720589409,2018_Nov_27_1533,59.9877829445,spanish_cond1,001,1057,
images/masquerademask02b.jpg,mirror,x,sounds/greatgatsby_english.wav,,,,,,,,,0,0,0,0,0,229,229,204,557.431424953,1.02631747723e-05,558.158198547,0.726784498431,,,,,x,1,0.717110190075,2018_Nov_27_1533,59.9877829445,spanish_cond1,001,1057,
images/handfan01b.jpg,handfan,z,sounds/greatgatsby_english.wav,,,,,,,,,0,0,0,0,0,230,230,69,559.273555789,8.98016151041e-06,560.258743167,0.985197641072,,,,,z,1,0.967172971694,2018_Nov_27_1533,59.9877829445,spanish_cond1,001,1057,
images/mushroom01.jpg,shower head,x,sounds/greatgatsby_english.wav,,,,,,,,,0,0,0,0,0,231,231,222,561.377761471,8.98027792573e-06,562.275938445,0.898186596343,,,,,x,1,0.883823949727,2018_Nov_27_1533,59.9877829445,spanish_cond1,001,1057,
,,,sounds/greatgatsby_english.wav,,,,,,,,,0,0,0,0,,,,,,,,,,,,,,,,2018_Nov_27_1533,59.9877829445,spanish_cond1,001,1057,
images/printer03a.jpg,printer,z,sounds/animalfarm_spanish.wav,,,,,,,,,0,1,1,1,0,0,0,72,583.409583351,9.621726349e-06,584.915138124,1.50556535728,,,,573.278973453,z,1,1.48397103359,2018_Nov_27_1533,59.9877829445,spanish_cond1,001,1057,
images/nailpolish02b.jpg,nail polish,z,sounds/animalfarm_spanish.wav,,,,,,,,,0,1,1,1,0,1,1,94,586.023508082,8.98027792573e-06,587.015678255,0.992180436617,,,,,z,1,0.98383552779,2018_Nov_27_1533,59.9877829445,spanish_cond1,001,1057,
images/masquerademask02b.jpg,mirror,x,sounds/animalfarm_spanish.wav,,,,,,,,,0,1,1,1,0,2,2,204,588.120297029,9.30088572204e-06,589.11622031,0.995932582533,,,,,x,1,0.983827509684,2018_Nov_27_1533,59.9877829445,spanish_cond1,001,1057,
images/lighter02b.jpg,stapler,x,sounds/animalfarm_spanish.wav,,,,,,,,,0,1,1,1,0,3,3,227,590.217115161,8.98027792573e-06,591.250099344,1.032994446,,,,,x,1,1.01717186521,2018_Nov_27_1533,59.9877829445,spanish_cond1,001,1057,
images/camera01a.jpg,bull,x,sounds/animalfarm_spanish.wav,,,,,,,,,0,1,1,1,0,4,4,138,592.358698298,9.30100213736e-06,593.133923935,0.775235579466,,,,,x,1,0.767111649388,2018_Nov_27_1533,59.9877829445,spanish_cond1,001,1057,
images/handbag02a.jpg,candle,x,sounds/animalfarm_spanish.wav,,,,,,,,,0,1,1,1,0,5,5,144,594.24957464,9.30100213736e-06,595.301235203,1.05168301344,,,,,x,1,1.03384917462,2018_Nov_27_1533,59.9877829445,spanish_cond1,001,1057,
images/50dollarbill.jpg,cherry,x,sounds/animalfarm_spanish.wav,,,,,,,,,0,1,1,1,0,6,6,151,596.421937626,9.30100213736e-06,597.184986028,0.76305866451,,,,,x,1,0.750457752845,2018_Nov_27_1533,59.9877829445,spanish_cond1,001,1057,
images/dragonfly02.jpg,dragon fly,z,sounds/animalfarm_spanish.wav,,,,,,,,,0,1,1,1,0,7,7,29,598.282284925,9.94233414531e-06,598.935426462,0.653151158011,,,,,z,1,0.633735830779,2018_Nov_27_1533,59.9877829445,spanish_cond1,001,1057,
images/grandpiano.jpg,tulip,x,sounds/animalfarm_spanish.wav,,,,,,,,,0,1,1,1,0,8,8,236,600.04935488,9.30100213736e-06,600.619223727,0.569879109622,,,,,x,1,0.550415673875,2018_Nov_27_1533,59.9877829445,spanish_cond1,001,1057,
images/pen03c.jpg,pepper,x,sounds/animalfarm_spanish.wav,,,,,,,,,0,1,1,1,0,9,9,211,601.712686769,9.94245056063e-06,602.736405887,1.0237300226,,,,,x,1,1.00050449825,2018_Nov_27_1533,59.9877829445,spanish_cond1,001,1057,
images/cat.jpg,black olive,x,sounds/animalfarm_spanish.wav,,,,,,,,,0,1,1,1,0,10,10,133,603.866426295,9.30100213736e-06,604.47022129,0.603804937215,,,,,x,1,0.583758746507,2018_Nov_27_1533,59.9877829445,spanish_cond1,001,1057,
images/blueberry02.jpg,blueberry,z,sounds/animalfarm_spanish.wav,,,,,,,,,0,1,1,1,0,11,11,46,605.584255227,8.98027792573e-06,606.203991149,0.619745544274,,,,,z,1,0.600380891468,2018_Nov_27_1533,59.9877829445,spanish_cond1,001,1057,
images/parrot01.jpg,chameleon,x,sounds/animalfarm_spanish.wav,,,,,,,,,0,1,1,1,0,12,12,150,607.315759495,9.621726349e-06,608.021138896,0.705389344017,,,,,x,1,0.68377673917,2018_Nov_27_1533,59.9877829445,spanish_cond1,001,1057,
images/apple06.jpg,apple,z,sounds/animalfarm_spanish.wav,,,,,,,,,0,1,1,1,0,13,13,13,609.14788696,8.98027792573e-06,609.788244772,0.640368396067,,,,,z,1,0.61707936856,2018_Nov_27_1533,59.9877829445,spanish_cond1,001,1057,
images/cigar.jpg,crocodile,x,sounds/animalfarm_spanish.wav,,,,,,,,,0,1,1,1,0,14,14,162,610.887756663,9.621726349e-06,611.905460609,1.01771324675,,,,,x,1,1.00050513982,2018_Nov_27_1533,59.9877829445,spanish_cond1,001,1057,
images/lightbulb03b.jpg,treadmill,x,sounds/animalfarm_spanish.wav,,,,,,,,,0,1,1,1,0,15,15,234,613.007600509,9.94245056063e-06,613.68924636,0.681657076464,,,,,x,1,0.667078261962,2018_Nov_27_1533,59.9877829445,spanish_cond1,001,1057,
images/glasses01b.jpg,calculator,x,sounds/animalfarm_spanish.wav,,,,,,,,,0,1,1,1,0,16,16,142,614.782267766,8.98027792573e-06,615.4230515,0.640793354949,,,,,x,1,0.617088348721,2018_Nov_27_1533,59.9877829445,spanish_cond1,001,1057,
images/tie01.jpg,bench,x,sounds/animalfarm_spanish.wav,,,,,,,,,0,1,1,1,0,17,17,130,616.520392733,9.30100213736e-06,617.973698736,1.45331626653,,,,,x,1,1.43395802821,2018_Nov_27_1533,59.9877829445,spanish_cond1,001,1057,
images/banana04a.jpg,banana,z,sounds/animalfarm_spanish.wav,,,,,,,,,0,1,1,1,0,18,18,118,619.079342221,9.94245056063e-06,619.640792393,0.561460755183,,,,,z,1,0.550362754497,2018_Nov_27_1533,59.9877829445,spanish_cond1,001,1057,
images/belt02a.jpg,snowman,x,sounds/animalfarm_spanish.wav,,,,,,,,,0,1,1,1,0,19,19,224,620.742454094,8.98016151041e-06,621.424609575,0.682165423408,,,,,x,1,0.667091090931,2018_Nov_27_1533,59.9877829445,spanish_cond1,001,1057,
images/flipflop01b.jpg,flip flop,z,sounds/animalfarm_spanish.wav,,,,,,,,,0,1,1,1,0,20,20,27,622.539972591,9.30100213736e-06,623.525145857,0.985182887875,,,,,z,1,0.967175858212,2018_Nov_27_1533,59.9877829445,spanish_cond1,001,1057,
images/screwdriver02b.jpg,cola,x,sounds/animalfarm_spanish.wav,,,,,,,,,0,1,1,1,0,21,21,158,624.618597354,9.30100213736e-06,625.475647934,0.857060843613,,,,,x,1,0.833808378433,2018_Nov_27_1533,59.9877829445,spanish_cond1,001,1057,
images/corkscrew02a.jpg,masquerade mask,x,sounds/animalfarm_spanish.wav,,,,,,,,,0,1,1,1,0,22,22,201,626.577769874,9.621726349e-06,627.309457595,0.731698305462,,,,,x,1,0.717107303557,2018_Nov_27_1533,59.9877829445,spanish_cond1,001,1057,
images/fork01.jpg,cooking pot,x,sounds/animalfarm_spanish.wav,,,,,,,,,0,1,1,1,0,23,23,160,628.402385671,9.94245056063e-06,629.059900595,0.657524866518,,,,,x,1,0.633742886712,2018_Nov_27_1533,59.9877829445,spanish_cond1,001,1057,
images/mailbox01.jpg,mail box,z,sounds/animalfarm_spanish.wav,,,,,,,,,0,1,1,1,0,24,24,73,630.177642097,9.94245056063e-06,630.977072749,0.799441235256,,,,,z,1,0.78378992097,2018_Nov_27_1533,59.9877829445,spanish_cond1,001,1057,
images/leaf01a.jpg,leaf,z,sounds/animalfarm_spanish.wav,,,,,,,,,0,1,1,1,0,25,25,68,632.078550676,9.621726349e-06,632.610826219,0.532286127796,,,,,z,1,0.517060413724,2018_Nov_27_1533,59.9877829445,spanish_cond1,001,1057,
images/umbrella01.jpg,umbrella,z,sounds/animalfarm_spanish.wav,,,,,,,,,0,1,1,1,0,26,26,53,633.722217394,9.621726349e-06,635.361530288,1.63932379906,,,,,z,1,1.6173324195,2018_Nov_27_1533,59.9877829445,spanish_cond1,001,1057,
images/grasshopper.jpg,cauliflower,x,sounds/animalfarm_spanish.wav,,,,,,,,,0,1,1,1,0,27,27,148,636.453244425,9.30100213736e-06,637.061979205,0.608745043632,,,,,x,1,0.60041424667,2018_Nov_27_1533,59.9877829445,spanish_cond1,001,1057,
images/licenseplate.jpg,license plate,z,sounds/animalfarm_spanish.wav,,,,,,,,,0,1,1,1,0,28,28,40,638.177413421,9.621726349e-06,638.779101262,0.601697782753,,,,,x,0,0.583744955366,2018_Nov_27_1533,59.9877829445,spanish_cond1,001,1057,
images/desktopcomputer.jpg,desktop computer,z,sounds/animalfarm_spanish.wav,,,,,,,,,0,1,1,1,0,29,29,16,639.913258042,9.94245056063e-06,640.862956386,0.949707965134,,,,,z,1,0.933798147365,2018_Nov_27_1533,59.9877829445,spanish_cond1,001,1057,
images/doorhandle.jpg,doll,x,sounds/animalfarm_spanish.wav,,,,,,,,,0,1,1,1,0,30,30,168,641.964124814,9.30100213736e-06,642.663426502,0.699311951525,,,,,x,1,0.683733120677,2018_Nov_27_1533,59.9877829445,spanish_cond1,001,1057,
images/lemon02.jpg,lemon,z,sounds/animalfarm_spanish.wav,,,,,,,,,0,1,1,1,0,31,31,14,643.773616246,9.621726349e-06,644.74730536,0.97369905666,,,,,z,1,0.950501114712,2018_Nov_27_1533,59.9877829445,spanish_cond1,001,1057,
images/fireextinguisher02.jpg,fire extinguisher,z,sounds/animalfarm_spanish.wav,,,,,,,,,0,1,1,1,0,32,32,175,645.856181099,9.621726349e-06,646.547770025,0.691599189071,,,,,z,1,0.667084355839,2018_Nov_27_1533,59.9877829445,spanish_cond1,001,1057,
images/remotecontrol01c.jpg,remote control,z,sounds/animalfarm_spanish.wav,,,,,,,,,0,1,1,1,0,33,33,85,647.656159867,9.30100213736e-06,648.248274106,0.592123860843,,,,,z,1,0.583802364999,2018_Nov_27_1533,59.9877829445,spanish_cond1,001,1057,
images/headphones02b.jpg,headphones,z,sounds/animalfarm_spanish.wav,,,,,,,,,0,1,1,1,0,34,34,101,649.354375264,9.621726349e-06,650.032013673,0.677648672252,,,,,z,1,0.667104561348,2018_Nov_27_1533,59.9877829445,spanish_cond1,001,1057,
images/ladybug03.jpg,giraffe,x,sounds/animalfarm_spanish.wav,,,,,,,,,0,1,1,1,0,35,35,178,651.133705202,9.30100213736e-06,651.799140397,0.665444816463,,,,,x,1,0.650413781637,2018_Nov_27_1533,59.9877829445,spanish_cond1,001,1057,
images/cloud.jpg,ceiling fan,x,sounds/animalfarm_spanish.wav,,,,,,,,,0,1,1,1,0,36,36,149,652.902839334,8.98027792573e-06,653.649604275,0.746774562402,,,,,x,1,0.73377114255,2018_Nov_27_1533,59.9877829445,spanish_cond1,001,1057,
images/lantern03.jpg,lantern,z,sounds/animalfarm_spanish.wav,,,,,,,,,0,1,1,1,0,37,37,5,654.754885664,8.98027792573e-06,655.583455021,0.828578979359,,,,,z,1,0.817144860281,2018_Nov_27_1533,59.9877829445,spanish_cond1,001,1057,
images/scissors04a.jpg,leek,x,sounds/animalfarm_spanish.wav,,,,,,,,,0,1,1,1,0,38,38,194,656.675961666,8.98016151041e-06,657.517359007,0.841435828479,,,,,x,1,0.817145822453,2018_Nov_27_1533,59.9877829445,spanish_cond1,001,1057,
images/apricot.jpg,apricot,z,sounds/animalfarm_spanish.wav,,,,,,,,,0,1,1,1,0,39,39,32,658.633079951,9.62160993367e-06,659.417779765,0.784709435538,,,,,z,1,0.767126081977,2018_Nov_27_1533,59.9877829445,spanish_cond1,001,1057,
images/kiwi03.jpg,backpack,x,sounds/animalfarm_spanish.wav,,,,,,,,,0,1,1,1,0,40,40,125,660.544845987,9.30088572204e-06,661.318286476,0.773450431647,,,,,z,0,0.75044973474,2018_Nov_27_1533,59.9877829445,spanish_cond1,001,1057,
images/clothespin02a.jpg,clothes pin,z,sounds/animalfarm_spanish.wav,,,,,,,,,0,1,1,1,0,41,41,79,662.421878292,9.30100213736e-06,663.118751782,0.696882790653,,,,,z,1,0.683782512089,2018_Nov_27_1533,59.9877829445,spanish_cond1,001,1057,
images/thumbtack02a.jpg,thumb tack,z,sounds/animalfarm_spanish.wav,,,,,,,,,0,1,1,1,0,42,42,60,664.227592562,9.30088572204e-06,666.052814206,1.82523126574,,,,,z,1,1.80071033875,2018_Nov_27_1533,59.9877829445,spanish_cond1,001,1057,
images/pepper05a.jpg,lighter,x,sounds/animalfarm_spanish.wav,,,,,,,,,0,1,1,1,0,43,43,198,667.172705519,8.98016151041e-06,667.969988605,0.797293028212,,,,,x,1,0.783783506369,2018_Nov_27_1533,59.9877829445,spanish_cond1,001,1057,
images/egg01b (1).jpg,egg,z,sounds/animalfarm_spanish.wav,,,,,,,,,0,1,1,1,0,44,44,19,669.082315009,9.94245056063e-06,669.987186128,0.904881381895,,,,,z,1,0.883825873956,2018_Nov_27_1533,59.9877829445,spanish_cond1,001,1057,
images/butterfly.jpg,butterfly,z,sounds/animalfarm_spanish.wav,,,,,,,,,0,1,1,1,0,45,45,91,671.093286003,9.30100213736e-06,671.971026146,0.877749443636,,,,,z,1,0.867147281766,2018_Nov_27_1533,59.9877829445,spanish_cond1,001,1057,
images/computerkeyboard01a.jpg,computer keyboard,z,sounds/animalfarm_spanish.wav,,,,,,,,,0,1,1,1,0,46,46,61,673.086475757,9.621726349e-06,673.688135694,0.601670200471,,,,,z,1,0.583734050859,2018_Nov_27_1533,59.9877829445,spanish_cond1,001,1057,
images/icecube02 (2).jpg,aloe,x,sounds/animalfarm_spanish.wav,,,,,,,,,0,1,1,1,0,47,47,122,674.797566285,8.98027792573e-06,675.738658009,0.941101345816,,,,,x,1,0.917147458182,2018_Nov_27_1533,59.9877829445,spanish_cond1,001,1057,
images/diaper01a.jpg,camera,x,sounds/animalfarm_spanish.wav,,,,,,,,,0,1,1,1,0,48,48,143,676.858080424,9.30100213736e-06,677.672503303,0.814433141844,,,,,x,1,0.800458891434,2018_Nov_27_1533,59.9877829445,spanish_cond1,001,1057,
images/doll.jpg,carrot,x,sounds/animalfarm_spanish.wav,,,,,,,,,0,1,1,1,0,49,49,146,678.782150061,9.30100213736e-06,679.939746288,1.15760649065,,,,,x,1,1.13386652572,2018_Nov_27_1533,59.9877829445,spanish_cond1,001,1057,
images/mirror02.jpg,8 ball,x,sounds/animalfarm_spanish.wav,,,,,,,,,0,1,1,1,0,50,50,121,681.041540769,8.98027792573e-06,681.906943314,0.865412166808,,,,,x,1,0.850470293197,2018_Nov_27_1533,59.9877829445,spanish_cond1,001,1057,
images/bowtie.jpg,bowtie,z,sounds/animalfarm_spanish.wav,,,,,,,,,0,1,1,1,0,51,51,89,683.015914629,9.621726349e-06,683.724083364,0.708179319161,,,,,z,1,0.683773852652,2018_Nov_27_1533,59.9877829445,spanish_cond1,001,1057,
images/seagull.jpg,seagull,z,sounds/animalfarm_spanish.wav,,,,,,,,,0,1,1,1,0,52,52,50,684.830140904,9.30100213736e-06,685.457852903,0.627722262288,,,,,z,1,0.617079689284,2018_Nov_27_1533,59.9877829445,spanish_cond1,001,1057,
images/hat05.jpg,hat,z,sounds/animalfarm_spanish.wav,,,,,,,,,0,1,1,1,0,53,53,15,686.561567556,8.98027792573e-06,687.625078217,1.06352028216,,,,,z,1,1.05051590002,2018_Nov_27_1533,59.9877829445,spanish_cond1,001,1057,
images/dreamcatcher.jpg,dream catcher,z,sounds/animalfarm_spanish.wav,,,,,,,,,0,1,1,1,0,54,54,48,688.723810749,9.621726349e-06,689.42562659,0.701840857626,,,,,z,1,0.683763268753,2018_Nov_27_1533,59.9877829445,spanish_cond1,001,1057,
images/gluestick.jpg,squirrel,x,sounds/animalfarm_spanish.wav,,,,,,,,,0,1,1,1,0,55,55,226,690.53180408,9.30100213736e-06,691.12624549,0.594451993937,,,,,x,1,0.583982290933,2018_Nov_27_1533,59.9877829445,spanish_cond1,001,1057,
images/knife04.jpg,tooth brush,x,sounds/animalfarm_spanish.wav,,,,,,,,,0,1,1,1,0,56,56,233,692.22273007,9.94245056063e-06,692.87644474,0.653725253418,,,,,x,1,0.633756036405,2018_Nov_27_1533,59.9877829445,spanish_cond1,001,1057,
images/watermelon01.jpg,orange,x,sounds/animalfarm_spanish.wav,,,,,,,,,0,1,1,1,0,57,57,207,694.005264679,8.98027792573e-06,694.876968802,0.871714065899,,,,,x,1,0.85046419932,2018_Nov_27_1533,59.9877829445,spanish_cond1,001,1057,
images/donut.jpg,rhinoceros,x,sounds/animalfarm_spanish.wav,,,,,,,,,0,1,1,1,0,58,58,216,696.002415049,9.30100213736e-06,696.694096343,0.691691236803,,,,,x,1,0.683761665132,2018_Nov_27_1533,59.9877829445,spanish_cond1,001,1057,
images/cherry01.jpg,highlighter,x,sounds/animalfarm_spanish.wav,,,,,,,,,0,1,1,1,0,59,59,187,697.80142876,8.6595537141e-06,698.611259838,0.809841020498,,,,,x,1,0.800467550871,2018_Nov_27_1533,59.9877829445,spanish_cond1,001,1057,
images/cupcake.jpg,scissors,x,sounds/animalfarm_spanish.wav,,,,,,,,,0,1,1,1,0,60,60,219,699.728674523,9.30100213736e-06,700.395270417,0.66660583613,,,,,x,1,0.650634760153,2018_Nov_27_1533,59.9877829445,spanish_cond1,001,1057,
images/orange.jpg,bat,x,sounds/animalfarm_spanish.wav,,,,,,,,,0,1,1,1,0,61,61,128,701.520533851,9.30100213736e-06,702.595678121,1.07515389123,,,,,x,1,1.0504902422,2018_Nov_27_1533,59.9877829445,spanish_cond1,001,1057,
images/squirrel.jpg,binder,x,sounds/animalfarm_spanish.wav,,,,,,,,,0,1,1,1,0,62,62,132,703.698623037,9.30100213736e-06,704.362583545,0.663970449823,,,,,x,1,0.65025309904,2018_Nov_27_1533,59.9877829445,spanish_cond1,001,1057,
images/swallow.jpg,mattress,x,sounds/animalfarm_spanish.wav,,,,,,,,,0,1,1,1,0,63,63,202,705.46259384,9.30100213736e-06,706.26324292,0.800659343717,,,,,x,1,0.783780940576,2018_Nov_27_1533,59.9877829445,spanish_cond1,001,1057,
images/magnifyingglass01b.jpg,magnifying glass,z,sounds/animalfarm_spanish.wav,,,,,,,,,0,1,1,1,0,64,64,64,707.369120534,8.98027792573e-06,708.130394371,0.761283779866,,,,,z,1,0.75044364098,2018_Nov_27_1533,59.9877829445,spanish_cond1,001,1057,
images/candycane01a.jpg,lip,x,sounds/animalfarm_spanish.wav,,,,,,,,,0,1,1,1,0,65,65,200,709.223324371,9.621726349e-06,710.080899014,0.857584906043,,,,,x,1,0.833798436099,2018_Nov_27_1533,59.9877829445,spanish_cond1,001,1057,
images/8ball.jpg,nail clipper,x,sounds/animalfarm_spanish.wav,,,,,,,,,0,1,1,1,0,66,66,206,711.196931059,9.62160993367e-06,711.881365603,0.684444485698,,,,,x,1,0.667085317895,2018_Nov_27_1533,59.9877829445,spanish_cond1,001,1057,
images/hammer02a.jpg,flower,x,sounds/animalfarm_spanish.wav,,,,,,,,,0,1,1,1,0,67,67,176,712.97643066,9.30100213736e-06,713.598482849,0.62206213118,,,,,x,1,0.600414567394,2018_Nov_27_1533,59.9877829445,spanish_cond1,001,1057,
images/parkbench03.jpg,park bench,z,sounds/animalfarm_spanish.wav,,,,,,,,,0,1,1,1,0,68,68,71,714.702383201,9.30100213736e-06,715.999100691,1.29672775278,,,,,x,0,1.2838981651,2018_Nov_27_1533,59.9877829445,spanish_cond1,001,1057,
images/key03b.jpg,cigar,x,sounds/animalfarm_spanish.wav,,,,,,,,,0,1,1,1,0,69,69,153,717.100517359,8.98027792573e-06,717.916268034,0.815761258476,,,,,x,1,0.800454401295,2018_Nov_27_1533,59.9877829445,spanish_cond1,001,1057,
images/screw03c.jpg,screw,z,sounds/animalfarm_spanish.wav,,,,,,,,,0,1,1,1,0,70,70,84,719.008923174,9.621726349e-06,719.683390588,0.674477677559,,,,,x,0,0.650421799626,2018_Nov_27_1533,59.9877829445,spanish_cond1,001,1057,
images/crocodile.jpg,triangle ruler,x,sounds/animalfarm_spanish.wav,,,,,,,,,0,1,1,1,0,71,71,235,720.780686278,8.6595537141e-06,721.633916078,0.853241024772,,,,,x,1,0.833821528242,2018_Nov_27_1533,59.9877829445,spanish_cond1,001,1057,
images/notebook02b.jpg,notebook,z,sounds/animalfarm_spanish.wav,,,,,,,,,0,1,1,1,0,72,72,7,722.74171675,9.62160993367e-06,723.451020206,0.709313718718,,,,,z,1,0.700420372421,2018_Nov_27_1533,59.9877829445,spanish_cond1,001,1057,
images/binder03b.jpg,dj mixer,x,sounds/animalfarm_spanish.wav,,,,,,,,,0,1,1,1,0,73,73,167,724.562326388,1.02631747723e-05,725.434879147,0.872563342098,,,,,x,1,0.850460030022,2018_Nov_27_1533,59.9877829445,spanish_cond1,001,1057,
images/elbow.jpg,elbow,z,sounds/animalfarm_spanish.wav,,,,,,,,,0,1,1,1,0,74,74,105,726.545099038,9.621726349e-06,727.30204471,0.756955934805,,,,,z,1,0.733788140933,2018_Nov_27_1533,59.9877829445,spanish_cond1,001,1057,
images/candy.jpg,candy,z,sounds/animalfarm_spanish.wav,,,,,,,,,0,1,1,1,0,75,75,31,728.403012044,9.30100213736e-06,729.05247937,0.649477910018,,,,,z,1,0.633736472344,2018_Nov_27_1533,59.9877829445,spanish_cond1,001,1057,
images/saltshaker03c.jpg,salt shaker,z,sounds/animalfarm_spanish.wav,,,,,,,,,0,1,1,1,0,76,76,63,730.162645059,9.62160993367e-06,730.73624745,0.573612974375,,,,,z,1,0.550388412434,2018_Nov_27_1533,59.9877829445,spanish_cond1,001,1057,
images/raisin.jpg,ruler,x,sounds/animalfarm_spanish.wav,,,,,,,,,0,1,1,1,0,77,77,218,731.840419776,9.30100213736e-06,732.670086971,0.829677137081,,,,,x,1,0.817132352153,2018_Nov_27_1533,59.9877829445,spanish_cond1,001,1057,
images/dryingmachine01.jpg,drying machine,z,sounds/animalfarm_spanish.wav,,,,,,,,,0,1,1,1,0,78,78,18,733.789681294,9.94245056063e-06,734.853998895,1.06432754348,,,,,z,1,1.05053482275,2018_Nov_27_1533,59.9877829445,spanish_cond1,001,1057,
images/rhinoceros01.jpg,envelope,x,sounds/animalfarm_spanish.wav,,,,,,,,,0,1,1,1,0,79,79,173,735.965406747,9.621726349e-06,737.004552993,1.03915650956,,,,,x,1,1.01718661853,2018_Nov_27_1533,59.9877829445,spanish_cond1,001,1057,
images/lettuce.jpg,mushroom,x,sounds/animalfarm_spanish.wav,,,,,,,,,0,1,1,1,0,80,80,205,738.128775038,9.94245056063e-06,738.905043347,0.776278572856,,,,,x,1,0.767077973345,2018_Nov_27_1533,59.9877829445,spanish_cond1,001,1057,
images/candle08a.jpg,screw driver,x,sounds/animalfarm_spanish.wav,,,,,,,,,0,1,1,1,0,81,81,221,740.017748526,9.30100213736e-06,741.955832504,1.93809392012,,,,,x,1,1.91741943185,2018_Nov_27_1533,59.9877829445,spanish_cond1,001,1057,
images/ear.jpg,bullet,x,sounds/animalfarm_spanish.wav,,,,,,,,,0,1,1,1,0,82,82,139,743.058767478,8.98016151041e-06,744.089709934,1.03095207771,,,,,x,1,1.01717122376,2018_Nov_27_1533,59.9877829445,spanish_cond1,001,1057,
images/beachumbrella01.jpg,beach umbrella,z,sounds/animalfarm_spanish.wav,,,,,,,,,0,1,1,1,0,83,83,92,745.194775155,8.98027792573e-06,745.873611467,0.678845612914,,,,,z,1,0.667137595941,2018_Nov_27_1533,59.9877829445,spanish_cond1,001,1057,
images/weight01.jpg,weight,z,sounds/animalfarm_spanish.wav,,,,,,,,,0,1,1,1,0,84,84,67,746.977176663,9.94233414531e-06,747.607288317,0.630121916649,,,,,z,1,0.617069746833,2018_Nov_27_1533,59.9877829445,spanish_cond1,001,1057,
images/carrot02.jpg,corkscrew,x,sounds/animalfarm_spanish.wav,,,,,,,,,0,1,1,1,0,85,85,161,748.708654311,9.30100213736e-06,749.324420316,0.615775947575,,,,,x,1,0.600414888118,2018_Nov_27_1533,59.9877829445,spanish_cond1,001,1057,
images/bat.jpg,hand,x,sounds/animalfarm_spanish.wav,,,,,,,,,0,1,1,1,0,86,86,185,750.42154057,9.621726349e-06,751.708355397,1.28682508925,,,,,x,1,1.26723592973,2018_Nov_27_1533,59.9877829445,spanish_cond1,001,1057,
images/gorilla.jpg,gorilla,z,sounds/animalfarm_spanish.wav,,,,,,,,,0,1,1,1,0,87,87,80,752.818371628,9.30100213736e-06,753.458801603,0.640440238174,,,,,z,1,0.617067501647,2018_Nov_27_1533,59.9877829445,spanish_cond1,001,1057,
images/acousticguitar02.jpg,acoustic guitar,z,sounds/animalfarm_spanish.wav,,,,,,,,,0,1,1,1,0,88,88,97,754.572487555,9.30100213736e-06,755.826090164,1.25361287175,,,,,z,1,1.23388964997,2018_Nov_27_1533,59.9877829445,spanish_cond1,001,1057,
images/sock03.jpg,sock,z,sounds/animalfarm_spanish.wav,,,,,,,,,0,1,1,1,0,89,89,90,756.931186815,9.30100213736e-06,757.609927552,0.67875067878,,,,,z,1,0.667127012042,2018_Nov_27_1533,59.9877829445,spanish_cond1,001,1057,
images/cockroach02.jpg,belt,x,sounds/animalfarm_spanish.wav,,,,,,,,,0,1,1,1,0,90,90,129,758.708145643,8.98027792573e-06,759.543550263,0.835414241883,,,,,x,1,0.816957557574,2018_Nov_27_1533,59.9877829445,spanish_cond1,001,1057,
images/parkingmeter.jpg,ear,x,sounds/animalfarm_spanish.wav,,,,,,,,,0,1,1,1,0,91,91,171,760.644145559,9.30100213736e-06,761.760964018,1.11682840227,,,,,x,1,1.10053916846,2018_Nov_27_1533,59.9877829445,spanish_cond1,001,1057,
images/lock02a.jpg,lock,z,sounds/animalfarm_spanish.wav,,,,,,,,,0,1,1,1,0,92,92,65,762.870454905,9.30100213736e-06,764.028213098,1.1577678147,,,,,z,1,1.13383766054,2018_Nov_27_1533,59.9877829445,spanish_cond1,001,1057,
images/hanger02a.jpg,hanger,z,sounds/animalfarm_spanish.wav,,,,,,,,,0,1,1,1,0,93,93,88,765.121007111,9.621726349e-06,765.962053581,0.841056412435,,,,,z,1,0.817136842175,2018_Nov_27_1533,59.9877829445,spanish_cond1,001,1057,
images/bowlingball.jpg,bowling ball,z,sounds/animalfarm_spanish.wav,,,,,,,,,0,1,1,1,0,94,94,20,767.093629177,1.02631747723e-05,767.829184826,0.735565591371,,,,,z,1,0.717072344734,2018_Nov_27_1533,59.9877829445,spanish_cond1,001,1057,
images/snowman.jpg,globe,x,sounds/animalfarm_spanish.wav,,,,,,,,,0,1,1,1,0,95,95,180,768.939368155,9.30100213736e-06,770.530017649,1.59065943665,,,,,x,1,1.56743519532,2018_Nov_27_1533,59.9877829445,spanish_cond1,001,1057,
images/toothbrush03a.jpg,parrot,x,sounds/animalfarm_spanish.wav,,,,,,,,,0,1,1,1,0,96,96,210,771.621925503,9.621726349e-06,773.080561292,1.45864573156,,,,,x,1,1.45062571578,2018_Nov_27_1533,59.9877829445,spanish_cond1,001,1057,
images/paintbrush03a.jpg,paint brush,z,sounds/animalfarm_spanish.wav,,,,,,,,,0,1,1,1,0,97,97,0,774.179291579,9.30100213736e-06,774.881041031,0.701759393793,,,,,z,1,0.683772249031,2018_Nov_27_1533,59.9877829445,spanish_cond1,001,1057,
images/bandaid01.jpg,door handle,x,sounds/animalfarm_spanish.wav,,,,,,,,,0,1,1,1,0,98,98,170,775.987114286,9.30100213736e-06,777.048256723,1.06115237938,,,,,x,1,1.05052616319,2018_Nov_27_1533,59.9877829445,spanish_cond1,001,1057,
images/coffeepot03b.jpg,coffee pot,z,sounds/animalfarm_spanish.wav,,,,,,,,,0,1,1,1,0,99,99,107,778.168339829,8.98027792573e-06,778.898731185,0.730401298963,,,,,z,1,0.717089022277,2018_Nov_27_1533,59.9877829445,spanish_cond1,001,1057,
images/lychee02a.jpg,lychee,z,sounds/animalfarm_spanish.wav,,,,,,,,,0,1,1,1,0,100,100,62,780.022304085,9.30100213736e-06,780.849230055,0.826936232741,,,,,z,1,0.817114391597,2018_Nov_27_1533,59.9877829445,spanish_cond1,001,1057,
images/eyedrops.jpg,bicycle,x,sounds/animalfarm_spanish.wav,,,,,,,,,0,1,1,1,0,101,101,131,781.948852274,9.30100213736e-06,782.816432212,0.867589880363,,,,,x,1,0.850488253753,2018_Nov_27_1533,59.9877829445,spanish_cond1,001,1057,
images/nametag01a.jpg,name tag,z,sounds/animalfarm_spanish.wav,,,,,,,,,0,1,1,1,0,102,102,108,783.936522374,8.6595537141e-06,784.816942484,0.880429089768,,,,,z,1,0.867154658423,2018_Nov_27_1533,59.9877829445,spanish_cond1,001,1057,
images/shotglass.jpg,shot glass,z,sounds/animalfarm_spanish.wav,,,,,,,,,0,1,1,1,0,103,103,86,785.92492661,9.30100213736e-06,786.834120122,0.909203774645,,,,,x,0,0.90047912905,2018_Nov_27_1533,59.9877829445,spanish_cond1,001,1057,
images/paperclip04.jpg,eye drops,x,sounds/animalfarm_spanish.wav,,,,,,,,,0,1,1,1,0,104,104,174,787.939717103,9.621726349e-06,788.701276063,0.761568582384,,,,,x,1,0.750434660702,2018_Nov_27_1533,59.9877829445,spanish_cond1,001,1057,
images/rubberglove02a.jpg,lady bug,x,sounds/animalfarm_spanish.wav,,,,,,,,,0,1,1,1,0,105,105,192,789.805268784,9.62160993367e-06,790.651801553,0.846542711137,,,,,x,1,0.833818000159,2018_Nov_27_1533,59.9877829445,spanish_cond1,001,1057,
images/chameleon.jpg,50 dollar bill,x,sounds/animalfarm_spanish.wav,,,,,,,,,0,1,1,1,0,106,106,120,791.7607873,9.30100213736e-06,792.718982575,0.95820585906,,,,,x,1,0.933827333269,2018_Nov_27_1533,59.9877829445,spanish_cond1,001,1057,
images/battery03b.jpg,battery,z,sounds/animalfarm_spanish.wav,,,,,,,,,0,1,1,1,0,107,107,34,793.827025073,8.6595537141e-06,794.469424612,0.642409160617,,,,,z,1,0.633740320918,2018_Nov_27_1533,59.9877829445,spanish_cond1,001,1057,
images/table02.jpg,table,z,sounds/animalfarm_spanish.wav,,,,,,,,,0,1,1,1,0,108,108,49,795.583124676,9.30100213736e-06,796.220117776,0.637003042735,,,,,z,1,0.617303554434,2018_Nov_27_1533,59.9877829445,spanish_cond1,001,1057,
images/diploma01.jpg,glasses,x,sounds/animalfarm_spanish.wav,,,,,,,,,0,1,1,1,0,109,109,179,797.350685338,8.98027792573e-06,798.453627369,1.1029516519,,,,,x,1,1.08361522271,2018_Nov_27_1533,59.9877829445,spanish_cond1,001,1057,
images/marker01a.jpg,marker,z,sounds/animalfarm_spanish.wav,,,,,,,,,0,1,1,1,0,110,110,95,799.550927549,8.6595537141e-06,800.420996623,0.870079337386,,,,,z,1,0.850479594083,2018_Nov_27_1533,59.9877829445,spanish_cond1,001,1057,
images/lipstick04.jpg,lipstick,z,sounds/animalfarm_spanish.wav,,,,,,,,,0,1,1,1,0,111,111,56,801.520048596,9.621726349e-06,802.271485197,0.751446543843,,,,,z,1,0.733800328337,2018_Nov_27_1533,59.9877829445,spanish_cond1,001,1057,
images/antelope.jpg,antelope,z,sounds/animalfarm_spanish.wav,,,,,,,,,0,1,1,1,0,112,112,12,803.375472787,9.30100213736e-06,804.60540599,1.22994346602,,,,,z,1,1.21724280936,2018_Nov_27_1533,59.9877829445,spanish_cond1,001,1057,
images/bus.jpg,microphone,x,sounds/animalfarm_spanish.wav,,,,,,,,,0,1,1,1,0,113,113,203,805.723893495,9.30100213736e-06,806.589253705,0.865370793501,,,,,x,1,0.850486650015,2018_Nov_27_1533,59.9877829445,spanish_cond1,001,1057,
images/broom02.jpg,broom,z,sounds/animalfarm_spanish.wav,,,,,,,,,0,1,1,1,0,114,114,116,807.681972989,9.30100213736e-06,808.50643067,0.824467943516,,,,,z,1,0.800477172714,2018_Nov_27_1533,59.9877829445,spanish_cond1,001,1057,
images/handfan01b.jpg,handfan,z,sounds/animalfarm_spanish.wav,,,,,,,,,0,1,1,1,0,115,115,69,809.619467477,9.30088572204e-06,810.273531094,0.654073238489,,,,,z,1,0.633729737136,2018_Nov_27_1533,59.9877829445,spanish_cond1,001,1057,
images/lamp04b.jpg,parking meter,x,sounds/animalfarm_spanish.wav,,,,,,,,,0,1,1,1,0,116,116,209,811.394047818,9.621726349e-06,812.174039409,0.780001853826,,,,,x,1,0.767132817069,2018_Nov_27_1533,59.9877829445,spanish_cond1,001,1057,
images/swan.jpg,swan,z,sounds/animalfarm_spanish.wav,,,,,,,,,0,1,1,1,0,117,117,54,813.264918701,8.98027792573e-06,814.074516934,0.809608175186,,,,,z,1,0.800456325524,2018_Nov_27_1533,59.9877829445,spanish_cond1,001,1057,
images/baseball01a.jpg,baseball,z,sounds/animalfarm_spanish.wav,,,,,,,,,0,1,1,1,0,118,118,74,815.207347522,9.30100213736e-06,815.891658266,0.684321007226,,,,,z,1,0.667090128874,2018_Nov_27_1533,59.9877829445,spanish_cond1,001,1057,
images/bull.jpg,button,x,sounds/animalfarm_spanish.wav,,,,,,,,,0,1,1,1,0,119,119,141,816.996191086,9.621726349e-06,817.975531351,0.979350848938,,,,,x,1,0.967173933983,2018_Nov_27_1533,59.9877829445,spanish_cond1,001,1057,
images/ladder.jpg,ladder,z,sounds/animalfarm_spanish.wav,,,,,,,,,0,1,1,1,0,120,120,113,819.066947535,8.98027792573e-06,819.659313863,0.592376591172,,,,,z,1,0.583751049126,2018_Nov_27_1533,59.9877829445,spanish_cond1,001,1057,
images/graduationcap.jpg,graduation cap,z,sounds/animalfarm_spanish.wav,,,,,,,,,0,1,1,1,0,121,121,35,820.76213466,1.02631747723e-05,821.343056606,0.580933812656,,,,,z,1,0.56704840262,2018_Nov_27_1533,59.9877829445,spanish_cond1,001,1057,
images/tulip02.jpg,sport shorts,x,sounds/animalfarm_spanish.wav,,,,,,,,,0,1,1,1,0,122,122,225,822.437944303,9.30100213736e-06,823.143531854,0.705597493681,,,,,x,1,0.683739214437,2018_Nov_27_1533,59.9877829445,spanish_cond1,001,1057,
images/peach01.jpg,peach,z,sounds/animalfarm_spanish.wav,,,,,,,,,0,1,1,1,0,123,123,106,824.272621201,9.62160993367e-06,825.327430949,1.05482001149,,,,,z,1,1.0338530232,2018_Nov_27_1533,59.9877829445,spanish_cond1,001,1057,
images/toucan.jpg,toucan,z,sounds/animalfarm_spanish.wav,,,,,,,,,0,1,1,1,0,124,124,81,826.428720932,9.94245056063e-06,827.027883394,0.599172404734,,,,,z,1,0.583744313917,2018_Nov_27_1533,59.9877829445,spanish_cond1,001,1057,
images/beermug01b.jpg,beer mug,z,sounds/animalfarm_spanish.wav,,,,,,,,,0,1,1,1,0,125,125,111,828.145198655,8.98016151041e-06,828.811664655,0.666475301492,,,,,z,1,0.650416988879,2018_Nov_27_1533,59.9877829445,spanish_cond1,001,1057,
images/stapler03a.jpg,candy cane,x,sounds/animalfarm_spanish.wav,,,,,,,,,0,1,1,1,0,126,126,145,829.922993609,9.30100213736e-06,830.712164952,0.789181285538,,,,,x,1,0.767119026044,2018_Nov_27_1533,59.9877829445,spanish_cond1,001,1057,
images/coin01b.jpg,arrow,x,sounds/animalfarm_spanish.wav,,,,,,,,,0,1,1,1,0,127,127,124,831.815267344,9.30100213736e-06,832.579319931,0.764061888214,,,,,x,1,0.750434339978,2018_Nov_27_1533,59.9877829445,spanish_cond1,001,1057,
images/bowl02b (1).jpg,bowl,z,sounds/animalfarm_spanish.wav,,,,,,,,,0,1,1,1,0,128,128,24,833.696735258,9.30100213736e-06,834.413130875,0.716406522319,,,,,z,1,0.700437691528,2018_Nov_27_1533,59.9877829445,spanish_cond1,001,1057,
images/treadmill.jpg,lily,x,sounds/animalfarm_spanish.wav,,,,,,,,,0,1,1,1,0,129,129,199,835.518267618,8.6595537141e-06,836.313615457,0.795357781579,,,,,x,1,0.783784147818,2018_Nov_27_1533,59.9877829445,spanish_cond1,001,1057,
images/ceilingfan02.jpg,paper clip,x,sounds/animalfarm_spanish.wav,,,,,,,,,0,1,1,1,0,130,130,208,837.412678655,9.621726349e-06,838.347716079,0.935064685182,,,,,x,1,0.917314234423,2018_Nov_27_1533,59.9877829445,spanish_cond1,001,1057,
images/hairpin.jpg,hair pin,z,sounds/animalfarm_spanish.wav,,,,,,,,,0,1,1,1,0,131,131,28,839.43752672,9.30100213736e-06,840.248059863,0.810543405241,,,,,z,1,0.800543241668,2018_Nov_27_1533,59.9877829445,spanish_cond1,001,1057,
images/worldmap.jpg,scooter,x,sounds/animalfarm_spanish.wav,,,,,,,,,0,1,1,1,0,132,132,220,841.378100796,9.30088572204e-06,842.148453679,0.770362504292,,,,,x,1,0.750419266056,2018_Nov_27_1533,59.9877829445,spanish_cond1,001,1057,
images/teapot.jpg,light switch,x,sounds/animalfarm_spanish.wav,,,,,,,,,0,1,1,1,0,133,133,197,843.265160848,9.621726349e-06,844.315694067,1.05054348218,,,,,x,1,1.0338530232,2018_Nov_27_1533,59.9877829445,spanish_cond1,001,1057,
images/lion.jpg,lion,z,sounds/animalfarm_spanish.wav,,,,,,,,,0,1,1,1,0,134,134,44,845.428647165,9.621726349e-06,846.066133859,0.637496636482,,,,,z,1,0.617071671062,2018_Nov_27_1533,59.9877829445,spanish_cond1,001,1057,
images/computermouse02a.jpg,world map,x,sounds/animalfarm_spanish.wav,,,,,,,,,0,1,1,1,0,135,135,239,847.168302304,9.621726349e-06,847.816605403,0.648313362384,,,,,x,1,0.633750584093,2018_Nov_27_1533,59.9877829445,spanish_cond1,001,1057,
images/cola.jpg,comb,x,sounds/animalfarm_spanish.wav,,,,,,,,,0,1,1,1,0,136,136,157,848.938297259,9.621726349e-06,849.70041909,0.762131452444,,,,,x,1,0.750450055464,2018_Nov_27_1533,59.9877829445,spanish_cond1,001,1057,
images/hairband.jpg,hairband,z,sounds/animalfarm_spanish.wav,,,,,,,,,0,1,1,1,0,137,137,66,850.811974154,8.98016151041e-06,851.56767221,0.755707678269,,,,,z,1,0.733879867825,2018_Nov_27_1533,59.9877829445,spanish_cond1,001,1057,
images/electricguitar02.jpg,electric guitar,z,sounds/animalfarm_spanish.wav,,,,,,,,,0,1,1,1,0,138,138,100,852.670248615,9.621726349e-06,854.051542216,1.38130354276,,,,,z,1,1.36727284512,2018_Nov_27_1533,59.9877829445,spanish_cond1,001,1057,
images/ostrich.jpg,ostrich,z,sounds/animalfarm_spanish.wav,,,,,,,,,0,1,1,1,0,139,139,76,855.152096779,9.30100213736e-06,855.885354764,0.733267927077,,,,,z,1,0.717102492694,2018_Nov_27_1533,59.9877829445,spanish_cond1,001,1057,
images/radio03a.jpg,radio,z,sounds/animalfarm_spanish.wav,,,,,,,,,0,1,1,1,0,140,140,37,856.999610642,8.98027792573e-06,857.869201517,0.869600817794,,,,,z,1,0.85047253815,2018_Nov_27_1533,59.9877829445,spanish_cond1,001,1057,
images/wallet01.jpg,lamp,x,sounds/animalfarm_spanish.wav,,,,,,,,,0,1,1,1,0,141,141,193,858.973258703,9.621726349e-06,860.336727124,1.36347900494,,,,,x,1,1.35082581535,2018_Nov_27_1533,59.9877829445,spanish_cond1,001,1057,
images/highlighter03b.jpg,coin,x,sounds/animalfarm_spanish.wav,,,,,,,,,0,1,1,1,0,142,142,156,861.439337847,8.6595537141e-06,862.370378733,0.931050828658,,,,,x,1,0.91717215383,2018_Nov_27_1533,59.9877829445,spanish_cond1,001,1057,
images/nailclipper03a.jpg,aquarium,x,sounds/animalfarm_spanish.wav,,,,,,,,,0,1,1,1,0,143,143,123,863.470248231,9.621726349e-06,864.170828323,0.700590676744,,,,,x,1,0.683750760509,2018_Nov_27_1533,59.9877829445,spanish_cond1,001,1057,
images/triangleruler02.jpg,bottle of red wine,x,sounds/animalfarm_spanish.wav,,,,,,,,,0,1,1,1,0,144,144,134,865.281868947,8.98027792573e-06,866.071326054,0.789467050228,,,,,x,1,0.76711485663,2018_Nov_27_1533,59.9877829445,spanish_cond1,001,1057,
images/fryingpan01.jpg,frying pan,z,sounds/animalfarm_spanish.wav,,,,,,,,,0,1,1,1,0,145,145,45,867.171959837,9.30100213736e-06,867.938474619,0.766524404287,,,,,z,1,0.750444923877,2018_Nov_27_1533,59.9877829445,spanish_cond1,001,1057,
images/spoon02b.jpg,spoon,z,sounds/animalfarm_spanish.wav,,,,,,,,,0,1,1,1,0,146,146,38,869.030228846,8.98027792573e-06,869.755604085,0.725384860416,,,,,z,1,0.717100247624,2018_Nov_27_1533,59.9877829445,spanish_cond1,001,1057,
images/flamingo.jpg,flamingo,z,sounds/animalfarm_spanish.wav,,,,,,,,,0,1,1,1,0,147,147,52,870.855300391,9.621726349e-06,872.006210172,1.15092004393,,,,,z,1,1.1338902592,2018_Nov_27_1533,59.9877829445,spanish_cond1,001,1057,
images/cheetah.jpg,cheetah,z,sounds/animalfarm_spanish.wav,,,,,,,,,0,1,1,1,0,148,148,82,873.10966536,9.621726349e-06,873.706655882,0.597000464099,,,,,z,1,0.583750087069,2018_Nov_27_1533,59.9877829445,spanish_cond1,001,1057,
images/globe.jpg,cloud,x,sounds/animalfarm_spanish.wav,,,,,,,,,0,1,1,1,0,149,149,154,874.834545402,9.621726349e-06,875.507110604,0.672575144796,,,,,x,1,0.650415064418,2018_Nov_27_1533,59.9877829445,spanish_cond1,001,1057,
images/banjo.jpg,knife,x,sounds/animalfarm_spanish.wav,,,,,,,,,0,1,1,1,0,150,150,191,876.604114756,9.621726349e-06,877.274240855,0.670136362081,,,,,x,1,0.650432383642,2018_Nov_27_1533,59.9877829445,spanish_cond1,001,1057,
images/tape01a.jpg,tie,x,sounds/animalfarm_spanish.wav,,,,,,,,,0,1,1,1,0,151,151,232,878.399085424,8.98027792573e-06,879.824892902,1.42581709963,,,,,x,1,1.41728136037,2018_Nov_27_1533,59.9877829445,spanish_cond1,001,1057,
images/volleyball.jpg,volley ball,z,sounds/animalfarm_spanish.wav,,,,,,,,,0,1,1,1,0,152,152,2,880.956497685,9.30100213736e-06,881.575340713,0.618852970307,,,,,z,1,0.600394361885,2018_Nov_27_1533,59.9877829445,spanish_cond1,001,1057,
images/drink.jpg,drink,z,sounds/animalfarm_spanish.wav,,,,,,,,,0,1,1,1,0,153,153,117,882.675859355,9.94245056063e-06,883.509181516,0.83333210391,,,,,z,1,0.817130748532,2018_Nov_27_1533,59.9877829445,spanish_cond1,001,1057,
images/mushroom01.jpg,shower head,x,sounds/animalfarm_spanish.wav,,,,,,,,,0,1,1,1,0,154,154,222,884.626659063,8.98027792573e-06,885.643073379,1.01642393775,,,,,x,1,1.00052085519,2018_Nov_27_1533,59.9877829445,spanish_cond1,001,1057,
images/lip.jpg,boxing glove,x,sounds/animalfarm_spanish.wav,,,,,,,,,0,1,1,1,0,155,155,136,886.746743452,9.621726349e-06,887.510221944,0.763488434139,,,,,x,1,0.750448772567,2018_Nov_27_1533,59.9877829445,spanish_cond1,001,1057,
images/razor04a.jpg,razor,z,sounds/animalfarm_spanish.wav,,,,,,,,,0,1,1,1,0,156,156,36,888.61056066,9.621726349e-06,889.260661736,0.650111339288,,,,,z,1,0.633740000194,2018_Nov_27_1533,59.9877829445,spanish_cond1,001,1057,
images/puzzle.jpg,puzzle,z,sounds/animalfarm_spanish.wav,,,,,,,,,0,1,1,1,0,157,157,57,890.381386931,8.98016151041e-06,891.111154801,0.729778453708,,,,,z,1,0.71711179358,2018_Nov_27_1533,59.9877829445,spanish_cond1,001,1057,
images/cake.jpg,cake,z,sounds/animalfarm_spanish.wav,,,,,,,,,0,1,1,1,0,158,158,23,892.225886312,9.30100213736e-06,892.79492256,0.569045869634,,,,,z,1,0.55039546825,2018_Nov_27_1533,59.9877829445,spanish_cond1,001,1057,
images/showerhead01.jpg,skateboard,x,sounds/animalfarm_spanish.wav,,,,,,,,,0,1,1,1,0,159,159,223,893.903119005,9.30100213736e-06,894.44540209,0.542293026578,,,,,x,1,0.533780379337,2018_Nov_27_1533,59.9877829445,spanish_cond1,001,1057,
images/redfox.jpg,red fox,z,sounds/animalfarm_spanish.wav,,,,,,,,,0,1,1,1,0,160,160,1,895.559537055,9.621726349e-06,896.412525349,0.852998236893,,,,,z,1,0.833802605513,2018_Nov_27_1533,59.9877829445,spanish_cond1,001,1057,
images/safe.jpg,safe,z,sounds/animalfarm_spanish.wav,,,,,,,,,0,1,1,1,0,161,161,78,897.523800101,9.94245056063e-06,898.212987769,0.689197931089,,,,,z,1,0.66708980815,2018_Nov_27_1533,59.9877829445,spanish_cond1,001,1057,
images/honeycomb.jpg,honey comb,z,sounds/animalfarm_spanish.wav,,,,,,,,,0,1,1,1,0,162,162,59,899.326533244,9.30100213736e-06,899.996779614,0.670255671255,,,,,z,1,0.650421479018,2018_Nov_27_1533,59.9877829445,spanish_cond1,001,1057,
images/bracelet02a.jpg,chess knight,x,sounds/animalfarm_spanish.wav,,,,,,,,,0,1,1,1,0,163,163,152,901.105681331,9.621726349e-06,901.997298865,0.891627156292,,,,,x,1,0.867137339315,2018_Nov_27_1533,59.9877829445,spanish_cond1,001,1057,
images/dresser02.jpg,dresser,z,sounds/animalfarm_spanish.wav,,,,,,,,,0,1,1,1,0,164,164,87,903.120028583,9.621726349e-06,904.214644627,1.09462630714,,,,,z,1,1.08396769804,2018_Nov_27_1533,59.9877829445,spanish_cond1,001,1057,
images/flower01.jpg,bus,x,sounds/animalfarm_spanish.wav,,,,,,,,,0,1,1,1,0,165,165,140,905.32913335,9.621726349e-06,906.315098483,0.985974754556,,,,,x,1,0.967182272696,2018_Nov_27_1533,59.9877829445,spanish_cond1,001,1057,
images/calculator02b.jpg,dice,x,sounds/animalfarm_spanish.wav,,,,,,,,,0,1,1,1,0,166,166,165,907.41673613,9.621726349e-06,908.165563965,0.74883809837,,,,,x,1,0.733768576756,2018_Nov_27_1533,59.9877829445,spanish_cond1,001,1057,
images/highheelshoe02a.jpg,high heel shoe,z,sounds/animalfarm_spanish.wav,,,,,,,,,0,1,1,1,0,167,167,75,909.272305609,9.30100213736e-06,909.949360942,0.677064955235,,,,,z,1,0.667084355839,2018_Nov_27_1533,59.9877829445,spanish_cond1,001,1057,
images/ruler02b.jpg,watermelon,x,sounds/animalfarm_spanish.wav,,,,,,,,,0,1,1,1,0,168,168,238,911.05169905,9.30100213736e-06,911.86652155,0.814832442789,,,,,x,1,0.800458891434,2018_Nov_27_1533,59.9877829445,spanish_cond1,001,1057,
images/scooter.jpg,pen,x,sounds/animalfarm_spanish.wav,,,,,,,,,0,1,1,1,0,169,169,212,912.959399913,9.621726349e-06,914.133777685,1.17438771459,,,,,z,0,1.15054158994,2018_Nov_27_1533,59.9877829445,spanish_cond1,001,1057,
images/daisy.jpg,daisy,z,sounds/animalfarm_spanish.wav,,,,,,,,,0,1,1,1,0,170,170,6,915.236606821,9.621726349e-06,915.950906509,0.714309951873,,,,,z,1,0.700421655434,2018_Nov_27_1533,59.9877829445,spanish_cond1,001,1057,
images/skateboard.jpg,key,x,sounds/animalfarm_spanish.wav,,,,,,,,,0,1,1,1,0,171,171,189,917.042304412,8.98027792573e-06,917.751211133,0.708916662843,,,,,x,1,0.700256482698,2018_Nov_27_1533,59.9877829445,spanish_cond1,001,1057,
images/pineapple01a.jpg,pineapple,z,sounds/animalfarm_spanish.wav,,,,,,,,,0,1,1,1,0,172,172,51,918.86447405,9.30100213736e-06,919.785247931,0.920784143731,,,,,x,0,0.900479449774,2018_Nov_27_1533,59.9877829445,spanish_cond1,001,1057,
images/corn01.jpg,corn,z,sounds/animalfarm_spanish.wav,,,,,,,,,0,1,1,1,0,173,173,22,920.884917297,9.94233414531e-06,921.902463767,1.01755705429,,,,,z,1,1.00051347865,2018_Nov_27_1533,59.9877829445,spanish_cond1,001,1057,
images/gps.jpg,gps,z,sounds/animalfarm_spanish.wav,,,,,,,,,0,1,1,1,0,174,174,21,923.021221964,9.94245056063e-06,923.702938374,0.681726994226,,,,,z,1,0.667103278451,2018_Nov_27_1533,59.9877829445,spanish_cond1,001,1057,
images/bed.jpg,bed,z,sounds/animalfarm_spanish.wav,,,,,,,,,0,1,1,1,0,175,175,103,924.822632121,9.30100213736e-06,925.436699895,0.614077715785,,,,,z,1,0.600398210459,2018_Nov_27_1533,59.9877829445,spanish_cond1,001,1057,
images/bicycle.jpg,hand bag,x,sounds/animalfarm_spanish.wav,,,,,,,,,0,1,1,1,0,176,176,186,926.546889317,9.30100213736e-06,927.370539095,0.823659719899,,,,,x,1,0.800404689158,2018_Nov_27_1533,59.9877829445,spanish_cond1,001,1057,
images/lily.jpg,kiwi,x,sounds/animalfarm_spanish.wav,,,,,,,,,0,1,1,1,0,177,177,190,928.470157145,9.30100213736e-06,929.204353888,0.73420636449,,,,,x,1,0.717101530521,2018_Nov_27_1533,59.9877829445,spanish_cond1,001,1057,
images/hairdryer03a.jpg,hairdryer,z,sounds/animalfarm_spanish.wav,,,,,,,,,0,1,1,1,0,178,178,119,930.303768278,9.30100213736e-06,931.238210118,0.934451782261,,,,,z,1,0.917151306872,2018_Nov_27_1533,59.9877829445,spanish_cond1,001,1057,
images/floorlamp.jpg,floor lamp,z,sounds/animalfarm_spanish.wav,,,,,,,,,0,1,1,1,0,179,179,26,932.331555135,8.98027792573e-06,933.872236204,1.54069069121,,,,,z,1,1.5173179548,2018_Nov_27_1533,59.9877829445,spanish_cond1,001,1057,
images/leek.jpg,donut,x,sounds/animalfarm_spanish.wav,,,,,,,,,0,1,1,1,0,180,180,169,934.971883119,9.30100213736e-06,935.706034319,0.734161142493,,,,,x,1,0.717095116037,2018_Nov_27_1533,59.9877829445,spanish_cond1,001,1057,
images/pouch01b.jpg,pouch,z,sounds/animalfarm_spanish.wav,,,,,,,,,0,1,1,1,0,181,181,25,936.818641036,8.98027792573e-06,937.623215133,0.80458435975,,,,,z,1,0.783802749822,2018_Nov_27_1533,59.9877829445,spanish_cond1,001,1057,
images/boxingglove02a.jpg,bracelet,x,sounds/animalfarm_spanish.wav,,,,,,,,,0,1,1,1,0,182,182,135,938.734703807,9.30100213736e-06,939.490345737,0.755651872489,,,,,x,1,0.733776274021,2018_Nov_27_1533,59.9877829445,spanish_cond1,001,1057,
images/cauliflower01.jpg,glue stick,x,sounds/animalfarm_spanish.wav,,,,,,,,,0,1,1,1,0,183,183,181,940.606756236,9.30100213736e-06,941.640922927,1.03417663346,,,,,x,1,1.01719271217,2018_Nov_27_1533,59.9877829445,spanish_cond1,001,1057,
images/comb02a.jpg,diploma,x,sounds/animalfarm_spanish.wav,,,,,,,,,0,1,1,1,0,184,184,166,942.745667424,8.98027792573e-06,943.62475621,0.879098728066,,,,,x,1,0.867141829454,2018_Nov_27_1533,59.9877829445,spanish_cond1,001,1057,
images/cookingpot.jpg,grasshopper,x,sounds/animalfarm_spanish.wav,,,,,,,,,0,1,1,1,0,185,185,183,944.738966866,9.62160993367e-06,945.508583688,0.76962740568,,,,,x,1,0.750453904155,2018_Nov_27_1533,59.9877829445,spanish_cond1,001,1057,
images/mattress.jpg,cat,x,sounds/animalfarm_spanish.wav,,,,,,,,,0,1,1,1,0,186,186,147,946.615316351,1.05838989839e-05,948.525863316,1.91055754921,,,,,x,1,1.90043037909,2018_Nov_27_1533,59.9877829445,spanish_cond1,001,1057,
images/croissant02b.jpg,croissant,z,sounds/animalfarm_spanish.wav,,,,,,,,,0,1,1,1,0,187,187,39,949.637477072,9.30100213736e-06,950.30982739,0.672360259923,,,,,z,1,0.65042693133,2018_Nov_27_1533,59.9877829445,spanish_cond1,001,1057,
images/bullet (2).jpg,rubber glove,x,sounds/animalfarm_spanish.wav,,,,,,,,,0,1,1,1,0,188,188,217,951.414828145,8.98027792573e-06,952.126953648,0.712135445443,,,,,x,1,0.700416523847,2018_Nov_27_1533,59.9877829445,spanish_cond1,001,1057,
images/mitten01.jpg,mitten,z,sounds/animalfarm_spanish.wav,,,,,,,,,0,1,1,1,0,189,189,102,953.247396285,9.30100213736e-06,954.210847259,0.96346187836,,,,,z,1,0.950501435436,2018_Nov_27_1533,59.9877829445,spanish_cond1,001,1057,
images/charcoalbarbecue.jpg,charcoal barbecue,z,sounds/animalfarm_spanish.wav,,,,,,,,,0,1,1,1,0,190,190,77,955.328850151,8.98016151041e-06,956.127990548,0.799150338862,,,,,z,1,0.783784468658,2018_Nov_27_1533,59.9877829445,spanish_cond1,001,1057,
images/pingpongpaddle01c (1).jpg,ping pong paddle,z,sounds/animalfarm_spanish.wav,,,,,,,,,0,1,1,1,0,191,191,10,957.239100768,8.98027792573e-06,957.96200868,0.722917533247,,,,,z,1,0.700641671778,2018_Nov_27_1533,59.9877829445,spanish_cond1,001,1057,
images/blackolive.jpg,tank,x,sounds/animalfarm_spanish.wav,,,,,,,,,0,1,1,1,0,192,192,229,959.076978809,9.621726349e-06,959.995681456,0.918713231105,,,,,x,1,0.900488750776,2018_Nov_27_1533,59.9877829445,spanish_cond1,001,1057,
images/ashtray02b.jpg,ashtray,z,sounds/animalfarm_spanish.wav,,,,,,,,,0,1,1,1,0,193,193,43,961.109138411,8.6595537141e-06,961.879495463,0.770366673707,,,,,z,1,0.750447168946,2018_Nov_27_1533,59.9877829445,spanish_cond1,001,1057,
images/lightswitch02a.jpg,fork,x,sounds/animalfarm_spanish.wav,,,,,,,,,0,1,1,1,0,194,194,177,962.991872221,9.62160993367e-06,963.813318948,0.821457310463,,,,,x,1,0.800459532882,2018_Nov_27_1533,59.9877829445,spanish_cond1,001,1057,
images/axe01.jpg,axe,z,sounds/animalfarm_spanish.wav,,,,,,,,,0,1,1,1,0,195,195,104,964.916307804,9.30100213736e-06,965.847176461,0.930878920713,,,,,z,1,0.917155796895,2018_Nov_27_1533,59.9877829445,spanish_cond1,001,1057,
images/barrel01.jpg,barrel,z,sounds/animalfarm_spanish.wav,,,,,,,,,0,1,1,1,0,196,196,9,966.977691746,9.621726349e-06,967.914378009,0.936696206336,,,,,z,1,0.91714425094,2018_Nov_27_1533,59.9877829445,spanish_cond1,001,1057,
images/plant01.jpg,plant,z,sounds/animalfarm_spanish.wav,,,,,,,,,0,1,1,1,0,197,197,47,969.026489529,9.94245056063e-06,969.764866263,0.738387638703,,,,,z,1,0.717105699936,2018_Nov_27_1533,59.9877829445,spanish_cond1,001,1057,
images/pipe.jpg,icecube,x,sounds/animalfarm_spanish.wav,,,,,,,,,0,1,1,1,0,198,198,188,970.874298457,8.6595537141e-06,971.698701615,0.824413099792,,,,,x,1,0.800457929261,2018_Nov_27_1533,59.9877829445,spanish_cond1,001,1057,
images/birthdaycandle.jpg,birthday candle,z,sounds/animalfarm_spanish.wav,,,,,,,,,0,1,1,1,0,199,199,55,972.794867395,9.62160993367e-06,973.532521218,0.737663765438,,,,,z,1,0.717126226285,2018_Nov_27_1533,59.9877829445,spanish_cond1,001,1057,
images/plate01b.jpg,plate,z,sounds/animalfarm_spanish.wav,,,,,,,,,0,1,1,1,0,200,200,3,974.630569647,9.621726349e-06,975.466346306,0.835786601994,,,,,z,1,0.817133955657,2018_Nov_27_1533,59.9877829445,spanish_cond1,001,1057,
