images,name,corrAns,sounds,trials_3.thisRepN,trials_3.thisTrialN,trials_3.thisN,trials_3.thisIndex,trials_4.thisRepN,trials_4.thisTrialN,trials_4.thisN,trials_4.thisIndex,trials_2.thisRepN,trials_2.thisTrialN,trials_2.thisN,trials_2.thisIndex,trials.thisRepN,trials.thisTrialN,trials.thisN,trials.thisIndex,begin_global,begin_routine,end_global,end_routine,key_resp_2.keys,key_resp_2.corr,key_resp_2.rt,begin_book,key_resp_1.keys,key_resp_1.corr,key_resp_1.rt,date,frameRate,expName,session,participant,
images/volleyball.jpg,volley ball,z,,0,0,0,0,,,,,,,,,,,,,,,,,,,,,,,,2018_Nov_27_1533,59.9767246643,spanish_cond2,001,1058,
images/puma.jpg,puma,z,,,,,,0,0,0,0,,,,,,,,,48.2353170398,1.09046231955e-05,50.3698209859,2.13451581285,z,1,2.11749190488,,,,,2018_Nov_27_1533,59.9767246643,spanish_cond2,001,1058,
images/honeycomb.jpg,honey comb,z,sounds/greatgatsby_spanish.wav,,,,,,,,,0,0,0,0,0,0,0,59,92.6032553894,8.33882950246e-06,93.6140585791,1.01081249071,,,,82.3697645389,z,1,1.00049840147,2018_Nov_27_1533,59.9767246643,spanish_cond2,001,1058,
images/acousticguitar02.jpg,acoustic guitar,z,sounds/greatgatsby_spanish.wav,,,,,,,,,0,0,0,0,0,1,1,97,94.8079216976,9.30088572204e-06,95.9979788117,1.19006673573,,,,,z,1,1.16719639197,2018_Nov_27_1533,59.9767246643,spanish_cond2,001,1058,
images/beermug01b.jpg,beer mug,z,sounds/greatgatsby_spanish.wav,,,,,,,,,0,0,0,0,0,2,2,111,97.185264249,8.98027792573e-06,98.8153608375,1.63010621024,,,,,z,1,1.61731614952,2018_Nov_27_1533,59.9767246643,spanish_cond2,001,1058,
images/bowlingball.jpg,bowling ball,z,sounds/greatgatsby_spanish.wav,,,,,,,,,0,0,0,0,0,3,3,20,99.9721206246,8.98016151041e-06,101.099270102,1.12715845706,,,,,z,1,1.11718176701,2018_Nov_27_1533,59.9767246643,spanish_cond2,001,1058,
images/cupcake.jpg,scissors,x,sounds/greatgatsby_spanish.wav,,,,,,,,,0,0,0,0,0,4,4,219,102.299958819,9.30100213736e-06,103.216474961,0.916525762994,,,,,x,1,0.900460492237,2018_Nov_27_1533,59.9767246643,spanish_cond2,001,1058,
images/button07.jpg,radish,x,sounds/greatgatsby_spanish.wav,,,,,,,,,0,0,0,0,0,5,5,215,104.397870985,8.98016151041e-06,105.283664553,0.885803510435,,,,,x,1,0.867124037119,2018_Nov_27_1533,59.9767246643,spanish_cond2,001,1058,
images/skateboard.jpg,key,x,sounds/greatgatsby_spanish.wav,,,,,,,,,0,0,0,0,0,6,6,189,106.405938098,9.30100213736e-06,107.217496459,0.811568303499,,,,,x,1,0.800449844217,2018_Nov_27_1533,59.9767246643,spanish_cond2,001,1058,
images/toucan.jpg,toucan,z,sounds/greatgatsby_spanish.wav,,,,,,,,,0,0,0,0,0,7,7,81,108.391016521,8.65943729877e-06,109.684773224,1.29376568331,,,,,z,1,1.2838701359,2018_Nov_27_1533,59.9767246643,spanish_cond2,001,1058,
images/pipe.jpg,icecube,x,sounds/greatgatsby_spanish.wav,,,,,,,,,0,0,0,0,0,8,8,188,110.812358241,8.98027792573e-06,111.835316462,1.02296720177,,,,,x,1,1.00048589346,2018_Nov_27_1533,59.9767246643,spanish_cond2,001,1058,
images/pepper05a.jpg,lighter,x,sounds/greatgatsby_spanish.wav,,,,,,,,,0,0,0,0,0,9,9,198,113.044205713,8.98016151041e-06,114.05255891,1.00836217694,,,,,x,1,0.983824080322,2018_Nov_27_1533,59.9767246643,spanish_cond2,001,1058,
images/apricot.jpg,apricot,z,sounds/greatgatsby_spanish.wav,,,,,,,,,0,0,0,0,0,10,10,32,115.252587583,8.65943729877e-06,116.219981411,0.967402808485,,,,,z,1,0.950688397046,2018_Nov_27_1533,59.9767246643,spanish_cond2,001,1058,
images/puzzle.jpg,puzzle,z,sounds/greatgatsby_spanish.wav,,,,,,,,,0,0,0,0,0,11,11,57,117.400664792,9.30088572204e-06,118.487002432,1.08634726203,,,,,z,1,1.06715912418,2018_Nov_27_1533,59.9767246643,spanish_cond2,001,1058,
images/plant01.jpg,plant,z,sounds/greatgatsby_spanish.wav,,,,,,,,,0,0,0,0,0,12,12,47,119.635285866,8.98027792573e-06,120.437515395,0.8022388299,,,,,z,1,0.783786106855,2018_Nov_27_1533,59.9767246643,spanish_cond2,001,1058,
images/camera01a.jpg,bull,x,sounds/greatgatsby_spanish.wav,,,,,,,,,0,0,0,0,0,13,13,138,121.62911967,8.98016151041e-06,122.438029191,0.808919783682,,,,,x,1,0.800461390172,2018_Nov_27_1533,59.9767246643,spanish_cond2,001,1058,
images/corkscrew02a.jpg,masquerade mask,x,sounds/greatgatsby_spanish.wav,,,,,,,,,0,0,0,0,0,14,14,201,123.60975706,9.62160993367e-06,124.721916325,1.11216920766,,,,,x,1,1.10051001166,2018_Nov_27_1533,59.9767246643,spanish_cond2,001,1058,
images/doll.jpg,carrot,x,sounds/greatgatsby_spanish.wav,,,,,,,,,0,0,0,0,0,15,15,146,125.880760482,8.98027792573e-06,126.672404592,0.791653410182,,,,,x,1,0.783747620182,2018_Nov_27_1533,59.9767246643,spanish_cond2,001,1058,
images/cocktailshrimp01.jpg,cocktail shrimp,z,sounds/greatgatsby_spanish.wav,,,,,,,,,0,0,0,0,0,16,16,30,127.860749693,8.98027792573e-06,129.039679689,1.1789392964,,,,,z,1,1.167202165,2018_Nov_27_1533,59.9767246643,spanish_cond2,001,1058,
images/highlighter03b.jpg,coin,x,sounds/greatgatsby_spanish.wav,,,,,,,,,0,0,0,0,0,17,17,156,130.218647529,8.98027792573e-06,130.873467912,0.654830325395,,,,,x,1,0.633690916584,2018_Nov_27_1533,59.9767246643,spanish_cond2,001,1058,
images/table02.jpg,table,z,sounds/greatgatsby_spanish.wav,,,,,,,,,0,0,0,0,0,18,18,49,132.024770941,8.98016151041e-06,133.07403636,1.0492747199,,,,,z,1,1.03383870516,2018_Nov_27_1533,59.9767246643,spanish_cond2,001,1058,
images/umbrella01.jpg,umbrella,z,sounds/greatgatsby_spanish.wav,,,,,,,,,0,0,0,0,0,19,19,53,134.262037327,9.30100213736e-06,135.057856912,0.795828885981,,,,,z,1,0.783763014828,2018_Nov_27_1533,59.9767246643,spanish_cond2,001,1058,
images/ant.jpg,ant,z,sounds/greatgatsby_spanish.wav,,,,,,,,,0,0,0,0,0,20,20,98,136.21785246,9.62160993367e-06,137.20840464,0.990562122432,,,,,z,1,0.967139175278,2018_Nov_27_1533,59.9767246643,spanish_cond2,001,1058,
images/drink.jpg,drink,z,sounds/greatgatsby_spanish.wav,,,,,,,,,0,0,0,0,0,21,21,117,138.375561904,9.30088572204e-06,139.609012665,1.23346006114,,,,,z,1,1.21720909257,2018_Nov_27_1533,59.9767246643,spanish_cond2,001,1058,
images/dragonfly02.jpg,dragon fly,z,sounds/greatgatsby_spanish.wav,,,,,,,,,0,0,0,0,0,22,22,29,140.746539413,8.65943729877e-06,141.90959208,1.16306164779,,,,,z,1,1.15048358415,2018_Nov_27_1533,59.9767246643,spanish_cond2,001,1058,
images/scooter.jpg,pen,x,sounds/greatgatsby_spanish.wav,,,,,,,,,0,0,0,0,0,23,23,212,143.026210019,8.98027792573e-06,143.960120822,0.933920104406,,,,,x,1,0.917134813499,2018_Nov_27_1533,59.9767246643,spanish_cond2,001,1058,
images/redfox.jpg,red fox,z,sounds/greatgatsby_spanish.wav,,,,,,,,,0,0,0,0,0,24,24,1,145.149432579,8.65943729877e-06,145.960621148,0.811197549105,,,,,z,1,0.800427073031,2018_Nov_27_1533,59.9767246643,spanish_cond2,001,1058,
images/tissuebox03.jpg,tissue box,z,sounds/greatgatsby_spanish.wav,,,,,,,,,0,0,0,0,0,25,25,58,147.151349853,8.98016151041e-06,147.944465113,0.79312488134,,,,,z,1,0.783768146415,2018_Nov_27_1533,59.9767246643,spanish_cond2,001,1058,
images/daisy.jpg,daisy,z,sounds/greatgatsby_spanish.wav,,,,,,,,,0,0,0,0,0,26,26,6,149.10576215,9.30088572204e-06,149.978305422,0.872552893357,,,,,z,1,0.850439452915,2018_Nov_27_1533,59.9767246643,spanish_cond2,001,1058,
images/basketball01.jpg,basket ball,z,sounds/greatgatsby_spanish.wav,,,,,,,,,0,0,0,0,0,27,27,33,151.187893525,9.30100213736e-06,152.44561907,1.257735166,,,,,z,1,1.23389560124,2018_Nov_27_1533,59.9767246643,spanish_cond2,001,1058,
images/carrot02.jpg,corkscrew,x,sounds/greatgatsby_spanish.wav,,,,,,,,,0,0,0,0,0,28,28,161,153.65056184,9.30088572204e-06,155.062931371,1.41237915203,,,,,x,1,1.40059519536,2018_Nov_27_1533,59.9767246643,spanish_cond2,001,1058,
images/mushroom01.jpg,shower head,x,sounds/greatgatsby_spanish.wav,,,,,,,,,0,0,0,0,0,29,29,222,156.260387855,9.30100213736e-06,157.480189021,1.21981110773,,,,,x,1,1.20052162174,2018_Nov_27_1533,59.9767246643,spanish_cond2,001,1058,
images/pineapple01a.jpg,pineapple,z,sounds/greatgatsby_spanish.wav,,,,,,,,,0,0,0,0,0,30,30,51,158.626790268,9.30100213736e-06,159.314008675,0.687228348805,,,,,z,1,0.667071631295,2018_Nov_27_1533,59.9767246643,spanish_cond2,001,1058,
images/electrictoothbrush01a.jpg,banjo,x,sounds/greatgatsby_spanish.wav,,,,,,,,,0,0,0,0,0,31,31,127,160.505312113,8.98016151041e-06,161.481205388,0.975902895676,,,,,x,1,0.967131157173,2018_Nov_27_1533,59.9767246643,spanish_cond2,001,1058,
images/tent.jpg,tent,z,sounds/greatgatsby_spanish.wav,,,,,,,,,0,0,0,0,0,32,32,11,162.712034569,8.98016151041e-06,163.581745868,0.869720920804,,,,,z,1,0.850448112353,2018_Nov_27_1533,59.9767246643,spanish_cond2,001,1058,
images/fireextinguisher02.jpg,fire extinguisher,z,sounds/greatgatsby_spanish.wav,,,,,,,,,0,0,0,0,0,33,33,175,164.731037009,8.65943729877e-06,165.56557989,0.834552503424,,,,,z,1,0.817099149222,2018_Nov_27_1533,59.9767246643,spanish_cond2,001,1058,
images/tape01a.jpg,tie,x,sounds/greatgatsby_spanish.wav,,,,,,,,,0,0,0,0,0,34,34,232,166.765365456,9.94233414531e-06,167.999529501,1.23417398764,,,,,x,1,1.21717958618,2018_Nov_27_1533,59.9767246643,spanish_cond2,001,1058,
images/cherry01.jpg,highlighter,x,sounds/greatgatsby_spanish.wav,,,,,,,,,0,0,0,0,0,35,35,187,169.139213744,8.98016151041e-06,170.166750268,1.02754582476,,,,,x,1,1.0171618181,2018_Nov_27_1533,59.9767246643,spanish_cond2,001,1058,
images/flashlight05.jpg,flash light,z,sounds/greatgatsby_spanish.wav,,,,,,,,,0,0,0,0,0,36,36,8,171.348588889,9.30088572204e-06,172.150591667,0.802012079628,,,,,z,1,0.783767825691,2018_Nov_27_1533,59.9767246643,spanish_cond2,001,1058,
images/key03b.jpg,cigar,x,sounds/greatgatsby_spanish.wav,,,,,,,,,0,0,0,0,0,37,37,153,173.333151912,9.30088572204e-06,174.350981152,1.0178391824,,,,,x,1,1.00032296672,2018_Nov_27_1533,59.9767246643,spanish_cond2,001,1058,
images/fork01.jpg,cooking pot,x,sounds/greatgatsby_spanish.wav,,,,,,,,,0,0,0,0,0,38,38,160,175.511484082,8.98016151041e-06,176.435012162,0.923537701485,,,,,x,1,0.900461133569,2018_Nov_27_1533,59.9767246643,spanish_cond2,001,1058,
images/doorhandle.jpg,doll,x,sounds/greatgatsby_spanish.wav,,,,,,,,,0,0,0,0,0,39,39,168,177.609122672,9.30088572204e-06,178.385493052,0.776380001334,,,,,x,1,0.76709125936,2018_Nov_27_1533,59.9767246643,spanish_cond2,001,1058,
images/broadsword.jpg,teapot,x,sounds/greatgatsby_spanish.wav,,,,,,,,,0,0,0,0,0,40,40,231,179.540548524,9.30088572204e-06,180.335993185,0.795454283012,,,,,x,1,0.783770070761,2018_Nov_27_1533,59.9767246643,spanish_cond2,001,1058,
images/lemon02.jpg,lemon,z,sounds/greatgatsby_spanish.wav,,,,,,,,,0,0,0,0,0,41,41,14,181.54292892,8.65943729877e-06,182.269811942,0.72689264291,,,,,z,1,0.717071823776,2018_Nov_27_1533,59.9767246643,spanish_cond2,001,1058,
images/bandaid01.jpg,door handle,x,sounds/greatgatsby_spanish.wav,,,,,,,,,0,0,0,0,0,42,42,170,183.431131108,8.98027792573e-06,184.370336706,0.939214898972,,,,,x,1,0.917106269277,2018_Nov_27_1533,59.9767246643,spanish_cond2,001,1058,
images/spoon02b.jpg,spoon,z,sounds/greatgatsby_spanish.wav,,,,,,,,,0,0,0,0,0,43,43,38,185.536857017,8.98027792573e-06,186.52089117,0.984044416109,,,,,z,1,0.967150079785,2018_Nov_27_1533,59.9767246643,spanish_cond2,001,1058,
images/scissors04a.jpg,leek,x,sounds/greatgatsby_spanish.wav,,,,,,,,,0,0,0,0,0,44,44,194,187.713373902,8.65943729877e-06,188.521393741,0.808029780863,,,,,x,1,0.783763656276,2018_Nov_27_1533,59.9767246643,spanish_cond2,001,1058,
images/cauliflower01.jpg,glue stick,x,sounds/greatgatsby_spanish.wav,,,,,,,,,0,0,0,0,0,45,45,181,189.713791482,8.65943729877e-06,190.421917415,0.708135234192,,,,,x,1,0.683770968695,2018_Nov_27_1533,59.9767246643,spanish_cond2,001,1058,
images/boxingglove02a.jpg,bracelet,x,sounds/greatgatsby_spanish.wav,,,,,,,,,0,0,0,0,0,46,46,135,191.607900402,8.65943729877e-06,192.505741239,0.897850138252,,,,,x,1,0.88379835838,2018_Nov_27_1533,59.9767246643,spanish_cond2,001,1058,
images/hanger02a.jpg,hanger,z,sounds/greatgatsby_spanish.wav,,,,,,,,,0,0,0,0,0,47,47,88,193.65931626,9.621726349e-06,194.406079536,0.746773218969,,,,,z,1,0.733617535443,2018_Nov_27_1533,59.9767246643,spanish_cond2,001,1058,
images/watermelon01.jpg,orange,x,sounds/greatgatsby_spanish.wav,,,,,,,,,0,0,0,0,0,48,48,207,195.597939106,9.30088572204e-06,196.40671681,0.808787646238,,,,,x,1,0.800414564903,2018_Nov_27_1533,59.9767246643,spanish_cond2,001,1058,
images/bowtie.jpg,bowtie,z,sounds/greatgatsby_spanish.wav,,,,,,,,,0,0,0,0,0,49,49,89,197.538051705,8.33871308714e-06,198.457215725,0.919172999798,,,,,z,1,0.900437079486,2018_Nov_27_1533,59.9767246643,spanish_cond2,001,1058,
images/snowman.jpg,globe,x,sounds/greatgatsby_spanish.wav,,,,,,,,,0,0,0,0,0,50,50,180,199.641704148,8.98016151041e-06,200.774503138,1.1328079697,,,,,x,1,1.11719331308,2018_Nov_27_1533,59.9767246643,spanish_cond2,001,1058,
images/glasses01b.jpg,calculator,x,sounds/greatgatsby_spanish.wav,,,,,,,,,0,0,0,0,0,51,51,142,201.899962091,9.30100213736e-06,202.591612229,0.691659439704,,,,,x,1,0.683735368657,2018_Nov_27_1533,59.9767246643,spanish_cond2,001,1058,
images/lighter02b.jpg,stapler,x,sounds/greatgatsby_spanish.wav,,,,,,,,,0,0,0,0,0,52,52,227,203.763399432,8.98016151041e-06,204.858856152,1.09546698362,,,,,x,1,1.08378597861,2018_Nov_27_1533,59.9767246643,spanish_cond2,001,1058,
images/marker01a.jpg,marker,z,sounds/greatgatsby_spanish.wav,,,,,,,,,0,0,0,0,0,53,53,95,206.034339352,9.30088572204e-06,206.792691586,0.758361856104,,,,,z,1,0.750423673308,2018_Nov_27_1533,59.9767246643,spanish_cond2,001,1058,
images/cheetah.jpg,cheetah,z,sounds/greatgatsby_spanish.wav,,,,,,,,,0,0,0,0,0,54,54,82,207.958656407,8.98027792573e-06,208.726506815,0.767860029358,,,,,z,1,0.750429767068,2018_Nov_27_1533,59.9767246643,spanish_cond2,001,1058,
images/baseball01a.jpg,baseball,z,sounds/greatgatsby_spanish.wav,,,,,,,,,0,0,0,0,0,55,55,74,209.930295628,8.6595537141e-06,210.82703639,0.896749742213,,,,,z,1,0.88378873677,2018_Nov_27_1533,59.9767246643,spanish_cond2,001,1058,
images/lily.jpg,kiwi,x,sounds/greatgatsby_spanish.wav,,,,,,,,,0,0,0,0,0,56,56,190,211.986787549,9.621726349e-06,212.760888502,0.774111216073,,,,,x,1,0.750453179819,2018_Nov_27_1533,59.9767246643,spanish_cond2,001,1058,
images/aquarium.jpg,computer mouse,x,sounds/greatgatsby_spanish.wav,,,,,,,,,0,0,0,0,0,57,57,159,213.983092193,9.30088572204e-06,214.961425518,0.978342946386,,,,,x,1,0.967134043691,2018_Nov_27_1533,59.9767246643,spanish_cond2,001,1058,
images/50dollarbill.jpg,cherry,x,sounds/greatgatsby_spanish.wav,,,,,,,,,0,0,0,0,0,58,58,151,216.127284501,8.98027792573e-06,217.012142203,0.884867323912,,,,,x,1,0.867325129802,2018_Nov_27_1533,59.9767246643,spanish_cond2,001,1058,
images/flamingo.jpg,flamingo,z,sounds/greatgatsby_spanish.wav,,,,,,,,,0,0,0,0,0,59,59,52,218.183134657,8.98027792573e-06,219.045791682,0.862666326342,,,,,z,1,0.850456451182,2018_Nov_27_1533,59.9767246643,spanish_cond2,001,1058,
images/dice05a.jpg,band aid,x,sounds/greatgatsby_spanish.wav,,,,,,,,,0,0,0,0,0,60,60,126,220.23337956,9.62160993367e-06,220.879582472,0.646212853957,,,,,x,1,0.633727478911,2018_Nov_27_1533,59.9767246643,spanish_cond2,001,1058,
images/egg01b (1).jpg,egg,z,sounds/greatgatsby_spanish.wav,,,,,,,,,0,0,0,0,0,61,61,19,222.070020282,8.98027792573e-06,223.09681209,1.02680078824,,,,,z,1,1.01716438401,2018_Nov_27_1533,59.9767246643,spanish_cond2,001,1058,
images/cactus.jpg,cactus,z,sounds/greatgatsby_spanish.wav,,,,,,,,,0,0,0,0,0,62,62,70,224.291455846,9.94233414531e-06,225.197337497,0.90589191427,,,,,z,1,0.88378264301,2018_Nov_27_1533,59.9767246643,spanish_cond2,001,1058,
images/swallow.jpg,mattress,x,sounds/greatgatsby_spanish.wav,,,,,,,,,0,0,0,0,0,63,63,202,226.329436992,8.98016151041e-06,227.031132135,0.701704443432,,,,,x,1,0.683731519966,2018_Nov_27_1533,59.9767246643,spanish_cond2,001,1058,
images/radish01.jpg,raisin,x,sounds/greatgatsby_spanish.wav,,,,,,,,,0,0,0,0,0,64,64,214,228.214757496,8.98016151041e-06,229.431742404,1.21699420898,,,,,z,0,1.20053637493,2018_Nov_27_1533,59.9767246643,spanish_cond2,001,1058,
images/apple06.jpg,apple,z,sounds/greatgatsby_spanish.wav,,,,,,,,,0,0,0,0,0,65,65,13,230.584404009,9.30088572204e-06,231.482266014,0.897872268106,,,,,z,1,0.883796434151,2018_Nov_27_1533,59.9767246643,spanish_cond2,001,1058,
images/radio03a.jpg,radio,z,sounds/greatgatsby_spanish.wav,,,,,,,,,0,0,0,0,0,66,66,37,232.672267964,9.30100213736e-06,233.666148273,0.993889610167,,,,,z,1,0.983760577394,2018_Nov_27_1533,59.9767246643,spanish_cond2,001,1058,
images/lion.jpg,lion,z,sounds/greatgatsby_spanish.wav,,,,,,,,,0,0,0,0,0,67,67,44,234.865430947,8.6595537141e-06,235.80001687,0.934594582184,,,,,z,1,0.91710883507,2018_Nov_27_1533,59.9767246643,spanish_cond2,001,1058,
images/nailpolish02b.jpg,nail polish,z,sounds/greatgatsby_spanish.wav,,,,,,,,,0,0,0,0,0,68,68,94,236.985850079,8.98027792573e-06,237.917221087,0.931380630005,,,,,z,1,0.917133530602,2018_Nov_27_1533,59.9767246643,spanish_cond2,001,1058,
images/bat.jpg,hand,x,sounds/greatgatsby_spanish.wav,,,,,,,,,0,0,0,0,0,69,69,185,239.11900507,8.98016151041e-06,239.834380597,0.715385469026,,,,,x,1,0.700414180057,2018_Nov_27_1533,59.9767246643,spanish_cond2,001,1058,
images/tie01.jpg,bench,x,sounds/greatgatsby_spanish.wav,,,,,,,,,0,0,0,0,0,70,70,130,241.005100758,9.62160993367e-06,241.651492575,0.646402400569,,,,,x,1,0.633714649943,2018_Nov_27_1533,59.9767246643,spanish_cond2,001,1058,
images/bullet (2).jpg,rubber glove,x,sounds/greatgatsby_spanish.wav,,,,,,,,,0,0,0,0,0,71,71,217,242.82268548,8.98016151041e-06,243.535314987,0.712639129022,,,,,x,1,0.700411614263,2018_Nov_27_1533,59.9767246643,spanish_cond2,001,1058,
images/globe.jpg,cloud,x,sounds/greatgatsby_spanish.wav,,,,,,,,,0,0,0,0,0,72,72,154,244.732870895,9.30088572204e-06,245.752569943,1.01970963133,,,,,x,1,1.00049006275,2018_Nov_27_1533,59.9767246643,spanish_cond2,001,1058,
images/mitten01.jpg,mitten,z,sounds/greatgatsby_spanish.wav,,,,,,,,,0,0,0,0,0,73,73,102,246.939667437,8.98027792573e-06,247.869739843,0.930082348525,,,,,z,1,0.917106590001,2018_Nov_27_1533,59.9767246643,spanish_cond2,001,1058,
images/knife04.jpg,tooth brush,x,sounds/greatgatsby_spanish.wav,,,,,,,,,0,0,0,0,0,74,74,233,249.041563608,9.30088572204e-06,249.870252036,0.828698049416,,,,,x,1,0.817105884315,2018_Nov_27_1533,59.9767246643,spanish_cond2,001,1058,
images/battery03b.jpg,battery,z,sounds/greatgatsby_spanish.wav,,,,,,,,,0,0,0,0,0,75,75,34,251.048131668,9.62160993367e-06,251.970778404,0.922657961841,,,,,z,1,0.900455681374,2018_Nov_27_1533,59.9767246643,spanish_cond2,001,1058,
images/bicycle.jpg,hand bag,x,sounds/greatgatsby_spanish.wav,,,,,,,,,0,0,0,0,0,76,76,186,253.153328065,9.30088572204e-06,254.021307788,0.86798934429,,,,,x,1,0.850454205996,2018_Nov_27_1533,59.9767246643,spanish_cond2,001,1058,
images/dolphin01.jpg,dolphin,z,sounds/greatgatsby_spanish.wav,,,,,,,,,0,0,0,0,0,77,77,99,255.204970994,9.94233414531e-06,256.021918762,0.816957710893,,,,,z,1,0.800515592215,2018_Nov_27_1533,59.9767246643,spanish_cond2,001,1058,
images/cockroach02.jpg,belt,x,sounds/greatgatsby_spanish.wav,,,,,,,,,0,0,0,0,0,78,78,129,257.194215592,8.98027792573e-06,257.905614811,0.711407878436,,,,,x,1,0.70040904847,2018_Nov_27_1533,59.9767246643,spanish_cond2,001,1058,
images/panda.jpg,panda,z,sounds/greatgatsby_spanish.wav,,,,,,,,,0,0,0,0,0,79,79,83,259.046064616,9.30088572204e-06,260.2728774,1.22682240489,,,,,z,1,1.21721037547,2018_Nov_27_1533,59.9767246643,spanish_cond2,001,1058,
images/screw03c.jpg,screw,z,sounds/greatgatsby_spanish.wav,,,,,,,,,0,0,0,0,0,80,80,84,261.368632712,8.98016151041e-06,262.790189316,1.42156686669,,,,,z,1,1.40059936466,2018_Nov_27_1533,59.9767246643,spanish_cond2,001,1058,
images/flower01.jpg,bus,x,sounds/greatgatsby_spanish.wav,,,,,,,,,0,0,0,0,0,81,81,140,263.981727843,9.94233414531e-06,264.707333109,0.725615208386,,,,,x,1,0.717081124545,2018_Nov_27_1533,59.9767246643,spanish_cond2,001,1058,
images/feather03b.jpg,feather,z,sounds/greatgatsby_spanish.wav,,,,,,,,,0,0,0,0,0,82,82,114,265.895321889,8.6595537141e-06,266.791217549,0.895905602607,,,,,z,1,0.883811187232,2018_Nov_27_1533,59.9767246643,spanish_cond2,001,1058,
images/grandpiano.jpg,tulip,x,sounds/greatgatsby_spanish.wav,,,,,,,,,0,0,0,0,0,83,83,236,267.969307254,9.30088572204e-06,268.658336134,0.689038501936,,,,,x,1,0.667061047396,2018_Nov_27_1533,59.9767246643,spanish_cond2,001,1058,
images/highheelshoe02a.jpg,high heel shoe,z,sounds/greatgatsby_spanish.wav,,,,,,,,,0,0,0,0,0,84,84,75,269.830177218,8.98027792573e-06,270.758878859,0.92871126323,,,,,x,0,0.917112042196,2018_Nov_27_1533,59.9767246643,spanish_cond2,001,1058,
images/sunglasses03a.jpg,sun glasses,z,sounds/greatgatsby_spanish.wav,,,,,,,,,0,0,0,0,0,85,85,17,271.97472713,8.6595537141e-06,272.992769009,1.01805085887,,,,,z,1,1.00048781768,2018_Nov_27_1533,59.9767246643,spanish_cond2,001,1058,
images/saltshaker03c.jpg,salt shaker,z,sounds/greatgatsby_spanish.wav,,,,,,,,,0,0,0,0,0,86,86,63,274.168887878,9.30100213736e-06,275.026609317,0.857730740099,,,,,z,1,0.83377090469,2018_Nov_27_1533,59.9767246643,spanish_cond2,001,1058,
images/nametag01a.jpg,name tag,z,sounds/greatgatsby_spanish.wav,,,,,,,,,0,0,0,0,0,87,87,108,276.220609384,8.6595537141e-06,277.760779777,1.54017969395,,,,,z,1,1.51741230185,2018_Nov_27_1533,59.9767246643,spanish_cond2,001,1058,
images/lightbulb03b.jpg,treadmill,x,sounds/greatgatsby_spanish.wav,,,,,,,,,0,0,0,0,0,88,88,234,278.928417803,8.98016151041e-06,280.177910421,1.24950191914,,,,,x,1,1.23386866064,2018_Nov_27_1533,59.9767246643,spanish_cond2,001,1058,
images/banana04a.jpg,banana,z,sounds/greatgatsby_spanish.wav,,,,,,,,,0,0,0,0,0,89,89,118,281.303793368,8.98027792573e-06,281.928358149,0.624574081623,,,,,z,1,0.600380119402,2018_Nov_27_1533,59.9767246643,spanish_cond2,001,1058,
images/donut.jpg,rhinoceros,x,sounds/greatgatsby_spanish.wav,,,,,,,,,0,0,0,0,0,90,90,216,283.116814861,8.98027792573e-06,283.928875473,0.812070232932,,,,,x,1,0.800446957699,2018_Nov_27_1533,59.9767246643,spanish_cond2,001,1058,
images/diploma01.jpg,glasses,x,sounds/greatgatsby_spanish.wav,,,,,,,,,0,0,0,0,0,91,91,179,285.147174057,8.98016151041e-06,285.912716872,0.7655524367,,,,,x,1,0.750429767068,2018_Nov_27_1533,59.9767246643,spanish_cond2,001,1058,
images/worldmap.jpg,scooter,x,sounds/greatgatsby_spanish.wav,,,,,,,,,0,0,0,0,0,92,92,220,287.110937957,8.98027792573e-06,288.780093638,1.66916498181,,,,,x,1,1.65064522787,2018_Nov_27_1533,59.9767246643,spanish_cond2,001,1058,
images/ladybug03.jpg,giraffe,x,sounds/greatgatsby_spanish.wav,,,,,,,,,0,0,0,0,0,93,93,178,289.900978778,8.98016151041e-06,290.597216841,0.69624768442,,,,,x,1,0.683738896623,2018_Nov_27_1533,59.9767246643,spanish_cond2,001,1058,
images/axe01.jpg,axe,z,sounds/greatgatsby_spanish.wav,,,,,,,,,0,0,0,0,0,94,94,104,291.781344773,8.98016151041e-06,292.681082359,0.89974656573,,,,,z,1,0.883790661115,2018_Nov_27_1533,59.9767246643,spanish_cond2,001,1058,
images/dryingmachine01.jpg,drying machine,z,sounds/greatgatsby_spanish.wav,,,,,,,,,0,0,0,0,0,95,95,18,293.880870811,8.65943729877e-06,294.798288821,0.9174279531,,,,,z,1,0.900466585997,2018_Nov_27_1533,59.9767246643,spanish_cond2,001,1058,
images/treadmill.jpg,lily,x,sounds/greatgatsby_spanish.wav,,,,,,,,,0,0,0,0,0,96,96,199,295.97653568,8.65943729877e-06,296.815460261,0.838933882536,,,,,x,1,0.817104601418,2018_Nov_27_1533,59.9767246643,spanish_cond2,001,1058,
images/ruler02b.jpg,watermelon,x,sounds/greatgatsby_spanish.wav,,,,,,,,,0,0,0,0,0,97,97,238,297.983502717,8.98027792573e-06,299.8162332,1.83274042583,,,,,x,1,1.81736310315,2018_Nov_27_1533,59.9767246643,spanish_cond2,001,1058,
images/bus.jpg,microphone,x,sounds/greatgatsby_spanish.wav,,,,,,,,,0,0,0,0,0,98,98,203,300.998027882,8.6595537141e-06,301.750067672,0.752048449591,,,,,x,1,0.733774689259,2018_Nov_27_1533,59.9767246643,spanish_cond2,001,1058,
images/licenseplate.jpg,license plate,z,sounds/greatgatsby_spanish.wav,,,,,,,,,0,0,0,0,0,99,99,40,302.951870898,9.30100213736e-06,303.817232249,0.865370651707,,,,,z,1,0.850445546559,2018_Nov_27_1533,59.9767246643,spanish_cond2,001,1058,
images/puma.jpg,puma,z,sounds/greatgatsby_spanish.wav,,,,,,,,,0,0,0,0,0,100,100,4,304.915594387,8.65943729877e-06,305.684370398,0.768784990767,,,,,z,1,0.750417900272,2018_Nov_27_1533,59.9767246643,spanish_cond2,001,1058,
images/coin01b.jpg,arrow,x,sounds/greatgatsby_spanish.wav,,,,,,,,,0,0,0,0,0,101,101,124,306.857296804,9.30100213736e-06,307.618201021,0.760913518025,,,,,x,1,0.750415976043,2018_Nov_27_1533,59.9767246643,spanish_cond2,001,1058,
images/butterfly.jpg,butterfly,z,sounds/greatgatsby_spanish.wav,,,,,,,,,0,0,0,0,0,102,102,91,308.757392956,8.98016151041e-06,309.702056275,0.944672940765,,,,,z,1,0.933801757987,2018_Nov_27_1533,59.9767246643,spanish_cond2,001,1058,
images/ladder.jpg,ladder,z,sounds/greatgatsby_spanish.wav,,,,,,,,,0,0,0,0,0,103,103,113,310.853099198,8.98016151041e-06,311.669220787,0.816130890278,,,,,z,1,0.800429959432,2018_Nov_27_1533,59.9767246643,spanish_cond2,001,1058,
images/eyedrops.jpg,bicycle,x,sounds/greatgatsby_spanish.wav,,,,,,,,,0,0,0,0,0,104,104,131,312.835615054,9.621726349e-06,313.586367467,0.75076203479,,,,,x,1,0.733739730436,2018_Nov_27_1533,59.9767246643,spanish_cond2,001,1058,
images/squirrel.jpg,binder,x,sounds/greatgatsby_spanish.wav,,,,,,,,,0,0,0,0,0,105,105,132,314.691325889,9.30088572204e-06,316.120349215,1.42903326778,,,,,x,1,1.41726246069,2018_Nov_27_1533,59.9767246643,spanish_cond2,001,1058,
images/paintbrush03a.jpg,paint brush,z,sounds/greatgatsby_spanish.wav,,,,,,,,,0,0,0,0,0,106,106,0,317.288919258,8.98016151041e-06,318.087511482,0.798601525021,,,,,z,1,0.783763977,2018_Nov_27_1533,59.9767246643,spanish_cond2,001,1058,
images/comb02a.jpg,diploma,x,sounds/greatgatsby_spanish.wav,,,,,,,,,0,0,0,0,0,107,107,166,319.287391339,9.30100213736e-06,319.921303233,0.633921515546,,,,,x,1,0.617047705455,2018_Nov_27_1533,59.9767246643,spanish_cond2,001,1058,
images/djmixer01.jpg,light bulb,x,sounds/greatgatsby_spanish.wav,,,,,,,,,0,0,0,0,0,108,108,196,321.109396568,8.98027792573e-06,321.955156371,0.8457691035,,,,,x,1,0.833776677609,2018_Nov_27_1533,59.9767246643,spanish_cond2,001,1058,
images/notebook02b.jpg,notebook,z,sounds/greatgatsby_spanish.wav,,,,,,,,,0,0,0,0,0,109,109,7,323.13407033,8.65943729877e-06,324.039026699,0.904965669964,,,,,z,1,0.883797075599,2018_Nov_27_1533,59.9767246643,spanish_cond2,001,1058,
images/parkingmeter.jpg,ear,x,sounds/greatgatsby_spanish.wav,,,,,,,,,0,0,0,0,0,110,110,171,325.211931938,9.30088572204e-06,326.506309558,1.29438788339,,,,,x,1,1.28388168197,2018_Nov_27_1533,59.9767246643,spanish_cond2,001,1058,
images/elbow.jpg,elbow,z,sounds/greatgatsby_spanish.wav,,,,,,,,,0,0,0,0,0,111,111,105,327.645013355,8.98016151041e-06,328.790233575,1.1452292006,,,,,z,1,1.13386763423,2018_Nov_27_1533,59.9767246643,spanish_cond2,001,1058,
images/blackolive.jpg,tank,x,sounds/greatgatsby_spanish.wav,,,,,,,,,0,0,0,0,0,112,112,229,329.925090957,8.98027792573e-06,331.007576409,1.08249475306,,,,,x,1,1.06729382731,2018_Nov_27_1533,59.9767246643,spanish_cond2,001,1058,
images/coffeepot03b.jpg,coffee pot,z,sounds/greatgatsby_spanish.wav,,,,,,,,,0,0,0,0,0,113,113,107,332.15903659,8.65943729877e-06,333.274683384,1.1156557732,,,,,z,1,1.10051033238,2018_Nov_27_1533,59.9767246643,spanish_cond2,001,1058,
images/lamp04b.jpg,parking meter,x,sounds/greatgatsby_spanish.wav,,,,,,,,,0,0,0,0,0,114,114,209,334.443833612,1.34703004733e-05,335.375209431,0.931389610167,,,,,x,1,0.917103062035,2018_Nov_27_1533,59.9767246643,spanish_cond2,001,1058,
images/pouch01b.jpg,pouch,z,sounds/greatgatsby_spanish.wav,,,,,,,,,0,0,0,0,0,115,115,25,336.612844968,9.30100213736e-06,337.675800393,1.0629650465,,,,,z,1,1.0504979525,2018_Nov_27_1533,59.9767246643,spanish_cond2,001,1058,
images/icecube02 (2).jpg,aloe,x,sounds/greatgatsby_spanish.wav,,,,,,,,,0,0,0,0,0,116,116,122,338.832955309,8.98027792573e-06,340.209772839,1.37682683079,,,,,x,1,1.36724110064,2018_Nov_27_1533,59.9767246643,spanish_cond2,001,1058,
images/straw.jpg,straw,z,sounds/greatgatsby_spanish.wav,,,,,,,,,0,0,0,0,0,117,117,109,341.4075834,8.98016151041e-06,342.16027169,0.752697269432,,,,,z,1,0.733730108826,2018_Nov_27_1533,59.9767246643,spanish_cond2,001,1058,
images/blueberry02.jpg,blueberry,z,sounds/greatgatsby_spanish.wav,,,,,,,,,0,0,0,0,0,118,118,46,343.350039834,9.621726349e-06,344.327501437,0.977471545571,,,,,z,1,0.967154890648,2018_Nov_27_1533,59.9767246643,spanish_cond2,001,1058,
images/candycane01a.jpg,lip,x,sounds/greatgatsby_spanish.wav,,,,,,,,,0,0,0,0,0,119,119,200,345.490142298,8.98016151041e-06,346.394670503,0.904537506402,,,,,x,1,0.883790661115,2018_Nov_27_1533,59.9767246643,spanish_cond2,001,1058,
images/sportshorts02.jpg,tape,x,sounds/greatgatsby_spanish.wav,,,,,,,,,0,0,0,0,0,120,120,230,347.585294653,8.65943729877e-06,348.345173844,0.759889132925,,,,,x,1,0.750429125619,2018_Nov_27_1533,59.9767246643,spanish_cond2,001,1058,
images/banjo.jpg,knife,x,sounds/greatgatsby_spanish.wav,,,,,,,,,0,0,0,0,0,121,121,191,349.509315041,9.30100213736e-06,350.212537781,0.703233003034,,,,,x,1,0.683968212572,2018_Nov_27_1533,59.9767246643,spanish_cond2,001,1058,
images/computerkeyboard01a.jpg,computer keyboard,z,sounds/greatgatsby_spanish.wav,,,,,,,,,0,0,0,0,0,122,122,61,351.397066294,8.98016151041e-06,352.129462522,0.732405848918,,,,,z,1,0.717069257982,2018_Nov_27_1533,59.9767246643,spanish_cond2,001,1058,
images/sock03.jpg,sock,z,sounds/greatgatsby_spanish.wav,,,,,,,,,0,0,0,0,0,123,123,90,353.306145862,8.98027792573e-06,354.129970224,0.823834304931,,,,,z,1,0.80044118478,2018_Nov_27_1533,59.9767246643,spanish_cond2,001,1058,
images/remotecontrol01c.jpg,remote control,z,sounds/greatgatsby_spanish.wav,,,,,,,,,0,0,0,0,0,124,124,85,355.312666134,8.65943729877e-06,356.147165718,0.834508564556,,,,,z,1,0.817128655501,2018_Nov_27_1533,59.9767246643,spanish_cond2,001,1058,
images/giraffe.jpg,lettuce,x,sounds/greatgatsby_spanish.wav,,,,,,,,,0,0,0,0,0,125,125,195,357.314260441,9.30100213736e-06,358.147653536,0.833403357654,,,,,x,1,0.817111015902,2018_Nov_27_1533,59.9767246643,spanish_cond2,001,1058,
images/pen03c.jpg,pepper,x,sounds/greatgatsby_spanish.wav,,,,,,,,,0,0,0,0,0,126,126,211,359.309017283,9.30088572204e-06,360.231522902,0.922515240731,,,,,x,1,0.900475566159,2018_Nov_27_1533,59.9767246643,spanish_cond2,001,1058,
images/beachumbrella01.jpg,beach umbrella,z,sounds/greatgatsby_spanish.wav,,,,,,,,,0,0,0,0,0,127,127,92,361.389153128,9.62160993367e-06,362.748801142,1.3596573153,,,,,z,1,1.35056517588,2018_Nov_27_1533,59.9767246643,spanish_cond2,001,1058,
images/bull.jpg,button,x,sounds/greatgatsby_spanish.wav,,,,,,,,,0,0,0,0,0,128,128,141,363.960943473,8.6595537141e-06,364.715832876,0.754898703308,,,,,x,1,0.733602461638,2018_Nov_27_1533,59.9767246643,spanish_cond2,001,1058,
images/backpack01b.jpg,swallow,x,sounds/greatgatsby_spanish.wav,,,,,,,,,0,0,0,0,0,129,129,228,365.907481732,8.98016151041e-06,366.866521401,0.959048649529,,,,,x,1,0.950463250396,2018_Nov_27_1533,59.9767246643,spanish_cond2,001,1058,
images/cigar.jpg,crocodile,x,sounds/greatgatsby_spanish.wav,,,,,,,,,0,0,0,0,0,130,130,162,368.045582572,8.98016151041e-06,369.167098251,1.12152465957,,,,,x,1,1.10050071077,2018_Nov_27_1533,59.9767246643,spanish_cond2,001,1058,
images/lollipop03b.jpg,lollipop,z,sounds/greatgatsby_spanish.wav,,,,,,,,,0,0,0,0,0,131,131,42,370.33197775,8.98016151041e-06,371.384345189,1.05237641954,,,,,z,1,1.03383646021,2018_Nov_27_1533,59.9767246643,spanish_cond2,001,1058,
images/kiwi03.jpg,backpack,x,sounds/greatgatsby_spanish.wav,,,,,,,,,0,0,0,0,0,132,132,125,372.565839996,9.30100213736e-06,373.568221034,1.00239033892,,,,,x,1,0.98381477932,2018_Nov_27_1533,59.9767246643,spanish_cond2,001,1058,
images/lettuce.jpg,mushroom,x,sounds/greatgatsby_spanish.wav,,,,,,,,,0,0,0,0,0,133,133,205,374.771603493,9.30088572204e-06,375.68541595,0.913822078961,,,,,x,1,0.900437079486,2018_Nov_27_1533,59.9767246643,spanish_cond2,001,1058,
images/dreamcatcher.jpg,dream catcher,z,sounds/greatgatsby_spanish.wav,,,,,,,,,0,0,0,0,0,134,134,48,376.850767872,9.30100213736e-06,377.752602656,0.90184408566,,,,,z,1,0.883781360113,2018_Nov_27_1533,59.9767246643,spanish_cond2,001,1058,
images/pingpongpaddle01c (1).jpg,ping pong paddle,z,sounds/greatgatsby_spanish.wav,,,,,,,,,0,0,0,0,0,135,135,10,378.895339529,8.98016151041e-06,379.986506917,1.09117893444,,,,,z,1,1.06716361421,2018_Nov_27_1533,59.9767246643,spanish_cond2,001,1058,
images/barrel01.jpg,barrel,z,sounds/greatgatsby_spanish.wav,,,,,,,,,0,0,0,0,0,136,136,9,381.136927961,9.30088572204e-06,382.037046243,0.90012854524,,,,,z,1,0.883807017934,2018_Nov_27_1533,59.9767246643,spanish_cond2,001,1058,
images/ashtray02b.jpg,ashtray,z,sounds/greatgatsby_spanish.wav,,,,,,,,,0,0,0,0,0,137,137,43,383.215651026,8.65943729877e-06,384.070883986,0.85524258099,,,,,z,1,0.8337805263,2018_Nov_27_1533,59.9767246643,spanish_cond2,001,1058,
images/parkfountain.jpg,park fountain,z,sounds/greatgatsby_spanish.wav,,,,,,,,,0,0,0,0,0,138,138,93,385.25671912,9.30088572204e-06,386.054712877,0.798003699863,,,,,z,1,0.783761411323,2018_Nov_27_1533,59.9767246643,spanish_cond2,001,1058,
images/peach01.jpg,peach,z,sounds/greatgatsby_spanish.wav,,,,,,,,,0,0,0,0,0,139,139,106,387.250413731,8.98016151041e-06,387.955194216,0.704789786134,,,,,z,1,0.683741783141,2018_Nov_27_1533,59.9767246643,spanish_cond2,001,1058,
images/graduationcap.jpg,graduation cap,z,sounds/greatgatsby_spanish.wav,,,,,,,,,0,0,0,0,0,140,140,35,389.117908522,9.30088572204e-06,390.00570596,0.887807379593,,,,,z,1,0.867107038968,2018_Nov_27_1533,59.9767246643,spanish_cond2,001,1058,
images/medal01.jpg,medal,z,sounds/greatgatsby_spanish.wav,,,,,,,,,0,0,0,0,0,141,141,115,391.173991202,8.98027792573e-06,392.139593158,0.965611577849,,,,,z,1,0.95047800371,2018_Nov_27_1533,59.9767246643,spanish_cond2,001,1058,
images/cloud.jpg,ceiling fan,x,sounds/greatgatsby_spanish.wav,,,,,,,,,0,0,0,0,0,142,142,149,393.324153423,9.94245056063e-06,394.173583244,0.849440084072,,,,,x,1,0.833924851031,2018_Nov_27_1533,59.9767246643,spanish_cond2,001,1058,
images/computermouse02a.jpg,world map,x,sounds/greatgatsby_spanish.wav,,,,,,,,,0,0,0,0,0,143,143,239,395.348854446,9.30088572204e-06,396.090582713,0.741737888311,,,,,x,1,0.733753842302,2018_Nov_27_1533,59.9767246643,spanish_cond2,001,1058,
images/diaper01a.jpg,camera,x,sounds/greatgatsby_spanish.wav,,,,,,,,,0,0,0,0,0,144,144,143,397.286153674,9.30088572204e-06,398.057745621,0.771602210123,,,,,x,1,0.750422069803,2018_Nov_27_1533,59.9767246643,spanish_cond2,001,1058,
images/stapler03a.jpg,candy cane,x,sounds/greatgatsby_spanish.wav,,,,,,,,,0,0,0,0,0,145,145,145,399.232337535,8.98016151041e-06,400.658407334,1.42607910023,,,,,x,1,1.41726149851,2018_Nov_27_1533,59.9767246643,spanish_cond2,001,1058,
images/gorilla.jpg,gorilla,z,sounds/greatgatsby_spanish.wav,,,,,,,,,0,0,0,0,0,146,146,80,401.836189788,8.65943729877e-06,402.592230581,0.756050094147,,,,,z,1,0.733753521577,2018_Nov_27_1533,59.9767246643,spanish_cond2,001,1058,
images/croissant02b.jpg,croissant,z,sounds/greatgatsby_spanish.wav,,,,,,,,,0,0,0,0,0,147,147,39,403.734314784,8.98016151041e-06,404.509381751,0.775076267542,,,,,z,1,0.767098315293,2018_Nov_27_1533,59.9767246643,spanish_cond2,001,1058,
images/mailbox01.jpg,mail box,z,sounds/greatgatsby_spanish.wav,,,,,,,,,0,0,0,0,0,148,148,73,405.69741896,9.30088572204e-06,406.693269142,0.995859482791,,,,,z,1,0.983817986562,2018_Nov_27_1533,59.9767246643,spanish_cond2,001,1058,
images/lock02a.jpg,lock,z,sounds/greatgatsby_spanish.wav,,,,,,,,,0,0,0,0,0,149,149,65,407.858131321,8.6595537141e-06,408.593746312,0.73562461196,,,,,z,1,0.717080803937,2018_Nov_27_1533,59.9767246643,spanish_cond2,001,1058,
images/hairband.jpg,hairband,z,sounds/greatgatsby_spanish.wav,,,,,,,,,0,0,0,0,0,150,150,66,409.705377348,9.30088572204e-06,410.410868873,0.705501146847,,,,,z,1,0.683730878634,2018_Nov_27_1533,59.9767246643,spanish_cond2,001,1058,
images/crocodile.jpg,triangle ruler,x,sounds/greatgatsby_spanish.wav,,,,,,,,,0,0,0,0,0,151,151,235,411.573452967,8.98027792573e-06,412.244655814,0.671212148503,,,,,x,1,0.650378708146,2018_Nov_27_1533,59.9767246643,spanish_cond2,001,1058,
images/gamecontroller01.jpg,game controller,z,sounds/greatgatsby_spanish.wav,,,,,,,,,0,0,0,0,0,152,152,112,413.451490843,9.30088572204e-06,414.261844573,0.810363031342,,,,,z,1,0.80043156317,2018_Nov_27_1533,59.9767246643,spanish_cond2,001,1058,
images/bracelet02a.jpg,chess knight,x,sounds/greatgatsby_spanish.wav,,,,,,,,,0,0,0,0,0,153,153,152,415.441369187,8.98016151041e-06,416.229040516,0.78768095118,,,,,x,1,0.767108578468,2018_Nov_27_1533,59.9767246643,spanish_cond2,001,1058,
images/hand01a.jpg,cupcake,x,sounds/greatgatsby_spanish.wav,,,,,,,,,0,0,0,0,0,154,154,163,417.410883306,9.30088572204e-06,418.229543408,0.818669402623,,,,,x,1,0.800442788401,2018_Nov_27_1533,59.9767246643,spanish_cond2,001,1058,
images/cookingpot.jpg,grasshopper,x,sounds/greatgatsby_spanish.wav,,,,,,,,,0,0,0,0,0,155,155,183,419.421902983,8.98016151041e-06,420.146670524,0.724777162541,,,,,x,1,0.700400068308,2018_Nov_27_1533,59.9767246643,spanish_cond2,001,1058,
images/electricguitar02.jpg,electric guitar,z,sounds/greatgatsby_spanish.wav,,,,,,,,,0,0,0,0,0,156,156,100,421.314209447,9.62160993367e-06,422.180524624,0.866325119394,,,,,z,1,0.850451961043,2018_Nov_27_1533,59.9767246643,spanish_cond2,001,1058,
images/lip.jpg,boxing glove,x,sounds/greatgatsby_spanish.wav,,,,,,,,,0,0,0,0,0,157,157,136,423.373344114,9.30100213736e-06,424.214367178,0.841032364639,,,,,x,1,0.81710556359,2018_Nov_27_1533,59.9767246643,spanish_cond2,001,1058,
images/masquerademask02b.jpg,mirror,x,sounds/greatgatsby_spanish.wav,,,,,,,,,0,0,0,0,0,158,158,204,425.389242289,9.62160993367e-06,426.498269386,1.10903736029,,,,,x,1,1.10050231428,2018_Nov_27_1533,59.9767246643,spanish_cond2,001,1058,
images/showerhead01.jpg,skateboard,x,sounds/greatgatsby_spanish.wav,,,,,,,,,0,0,0,0,0,159,159,223,427.632472816,8.98027792573e-06,429.198960348,1.5664965132,,,,,x,1,1.55062014749,2018_Nov_27_1533,59.9767246643,spanish_cond2,001,1058,
images/aloe02.jpg,broad sword,x,sounds/greatgatsby_spanish.wav,,,,,,,,,0,0,0,0,0,160,160,137,430.32228105,8.6595537141e-06,431.316162642,0.993890893064,,,,,x,1,0.983800667687,2018_Nov_27_1533,59.9767246643,spanish_cond2,001,1058,
images/gps.jpg,gps,z,sounds/greatgatsby_spanish.wav,,,,,,,,,0,0,0,0,0,161,161,21,432.478282009,8.98027792573e-06,433.583395339,1.10512263118,,,,,z,1,1.08382831386,2018_Nov_27_1533,59.9767246643,spanish_cond2,001,1058,
images/mattress.jpg,cat,x,sounds/greatgatsby_spanish.wav,,,,,,,,,0,0,0,0,0,162,162,147,434.807405336,9.30100213736e-06,435.750834197,0.943438803777,,,,,x,1,0.934004133451,2018_Nov_27_1533,59.9767246643,spanish_cond2,001,1058,
images/parrot01.jpg,chameleon,x,sounds/greatgatsby_spanish.wav,,,,,,,,,0,0,0,0,0,163,163,150,436.927590341,8.98027792573e-06,437.851164605,0.923583885422,,,,,x,1,0.900443493971,2018_Nov_27_1533,59.9767246643,spanish_cond2,001,1058,
images/bed.jpg,bed,z,sounds/greatgatsby_spanish.wav,,,,,,,,,0,0,0,0,0,164,164,103,439.0389292,8.98016151041e-06,439.818332965,0.779413066455,,,,,z,1,0.767082920647,2018_Nov_27_1533,59.9767246643,spanish_cond2,001,1058,
images/seagull.jpg,seagull,z,sounds/greatgatsby_spanish.wav,,,,,,,,,0,0,0,0,0,165,165,50,440.995541648,8.98016151041e-06,441.852151145,0.856619118596,,,,,z,1,0.833761924529,2018_Nov_27_1533,59.9767246643,spanish_cond2,001,1058,
images/desktopcomputer.jpg,desktop computer,z,sounds/greatgatsby_spanish.wav,,,,,,,,,0,0,0,0,0,166,166,16,443.052730496,8.98016151041e-06,443.785985937,0.73326442088,,,,,z,1,0.717073748005,2018_Nov_27_1533,59.9767246643,spanish_cond2,001,1058,
images/grasshopper.jpg,cauliflower,x,sounds/greatgatsby_spanish.wav,,,,,,,,,0,0,0,0,0,167,167,148,444.881687047,8.98027792573e-06,445.636459386,0.75478228135,,,,,x,1,0.733752880013,2018_Nov_27_1533,59.9767246643,spanish_cond2,001,1058,
images/razor04a.jpg,razor,z,sounds/greatgatsby_spanish.wav,,,,,,,,,0,0,0,0,0,168,168,36,446.795299695,9.30088572204e-06,447.570440749,0.775150995702,,,,,z,1,0.750578902662,2018_Nov_27_1533,59.9767246643,spanish_cond2,001,1058,
images/microphone01.jpg,diaper,x,sounds/greatgatsby_spanish.wav,,,,,,,,,0,0,0,0,0,169,169,164,448.730040847,9.30088572204e-06,449.754162647,1.02413142147,,,,,x,1,1.00048364827,2018_Nov_27_1533,59.9767246643,spanish_cond2,001,1058,
images/orange.jpg,bat,x,sounds/greatgatsby_spanish.wav,,,,,,,,,0,0,0,0,0,170,170,128,450.952010733,9.62160993367e-06,451.77133537,0.819334579399,,,,,x,1,0.800416489132,2018_Nov_27_1533,59.9767246643,spanish_cond2,001,1058,
images/lipstick04.jpg,lipstick,z,sounds/greatgatsby_spanish.wav,,,,,,,,,0,0,0,0,0,171,171,56,452.94927658,9.30088572204e-06,453.705164068,0.755896789138,,,,,z,1,0.733749031438,2018_Nov_27_1533,59.9767246643,spanish_cond2,001,1058,
images/envelope02a.jpg,grand piano,x,sounds/greatgatsby_spanish.wav,,,,,,,,,0,0,0,0,0,172,172,182,454.89370481,9.62160993367e-06,455.772354302,0.878659434617,,,,,x,1,0.867116339854,2018_Nov_27_1533,59.9767246643,spanish_cond2,001,1058,
images/weight01.jpg,weight,z,sounds/greatgatsby_spanish.wav,,,,,,,,,0,0,0,0,0,173,173,67,456.946004257,8.98016151041e-06,457.75618159,0.810187275754,,,,,z,1,0.800427393639,2018_Nov_27_1533,59.9767246643,spanish_cond2,001,1058,
images/rhinoceros01.jpg,envelope,x,sounds/greatgatsby_spanish.wav,,,,,,,,,0,0,0,0,0,174,174,173,458.902083023,8.98016151041e-06,459.65666774,0.754594338359,,,,,x,1,0.73373844754,2018_Nov_27_1533,59.9767246643,spanish_cond2,001,1058,
images/toothbrush03a.jpg,parrot,x,sounds/greatgatsby_spanish.wav,,,,,,,,,0,0,0,0,0,175,175,210,460.822077391,9.30088572204e-06,461.573820193,0.751752102631,,,,,x,1,0.733729146654,2018_Nov_27_1533,59.9767246643,spanish_cond2,001,1058,
images/calculator02b.jpg,dice,x,sounds/greatgatsby_spanish.wav,,,,,,,,,0,0,0,0,0,176,176,165,462.740852696,8.65943729877e-06,463.457628173,0.716784777818,,,,,x,1,0.700401992537,2018_Nov_27_1533,59.9767246643,spanish_cond2,001,1058,
images/lychee02a.jpg,lychee,z,sounds/greatgatsby_spanish.wav,,,,,,,,,0,0,0,0,0,177,177,62,464.64135841,9.62160993367e-06,465.391455589,0.750107121072,,,,,z,1,0.733748069266,2018_Nov_27_1533,59.9767246643,spanish_cond2,001,1058,
images/candy.jpg,candy,z,sounds/greatgatsby_spanish.wav,,,,,,,,,0,0,0,0,0,178,178,31,466.571493678,8.98016151041e-06,467.241913964,0.670429908205,,,,,z,1,0.650380632491,2018_Nov_27_1533,59.9767246643,spanish_cond2,001,1058,
images/belt02a.jpg,snowman,x,sounds/greatgatsby_spanish.wav,,,,,,,,,0,0,0,0,0,179,179,224,468.415236782,8.98016151041e-06,469.475830413,1.06060293119,,,,,x,1,1.05050019757,2018_Nov_27_1533,59.9767246643,spanish_cond2,001,1058,
images/handfan01b.jpg,handfan,z,sounds/greatgatsby_spanish.wav,,,,,,,,,0,0,0,0,0,180,180,69,470.641182013,9.30088572204e-06,471.909767515,1.26859544415,,,,,z,1,1.250541699,2018_Nov_27_1533,59.9767246643,spanish_cond2,001,1058,
images/charcoalbarbecue.jpg,charcoal barbecue,z,sounds/greatgatsby_spanish.wav,,,,,,,,,0,0,0,0,0,181,181,77,473.052777642,8.65943729877e-06,474.577125872,1.52435720956,,,,,z,1,1.50059461803,2018_Nov_27_1533,59.9767246643,spanish_cond2,001,1058,
images/ostrich.jpg,ostrich,z,sounds/greatgatsby_spanish.wav,,,,,,,,,0,0,0,0,0,182,182,76,475.742148091,8.65943729877e-06,476.71098645,0.96884798049,,,,,z,1,0.950475437916,2018_Nov_27_1533,59.9767246643,spanish_cond2,001,1058,
images/rubberglove02a.jpg,lady bug,x,sounds/greatgatsby_spanish.wav,,,,,,,,,0,0,0,0,0,183,183,192,477.911646944,8.98027792573e-06,478.711494153,0.799857150647,,,,,x,1,0.783762373496,2018_Nov_27_1533,59.9767246643,spanish_cond2,001,1058,
images/screwdriver02b.jpg,cola,x,sounds/greatgatsby_spanish.wav,,,,,,,,,0,0,0,0,0,184,184,158,479.874147201,8.6595537141e-06,480.595310151,0.721171929967,,,,,x,1,0.700417708023,2018_Nov_27_1533,59.9767246643,spanish_cond2,001,1058,
images/bottleofredwine02.jpg,pipe,x,sounds/greatgatsby_spanish.wav,,,,,,,,,0,0,0,0,0,185,185,213,481.758129333,9.30100213736e-06,482.69582818,0.937708469108,,,,,x,1,0.91711845668,2018_Nov_27_1533,59.9767246643,spanish_cond2,001,1058,
images/floorlamp.jpg,floor lamp,z,sounds/greatgatsby_spanish.wav,,,,,,,,,0,0,0,0,0,186,186,26,483.89075385,9.621726349e-06,484.579648989,0.688905081828,,,,,z,1,0.66707131057,2018_Nov_27_1533,59.9767246643,spanish_cond2,001,1058,
images/bench02.jpg,electric toothbrush,x,sounds/greatgatsby_spanish.wav,,,,,,,,,0,0,0,0,0,187,187,172,485.719939717,9.30100213736e-06,486.580153805,0.860224030563,,,,,x,1,0.850451319595,2018_Nov_27_1533,59.9767246643,spanish_cond2,001,1058,
images/antelope.jpg,antelope,z,sounds/greatgatsby_spanish.wav,,,,,,,,,0,0,0,0,0,188,188,12,487.757165243,8.98016151041e-06,488.964091036,1.20693541435,,,,,z,1,1.18386429886,2018_Nov_27_1533,59.9767246643,spanish_cond2,001,1058,
images/mirror02.jpg,8 ball,x,sounds/greatgatsby_spanish.wav,,,,,,,,,0,0,0,0,0,189,189,121,490.138215017,8.98027792573e-06,490.998176056,0.85997033969,,,,,x,1,0.850661392324,2018_Nov_27_1533,59.9767246643,spanish_cond2,001,1058,
images/bowl02b (1).jpg,bowl,z,sounds/greatgatsby_spanish.wav,,,,,,,,,0,0,0,0,0,190,190,24,492.175054074,8.98016151041e-06,492.915086043,0.740041911951,,,,,z,1,0.717077917419,2018_Nov_27_1533,59.9767246643,spanish_cond2,001,1058,
images/hairpin.jpg,hair pin,z,sounds/greatgatsby_spanish.wav,,,,,,,,,0,0,0,0,0,191,191,28,494.070746396,8.98027792573e-06,494.84890063,0.77816385543,,,,,z,1,0.767089655856,2018_Nov_27_1533,59.9767246643,spanish_cond2,001,1058,
images/eraser.jpg,eraser,z,sounds/greatgatsby_spanish.wav,,,,,,,,,0,0,0,0,0,192,192,110,496.025058949,8.98016151041e-06,496.782738309,0.757688661339,,,,,z,1,0.733754163026,2018_Nov_27_1533,59.9767246643,spanish_cond2,001,1058,
images/cat.jpg,black olive,x,sounds/greatgatsby_spanish.wav,,,,,,,,,0,0,0,0,0,193,193,133,497.976849345,9.30088572204e-06,499.04997229,1.07313256583,,,,,x,1,1.05050148047,2018_Nov_27_1533,59.9767246643,spanish_cond2,001,1058,
images/binder03b.jpg,dj mixer,x,sounds/greatgatsby_spanish.wav,,,,,,,,,0,0,0,0,0,194,194,167,500.249874918,8.98027792573e-06,501.033811123,0.783946146956,,,,,x,1,0.767077147611,2018_Nov_27_1533,59.9767246643,spanish_cond2,001,1058,
images/fryingpan01.jpg,frying pan,z,sounds/greatgatsby_spanish.wav,,,,,,,,,0,0,0,0,0,195,195,45,502.203779834,9.30088572204e-06,503.067670355,0.863900142722,,,,,z,1,0.850441377144,2018_Nov_27_1533,59.9767246643,spanish_cond2,001,1058,
images/flipflop01b.jpg,flip flop,z,sounds/greatgatsby_spanish.wav,,,,,,,,,0,0,0,0,0,196,196,27,504.249177349,8.98027792573e-06,505.034817227,0.785649179248,,,,,z,1,0.767081958591,2018_Nov_27_1533,59.9767246643,spanish_cond2,001,1058,
images/corn01.jpg,corn,z,sounds/greatgatsby_spanish.wav,,,,,,,,,0,0,0,0,0,197,197,22,506.206843367,9.62160993367e-06,507.085350459,0.878517034231,,,,,z,1,0.867124999291,2018_Nov_27_1533,59.9767246643,spanish_cond2,001,1058,
images/cola.jpg,comb,x,sounds/greatgatsby_spanish.wav,,,,,,,,,0,0,0,0,0,198,198,157,508.285869515,8.98016151041e-06,508.952475779,0.666615564958,,,,,x,1,0.65038897132,2018_Nov_27_1533,59.9767246643,spanish_cond2,001,1058,
images/tank.jpg,wallet,x,sounds/greatgatsby_spanish.wav,,,,,,,,,0,0,0,0,0,199,199,237,510.128911842,9.30088572204e-06,510.952984764,0.824082864216,,,,,x,1,0.80043893971,2018_Nov_27_1533,59.9767246643,spanish_cond2,001,1058,
images/raisin.jpg,ruler,x,sounds/greatgatsby_spanish.wav,,,,,,,,,0,0,0,0,0,200,200,218,512.093351824,9.621726349e-06,512.836971386,0.743629825651,,,,,x,1,0.73393216345,2018_Nov_27_1533,59.9767246643,spanish_cond2,001,1058,
images/printer03a.jpg,printer,z,sounds/greatgatsby_spanish.wav,,,,,,,,,0,0,0,0,0,201,201,72,514.018242971,9.30088572204e-06,514.787292557,0.76905952848,,,,,z,1,0.750405071536,2018_Nov_27_1533,59.9767246643,spanish_cond2,001,1058,
images/plate01b.jpg,plate,z,sounds/greatgatsby_spanish.wav,,,,,,,,,0,0,0,0,0,202,202,3,515.950566844,9.621726349e-06,516.604410629,0.653853727854,,,,,z,1,0.633720743819,2018_Nov_27_1533,59.9767246643,spanish_cond2,001,1058,
images/8ball.jpg,nail clipper,x,sounds/greatgatsby_spanish.wav,,,,,,,,,0,0,0,0,0,203,203,206,517.800634259,8.65943729877e-06,518.721628317,0.921003358555,,,,,x,1,0.900473641814,2018_Nov_27_1533,59.9767246643,spanish_cond2,001,1058,
images/nailclipper03a.jpg,aquarium,x,sounds/greatgatsby_spanish.wav,,,,,,,,,0,0,0,0,0,204,204,123,519.90708115,9.30100213736e-06,520.77213974,0.865068211104,,,,,x,1,0.850451961043,2018_Nov_27_1533,59.9767246643,spanish_cond2,001,1058,
images/safe.jpg,safe,z,sounds/greatgatsby_spanish.wav,,,,,,,,,0,0,0,0,0,205,205,78,521.956065296,9.621726349e-06,522.82265918,0.866603826638,,,,,z,1,0.850453885389,2018_Nov_27_1533,59.9767246643,spanish_cond2,001,1058,
images/ear.jpg,bullet,x,sounds/greatgatsby_spanish.wav,,,,,,,,,0,0,0,0,0,206,206,139,523.994657739,8.98027792573e-06,524.606444325,0.611796208308,,,,,x,1,0.600371780572,2018_Nov_27_1533,59.9767246643,spanish_cond2,001,1058,
images/handbag02a.jpg,candle,x,sounds/greatgatsby_spanish.wav,,,,,,,,,0,0,0,0,0,207,207,144,525.788473775,9.30088572204e-06,527.22381628,1.43535276817,,,,,x,1,1.41730351304,2018_Nov_27_1533,59.9767246643,spanish_cond2,001,1058,
images/gluestick.jpg,squirrel,x,sounds/greatgatsby_spanish.wav,,,,,,,,,0,0,0,0,0,208,208,226,528.408060314,9.30088572204e-06,529.3743066,0.966255907668,,,,,x,1,0.950455873855,2018_Nov_27_1533,59.9767246643,spanish_cond2,001,1058,
images/teapot.jpg,light switch,x,sounds/greatgatsby_spanish.wav,,,,,,,,,0,0,0,0,0,209,209,197,530.592409544,9.30100213736e-06,531.474874341,0.882474419312,,,,,x,1,0.867148412042,2018_Nov_27_1533,59.9767246643,spanish_cond2,001,1058,
images/pictureframe04.jpg,picture frame,z,sounds/greatgatsby_spanish.wav,,,,,,,,,0,0,0,0,0,210,210,41,532.624392232,9.62160993367e-06,533.508699576,0.884317606804,,,,,z,1,0.867125320132,2018_Nov_27_1533,59.9767246643,spanish_cond2,001,1058,
images/swan.jpg,swan,z,sounds/greatgatsby_spanish.wav,,,,,,,,,0,0,0,0,0,211,211,54,534.666717234,8.98027792573e-06,535.592550982,0.925843369798,,,,,z,1,0.917107552057,2018_Nov_27_1533,59.9767246643,spanish_cond2,001,1058,
images/hammer02a.jpg,flower,x,sounds/greatgatsby_spanish.wav,,,,,,,,,0,0,0,0,0,212,212,176,536.759183545,8.6595537141e-06,537.593058364,0.833884119405,,,,,x,1,0.817101073451,2018_Nov_27_1533,59.9767246643,spanish_cond2,001,1058,
images/candle08a.jpg,screw driver,x,sounds/greatgatsby_spanish.wav,,,,,,,,,0,0,0,0,0,213,213,221,538.781767164,8.98016151041e-06,539.726941072,0.945183209027,,,,,x,1,0.933810738265,2018_Nov_27_1533,59.9767246643,spanish_cond2,001,1058,
images/leek.jpg,donut,x,sounds/greatgatsby_spanish.wav,,,,,,,,,0,0,0,0,0,214,214,169,540.924076514,8.98016151041e-06,541.74421386,0.820152419736,,,,,x,1,0.800500518293,2018_Nov_27_1533,59.9767246643,spanish_cond2,001,1058,
images/volleyball.jpg,volley ball,z,sounds/greatgatsby_spanish.wav,,,,,,,,,0,0,0,0,0,215,215,2,542.877388414,9.30100213736e-06,543.644829581,0.767450788524,,,,,z,1,0.750665497617,2018_Nov_27_1533,59.9767246643,spanish_cond2,001,1058,
images/arrow02.jpg,hammer,x,sounds/greatgatsby_spanish.wav,,,,,,,,,0,0,0,0,0,216,216,184,544.801693924,8.98016151041e-06,545.661764649,0.860079705715,,,,,x,1,0.850446829572,2018_Nov_27_1533,59.9767246643,spanish_cond2,001,1058,
images/chessknight02b (1).jpg,cockroach,x,sounds/greatgatsby_spanish.wav,,,,,,,,,0,0,0,0,0,217,217,155,546.844045866,9.30100213736e-06,547.662273955,0.818237711326,,,,,x,1,0.800431242445,2018_Nov_27_1533,59.9767246643,spanish_cond2,001,1058,
images/headphones02b.jpg,headphones,z,sounds/greatgatsby_spanish.wav,,,,,,,,,0,0,0,0,0,218,218,101,548.843245986,9.30100213736e-06,549.646111827,0.802875783178,,,,,z,1,0.783767504967,2018_Nov_27_1533,59.9767246643,spanish_cond2,001,1058,
images/cake.jpg,cake,z,sounds/greatgatsby_spanish.wav,,,,,,,,,0,0,0,0,0,219,219,23,550.829701588,8.65943729877e-06,551.596597848,0.766905240831,,,,,z,1,0.750415976043,2018_Nov_27_1533,59.9767246643,spanish_cond2,001,1058,
images/dresser02.jpg,dresser,z,sounds/greatgatsby_spanish.wav,,,,,,,,,0,0,0,0,0,220,220,87,552.788990778,9.62160993367e-06,553.763826312,0.974845155491,,,,,z,1,0.950474796351,2018_Nov_27_1533,59.9767246643,spanish_cond2,001,1058,
images/lantern03.jpg,lantern,z,sounds/greatgatsby_spanish.wav,,,,,,,,,0,0,0,0,0,221,221,5,554.987811934,8.6595537141e-06,555.831036111,0.843233798514,,,,,z,1,0.833805221948,2018_Nov_27_1533,59.9767246643,spanish_cond2,001,1058,
images/magnifyingglass01b.jpg,magnifying glass,z,sounds/greatgatsby_spanish.wav,,,,,,,,,0,0,0,0,0,222,222,64,557.009230371,8.6595537141e-06,557.814863398,0.80564200785,,,,,z,1,0.783780013095,2018_Nov_27_1533,59.9767246643,spanish_cond2,001,1058,
images/paperclip04.jpg,eye drops,x,sounds/greatgatsby_spanish.wav,,,,,,,,,0,0,0,0,0,223,223,174,558.987858439,8.98027792573e-06,559.748668363,0.760819546646,,,,,x,1,0.75043072924,2018_Nov_27_1533,59.9767246643,spanish_cond2,001,1058,
images/shotglass.jpg,shot glass,z,sounds/greatgatsby_spanish.wav,,,,,,,,,0,0,0,0,0,224,224,86,560.924882167,8.6595537141e-06,561.865868732,0.940995545825,,,,,z,1,0.917135454831,2018_Nov_27_1533,59.9767246643,spanish_cond2,001,1058,
,,,sounds/greatgatsby_spanish.wav,,,,,,,,,0,0,0,0,,,,,,,,,,,,,,,,2018_Nov_27_1533,59.9767246643,spanish_cond2,001,1058,
images/remotecontrol01c.jpg,remote control,z,sounds/animalfarm_english.wav,,,,,,,,,0,1,1,1,0,0,0,85,583.000305648,8.98027792573e-06,584.021481619,1.02118527202,,,,572.868811033,z,1,1.00049102481,2018_Nov_27_1533,59.9767246643,spanish_cond2,001,1058,
images/pineapple01a.jpg,pineapple,z,sounds/animalfarm_english.wav,,,,,,,,,0,1,1,1,0,1,1,51,585.134353528,9.30088572204e-06,585.905284788,0.770940561313,,,,,z,1,0.75042688055,2018_Nov_27_1533,59.9767246643,spanish_cond2,001,1058,
images/mailbox01.jpg,mail box,z,sounds/animalfarm_english.wav,,,,,,,,,0,1,1,1,0,2,2,73,587.024269973,8.98016151041e-06,587.822443335,0.798183304025,,,,,z,1,0.783772636438,2018_Nov_27_1533,59.9767246643,spanish_cond2,001,1058,
images/donut.jpg,rhinoceros,x,sounds/animalfarm_english.wav,,,,,,,,,0,1,1,1,0,3,3,216,588.947772716,8.98016151041e-06,589.606217896,0.658454480581,,,,,x,1,0.65039859293,2018_Nov_27_1533,59.9767246643,spanish_cond2,001,1058,
images/birthdaycandle.jpg,birthday candle,z,sounds/animalfarm_english.wav,,,,,,,,,0,1,1,1,0,4,4,55,590.782818489,8.98016151041e-06,591.673418072,0.890608883696,,,,,z,1,0.867126282188,2018_Nov_27_1533,59.9767246643,spanish_cond2,001,1058,
images/egg01b (1).jpg,egg,z,sounds/animalfarm_english.wav,,,,,,,,,0,1,1,1,0,5,5,19,592.785207545,8.6595537141e-06,593.590561545,0.805363621446,,,,,z,1,0.783765901346,2018_Nov_27_1533,59.9767246643,spanish_cond2,001,1058,
images/nametag01a.jpg,name tag,z,sounds/animalfarm_english.wav,,,,,,,,,0,1,1,1,0,6,6,108,594.709689772,8.65943729877e-06,595.407686993,0.698006201419,,,,,z,1,0.68373633083,2018_Nov_27_1533,59.9767246643,spanish_cond2,001,1058,
images/leaf01a.jpg,leaf,z,sounds/animalfarm_english.wav,,,,,,,,,0,1,1,1,0,7,7,68,596.591302092,3.68830515072e-05,597.608251271,1.01696457446,,,,,z,1,1.0004907042,2018_Nov_27_1533,59.9767246643,spanish_cond2,001,1058,
images/electricguitar02.jpg,electric guitar,z,sounds/animalfarm_english.wav,,,,,,,,,0,1,1,1,0,8,8,100,598.733687773,8.65943729877e-06,599.492056044,0.758377571474,,,,,z,1,0.750335474848,2018_Nov_27_1533,59.9767246643,spanish_cond2,001,1058,
images/seagull.jpg,seagull,z,sounds/animalfarm_english.wav,,,,,,,,,0,1,1,1,0,9,9,50,600.599516736,9.30088572204e-06,601.275843113,0.676335998229,,,,,z,1,0.667053991579,2018_Nov_27_1533,59.9767246643,spanish_cond2,001,1058,
images/lion.jpg,lion,z,sounds/animalfarm_english.wav,,,,,,,,,0,1,1,1,0,10,10,44,602.387477678,8.98016151041e-06,603.393038351,1.00556997373,,,,,z,1,0.983812855091,2018_Nov_27_1533,59.9767246643,spanish_cond2,001,1058,
images/croissant02b.jpg,croissant,z,sounds/animalfarm_english.wav,,,,,,,,,0,1,1,1,0,11,11,39,604.503987854,9.30088572204e-06,605.27685499,0.772876758128,,,,,z,1,0.750421749079,2018_Nov_27_1533,59.9767246643,spanish_cond2,001,1058,
images/teapot.jpg,light switch,x,sounds/animalfarm_english.wav,,,,,,,,,0,1,1,1,0,12,12,197,606.393267987,8.98027792573e-06,607.410731284,1.01747259754,,,,,x,1,1.00049423217,2018_Nov_27_1533,59.9767246643,spanish_cond2,001,1058,
images/kiwi03.jpg,backpack,x,sounds/animalfarm_english.wav,,,,,,,,,0,1,1,1,0,13,13,125,608.539005211,9.30088572204e-06,609.461089722,0.922094774549,,,,,x,1,0.900298848515,2018_Nov_27_1533,59.9767246643,spanish_cond2,001,1058,
images/cherry01.jpg,highlighter,x,sounds/animalfarm_english.wav,,,,,,,,,0,1,1,1,0,14,14,187,610.569597892,8.65943729877e-06,611.511791975,0.942203704384,,,,,x,1,0.933833509567,2018_Nov_27_1533,59.9767246643,spanish_cond2,001,1058,
images/8ball.jpg,nail clipper,x,sounds/animalfarm_english.wav,,,,,,,,,0,1,1,1,0,15,15,206,612.62652888,9.30088572204e-06,613.512310902,0.88579196448,,,,,x,1,0.867163806688,2018_Nov_27_1533,59.9767246643,spanish_cond2,001,1058,
images/calculator02b.jpg,dice,x,sounds/animalfarm_english.wav,,,,,,,,,0,1,1,1,0,16,16,165,614.613480959,8.98027792573e-06,615.446087003,0.832615985884,,,,,x,1,0.817101394292,2018_Nov_27_1533,59.9767246643,spanish_cond2,001,1058,
images/arrow02.jpg,hammer,x,sounds/animalfarm_english.wav,,,,,,,,,0,1,1,1,0,17,17,184,616.541993375,8.98016151041e-06,617.246545186,0.704561111634,,,,,x,1,0.683736972278,2018_Nov_27_1533,59.9767246643,spanish_cond2,001,1058,
images/stapler03a.jpg,candy cane,x,sounds/animalfarm_english.wav,,,,,,,,,0,1,1,1,0,18,18,145,618.357072298,8.98027792573e-06,619.097023125,0.739960127976,,,,,x,1,0.717088501202,2018_Nov_27_1533,59.9767246643,spanish_cond2,001,1058,
images/umbrella01.jpg,umbrella,z,sounds/animalfarm_english.wav,,,,,,,,,0,1,1,1,0,19,19,53,620.210020757,8.98027792573e-06,621.647661554,1.43765009777,,,,,x,0,1.41725155618,2018_Nov_27_1533,59.9767246643,spanish_cond2,001,1058,
images/raisin.jpg,ruler,x,sounds/animalfarm_english.wav,,,,,,,,,0,1,1,1,0,20,20,218,622.7522752,9.30088572204e-06,623.414800922,0.662534702104,,,,,x,1,0.650424571475,2018_Nov_27_1533,59.9767246643,spanish_cond2,001,1058,
images/banjo.jpg,knife,x,sounds/animalfarm_english.wav,,,,,,,,,0,1,1,1,0,21,21,191,624.511052711,8.98016151041e-06,625.281910847,0.770867115934,,,,,x,1,0.750417900388,2018_Nov_27_1533,59.9767246643,spanish_cond2,001,1058,
images/dolphin01.jpg,dolphin,z,sounds/animalfarm_english.wav,,,,,,,,,0,1,1,1,0,22,22,99,626.381534063,9.30100213736e-06,627.182390583,0.8008661411,,,,,z,1,0.783763656393,2018_Nov_27_1533,59.9767246643,spanish_cond2,001,1058,
images/graduationcap.jpg,graduation cap,z,sounds/animalfarm_english.wav,,,,,,,,,0,1,1,1,0,23,23,35,628.284015423,8.98027792573e-06,629.032861466,0.748855344253,,,,,z,1,0.733750955784,2018_Nov_27_1533,59.9767246643,spanish_cond2,001,1058,
images/carrot02.jpg,corkscrew,x,sounds/animalfarm_english.wav,,,,,,,,,0,1,1,1,0,24,24,161,630.13536797,9.30088572204e-06,630.799990891,0.664632863365,,,,,x,1,0.650396027137,2018_Nov_27_1533,59.9767246643,spanish_cond2,001,1058,
images/ear.jpg,bullet,x,sounds/animalfarm_english.wav,,,,,,,,,0,1,1,1,0,25,25,139,631.90331267,8.98016151041e-06,632.533744413,0.630441364367,,,,,x,1,0.617047705455,2018_Nov_27_1533,59.9767246643,spanish_cond2,001,1058,
images/ashtray02b.jpg,ashtray,z,sounds/animalfarm_english.wav,,,,,,,,,0,1,1,1,0,26,26,43,633.646192007,8.65943729877e-06,634.500918547,0.854736161418,,,,,z,1,0.833782129921,2018_Nov_27_1533,59.9767246643,spanish_cond2,001,1058,
images/envelope02a.jpg,grand piano,x,sounds/animalfarm_english.wav,,,,,,,,,0,1,1,1,0,27,27,182,635.62398235,9.30100213736e-06,636.434729285,0.810756556923,,,,,x,1,0.800434128847,2018_Nov_27_1533,59.9767246643,spanish_cond2,001,1058,
images/straw.jpg,straw,z,sounds/animalfarm_english.wav,,,,,,,,,0,1,1,1,0,28,28,109,637.52394861,9.30100213736e-06,638.335219605,0.811280616093,,,,,z,1,0.800438618986,2018_Nov_27_1533,59.9767246643,spanish_cond2,001,1058,
images/axe01.jpg,axe,z,sounds/animalfarm_english.wav,,,,,,,,,0,1,1,1,0,29,29,104,639.436795695,8.98027792573e-06,640.219323611,0.782537216553,,,,,z,1,0.767389530665,2018_Nov_27_1533,59.9767246643,spanish_cond2,001,1058,
images/dragonfly02.jpg,dragon fly,z,sounds/animalfarm_english.wav,,,,,,,,,0,1,1,1,0,30,30,29,641.316485288,8.98016151041e-06,642.186185682,0.869709374849,,,,,z,1,0.850440414972,2018_Nov_27_1533,59.9767246643,spanish_cond2,001,1058,
images/apple06.jpg,apple,z,sounds/animalfarm_english.wav,,,,,,,,,0,1,1,1,0,31,31,13,643.313138878,8.65943729877e-06,643.953310618,0.640181040973,,,,,z,1,0.617050912697,2018_Nov_27_1533,59.9767246643,spanish_cond2,001,1058,
images/lamp04b.jpg,parking meter,x,sounds/animalfarm_english.wav,,,,,,,,,0,1,1,1,0,32,32,209,645.072936605,9.30088572204e-06,645.920477696,0.847550391802,,,,,x,1,0.833782129921,2018_Nov_27_1533,59.9767246643,spanish_cond2,001,1058,
images/panda.jpg,panda,z,sounds/animalfarm_english.wav,,,,,,,,,0,1,1,1,0,33,33,83,647.029252385,9.30088572204e-06,647.77093992,0.741696835845,,,,,z,1,0.733758332324,2018_Nov_27_1533,59.9767246643,spanish_cond2,001,1058,
images/fireextinguisher02.jpg,fire extinguisher,z,sounds/animalfarm_english.wav,,,,,,,,,0,1,1,1,0,34,34,175,648.88112835,8.98016151041e-06,649.571408366,0.690289958031,,,,,z,1,0.667081573629,2018_Nov_27_1533,59.9767246643,spanish_cond2,001,1058,
images/spoon02b.jpg,spoon,z,sounds/animalfarm_english.wav,,,,,,,,,0,1,1,1,0,35,35,38,650.662330402,9.30100213736e-06,651.38853189,0.726211109315,,,,,z,1,0.717084973236,2018_Nov_27_1533,59.9767246643,spanish_cond2,001,1058,
images/tank.jpg,wallet,x,sounds/animalfarm_english.wav,,,,,,,,,0,1,1,1,0,36,36,237,652.493211604,8.6595537141e-06,653.188974999,0.695773016312,,,,,x,1,0.683741462417,2018_Nov_27_1533,59.9767246643,spanish_cond2,001,1058,
images/cupcake.jpg,scissors,x,sounds/animalfarm_english.wav,,,,,,,,,0,1,1,1,0,37,37,219,654.308107075,3.88072803617e-05,655.072790356,0.764714711579,,,,,x,1,0.750425276929,2018_Nov_27_1533,59.9767246643,spanish_cond2,001,1058,
images/lemon02.jpg,lemon,z,sounds/animalfarm_english.wav,,,,,,,,,0,1,1,1,0,38,38,14,656.182879683,9.30088572204e-06,656.989937998,0.807067936519,,,,,z,1,0.783765260014,2018_Nov_27_1533,59.9767246643,spanish_cond2,001,1058,
images/hanger02a.jpg,hanger,z,sounds/animalfarm_english.wav,,,,,,,,,0,1,1,1,0,39,39,88,658.083149346,8.98027792573e-06,659.090321004,1.00718192104,,,,,z,1,0.983668850968,2018_Nov_27_1533,59.9767246643,spanish_cond2,001,1058,
images/eyedrops.jpg,bicycle,x,sounds/animalfarm_english.wav,,,,,,,,,0,1,1,1,0,40,40,131,660.190689577,9.30100213736e-06,660.87426683,0.683586553903,,,,,x,1,0.667076121317,2018_Nov_27_1533,59.9767246643,spanish_cond2,001,1058,
images/candle08a.jpg,screw driver,x,sounds/animalfarm_english.wav,,,,,,,,,0,1,1,1,0,41,41,221,661.989225675,8.98027792573e-06,662.641368032,0.65215165785,,,,,x,1,0.633722668048,2018_Nov_27_1533,59.9767246643,spanish_cond2,001,1058,
images/highlighter03b.jpg,coin,x,sounds/animalfarm_english.wav,,,,,,,,,0,1,1,1,0,42,42,156,663.743220585,8.98016151041e-06,664.541845843,0.798634559382,,,,,x,1,0.783752431045,2018_Nov_27_1533,59.9767246643,spanish_cond2,001,1058,
images/bus.jpg,microphone,x,sounds/animalfarm_english.wav,,,,,,,,,0,1,1,1,0,43,43,203,665.660839046,8.65943729877e-06,666.392319613,0.731489547063,,,,,x,1,0.717084652511,2018_Nov_27_1533,59.9767246643,spanish_cond2,001,1058,
images/toothbrush03a.jpg,parrot,x,sounds/animalfarm_english.wav,,,,,,,,,0,1,1,1,0,44,44,210,667.48488599,8.98027792573e-06,668.176107003,0.691230955534,,,,,x,1,0.66707708349,2018_Nov_27_1533,59.9767246643,spanish_cond2,001,1058,
images/antelope.jpg,antelope,z,sounds/animalfarm_english.wav,,,,,,,,,0,1,1,1,0,45,45,12,669.279271949,9.621726349e-06,670.04324002,0.763977693161,,,,,z,1,0.750422390411,2018_Nov_27_1533,59.9767246643,spanish_cond2,001,1058,
images/gorilla.jpg,gorilla,z,sounds/animalfarm_english.wav,,,,,,,,,0,1,1,1,0,46,46,80,671.15359266,8.98016151041e-06,672.360493437,1.20690975664,,,,,z,1,1.18385724293,2018_Nov_27_1533,59.9767246643,spanish_cond2,001,1058,
images/paperclip04.jpg,eye drops,x,sounds/animalfarm_english.wav,,,,,,,,,0,1,1,1,0,47,47,174,673.465747884,9.30100213736e-06,674.110939561,0.645201297826,,,,,x,1,0.633640563348,2018_Nov_27_1533,59.9767246643,spanish_cond2,001,1058,
images/djmixer01.jpg,light bulb,x,sounds/animalfarm_english.wav,,,,,,,,,0,1,1,1,0,48,48,196,675.232155045,8.98016151041e-06,676.094778394,0.862632971257,,,,,x,1,0.85045677179,2018_Nov_27_1533,59.9767246643,spanish_cond2,001,1058,
images/elbow.jpg,elbow,z,sounds/animalfarm_english.wav,,,,,,,,,0,1,1,1,0,49,49,105,677.206248108,9.62160993367e-06,677.928570787,0.722332621808,,,,,z,1,0.700401992653,2018_Nov_27_1533,59.9767246643,spanish_cond2,001,1058,
images/gps.jpg,gps,z,sounds/animalfarm_english.wav,,,,,,,,,0,1,1,1,0,50,50,21,679.047015556,8.98027792573e-06,679.895734337,0.848728402634,,,,,z,1,0.833777319058,2018_Nov_27_1533,59.9767246643,spanish_cond2,001,1058,
images/licenseplate.jpg,license plate,z,sounds/animalfarm_english.wav,,,,,,,,,0,1,1,1,0,51,51,40,681.013390131,9.30100213736e-06,681.829558225,0.816177395056,,,,,z,1,0.800433808239,2018_Nov_27_1533,59.9767246643,spanish_cond2,001,1058,
images/drink.jpg,drink,z,sounds/animalfarm_english.wav,,,,,,,,,0,1,1,1,0,52,52,117,682.929288242,8.65943729877e-06,683.763382434,0.834105738089,,,,,z,1,0.817109733005,2018_Nov_27_1533,59.9767246643,spanish_cond2,001,1058,
images/lightbulb03b.jpg,treadmill,x,sounds/animalfarm_english.wav,,,,,,,,,0,1,1,1,0,53,53,234,684.865736916,8.98016151041e-06,685.563844145,0.698116850457,,,,,x,1,0.683750442578,2018_Nov_27_1533,59.9767246643,spanish_cond2,001,1058,
images/diaper01a.jpg,camera,x,sounds/animalfarm_english.wav,,,,,,,,,0,1,1,1,0,54,54,143,686.68402947,9.94245056063e-06,687.364300403,0.680281516747,,,,,x,1,0.667071952019,2018_Nov_27_1533,59.9767246643,spanish_cond2,001,1058,
images/button07.jpg,radish,x,sounds/animalfarm_english.wav,,,,,,,,,0,1,1,1,0,55,55,215,688.476157228,8.98027792573e-06,689.298111142,0.821963214548,,,,,x,1,0.800437015481,2018_Nov_27_1533,59.9767246643,spanish_cond2,001,1058,
images/tent.jpg,tent,z,sounds/animalfarm_english.wav,,,,,,,,,0,1,1,1,0,56,56,11,690.4244524,8.6595537141e-06,691.231940802,0.807497703703,,,,,z,1,0.783770712093,2018_Nov_27_1533,59.9767246643,spanish_cond2,001,1058,
images/bowl02b (1).jpg,bowl,z,sounds/animalfarm_english.wav,,,,,,,,,0,1,1,1,0,57,57,24,692.349771069,9.30100213736e-06,693.182425541,0.832664414775,,,,,z,1,0.817090810393,2018_Nov_27_1533,59.9767246643,spanish_cond2,001,1058,
images/triangleruler02.jpg,bottle of red wine,x,sounds/animalfarm_english.wav,,,,,,,,,0,1,1,1,0,58,58,134,694.367365541,8.98027792573e-06,695.16626662,0.798910380108,,,,,x,1,0.783766863518,2018_Nov_27_1533,59.9767246643,spanish_cond2,001,1058,
images/giraffe.jpg,lettuce,x,sounds/animalfarm_english.wav,,,,,,,,,0,1,1,1,0,59,59,195,696.267274391,9.30100213736e-06,696.916727818,0.649462727015,,,,,x,1,0.633747042972,2018_Nov_27_1533,59.9767246643,spanish_cond2,001,1058,
images/cockroach02.jpg,belt,x,sounds/animalfarm_english.wav,,,,,,,,,0,1,1,1,0,60,60,129,698.015872517,8.98027792573e-06,698.73382825,0.717965354444,,,,,x,1,0.700404237723,2018_Nov_27_1533,59.9767246643,spanish_cond2,001,1058,
images/lettuce.jpg,mushroom,x,sounds/animalfarm_english.wav,,,,,,,,,0,1,1,1,0,61,61,205,699.857723043,9.30088572204e-06,700.884552696,1.02684921713,,,,,x,1,1.01729780424,2018_Nov_27_1533,59.9767246643,spanish_cond2,001,1058,
images/lychee02a.jpg,lychee,z,sounds/animalfarm_english.wav,,,,,,,,,0,1,1,1,0,62,62,62,702.008245755,9.30100213736e-06,702.868216415,0.859979640576,,,,,z,1,0.850445546559,2018_Nov_27_1533,59.9767246643,spanish_cond2,001,1058,
images/tie01.jpg,bench,x,sounds/animalfarm_english.wav,,,,,,,,,0,1,1,1,0,63,63,130,703.966856299,9.30088572204e-06,704.76870898,0.801861661137,,,,,x,1,0.783763977,2018_Nov_27_1533,59.9767246643,spanish_cond2,001,1058,
images/ruler02b.jpg,watermelon,x,sounds/animalfarm_english.wav,,,,,,,,,0,1,1,1,0,64,64,238,705.870992582,8.98027792573e-06,706.50246635,0.631483389181,,,,,x,1,0.617040649522,2018_Nov_27_1533,59.9767246643,spanish_cond2,001,1058,
images/plate01b.jpg,plate,z,sounds/animalfarm_english.wav,,,,,,,,,0,1,1,1,0,65,65,3,707.600471525,8.6595537141e-06,708.252902531,0.652440628037,,,,,z,1,0.63371625368,2018_Nov_27_1533,59.9767246643,spanish_cond2,001,1058,
images/pen03c.jpg,pepper,x,sounds/animalfarm_english.wav,,,,,,,,,0,1,1,1,0,66,66,211,709.346843521,9.621726349e-06,710.003357956,0.656524698134,,,,,x,1,0.633729082532,2018_Nov_27_1533,59.9767246643,spanish_cond2,001,1058,
images/broadsword.jpg,teapot,x,sounds/animalfarm_english.wav,,,,,,,,,0,1,1,1,0,67,67,231,711.096168081,9.30088572204e-06,711.753792534,0.65763407445,,,,,x,1,0.633714008611,2018_Nov_27_1533,59.9767246643,spanish_cond2,001,1058,
images/puzzle.jpg,puzzle,z,sounds/animalfarm_english.wav,,,,,,,,,0,1,1,1,0,68,68,57,712.873756562,8.98027792573e-06,713.687626044,0.8138791034,,,,,z,1,0.800442467676,2018_Nov_27_1533,59.9767246643,spanish_cond2,001,1058,
images/skateboard.jpg,key,x,sounds/animalfarm_english.wav,,,,,,,,,0,1,1,1,0,69,69,189,714.778391568,8.65943729877e-06,715.554755854,0.77637358685,,,,,x,1,0.767094466719,2018_Nov_27_1533,59.9767246643,spanish_cond2,001,1058,
images/screw03c.jpg,screw,z,sounds/animalfarm_english.wav,,,,,,,,,0,1,1,1,0,70,70,84,716.648679525,8.98027792573e-06,717.521928063,0.873258160544,,,,,z,1,0.850454205996,2018_Nov_27_1533,59.9767246643,spanish_cond2,001,1058,
images/lipstick04.jpg,lipstick,z,sounds/animalfarm_english.wav,,,,,,,,,0,1,1,1,0,71,71,56,718.62144031,9.30100213736e-06,719.422407478,0.800977110746,,,,,z,1,0.783766542794,2018_Nov_27_1533,59.9767246643,spanish_cond2,001,1058,
images/highheelshoe02a.jpg,high heel shoe,z,sounds/animalfarm_english.wav,,,,,,,,,0,1,1,1,0,72,72,75,720.528973036,8.98027792573e-06,721.923038017,1.39407396107,,,,,z,1,1.3839208741,2018_Nov_27_1533,59.9767246643,spanish_cond2,001,1058,
images/safe.jpg,safe,z,sounds/animalfarm_english.wav,,,,,,,,,0,1,1,1,0,73,73,78,723.033888738,8.98016151041e-06,723.707091606,0.673212489695,,,,,z,1,0.650662867585,2018_Nov_27_1533,59.9767246643,spanish_cond2,001,1058,
images/bull.jpg,button,x,sounds/animalfarm_english.wav,,,,,,,,,0,1,1,1,0,74,74,141,724.812354072,9.30088572204e-06,725.540613951,0.728269501124,,,,,x,1,0.717075351626,2018_Nov_27_1533,59.9767246643,spanish_cond2,001,1058,
images/volleyball.jpg,volley ball,z,sounds/animalfarm_english.wav,,,,,,,,,0,1,1,1,0,75,75,2,726.672561104,8.6595537141e-06,727.374272924,0.701721762423,,,,,z,1,0.683595213341,2018_Nov_27_1533,59.9767246643,spanish_cond2,001,1058,
images/weight01.jpg,weight,z,sounds/animalfarm_english.wav,,,,,,,,,0,1,1,1,0,76,76,67,728.478834613,8.6595537141e-06,729.141538014,0.662713023368,,,,,z,1,0.650399555103,2018_Nov_27_1533,59.9767246643,spanish_cond2,001,1058,
images/ceilingfan02.jpg,paper clip,x,sounds/animalfarm_english.wav,,,,,,,,,0,1,1,1,0,77,77,208,730.308781232,9.30088572204e-06,731.025344391,0.716573422193,,,,,x,1,0.70041514223,2018_Nov_27_1533,59.9767246643,spanish_cond2,001,1058,
images/bowlingball.jpg,bowling ball,z,sounds/animalfarm_english.wav,,,,,,,,,0,1,1,1,0,78,78,20,732.157247605,9.621726349e-06,732.825803857,0.668565873755,,,,,z,1,0.650405969471,2018_Nov_27_1533,59.9767246643,spanish_cond2,001,1058,
images/rubberglove02a.jpg,lady bug,x,sounds/animalfarm_english.wav,,,,,,,,,0,1,1,1,0,79,79,192,733.929914932,9.62160993367e-06,734.60960183,0.679696841049,,,,,x,1,0.667055595201,2018_Nov_27_1533,59.9767246643,spanish_cond2,001,1058,
images/desktopcomputer.jpg,desktop computer,z,sounds/animalfarm_english.wav,,,,,,,,,0,1,1,1,0,80,80,16,735.745435168,9.30088572204e-06,736.460047377,0.714621830615,,,,,z,1,0.700398464687,2018_Nov_27_1533,59.9767246643,spanish_cond2,001,1058,
images/paintbrush03a.jpg,paint brush,z,sounds/animalfarm_english.wav,,,,,,,,,0,1,1,1,0,81,81,0,737.560402159,9.30088572204e-06,738.360550525,0.800157987513,,,,,z,1,0.783783861785,2018_Nov_27_1533,59.9767246643,spanish_cond2,001,1058,
images/sportshorts02.jpg,tape,x,sounds/animalfarm_english.wav,,,,,,,,,0,1,1,1,0,82,82,230,739.46772353,8.6595537141e-06,740.227660451,0.759946542094,,,,,x,1,0.750417900388,2018_Nov_27_1533,59.9767246643,spanish_cond2,001,1058,
images/key03b.jpg,cigar,x,sounds/animalfarm_english.wav,,,,,,,,,0,1,1,1,0,83,83,153,741.329037052,8.65943729877e-06,742.061476577,0.732449146337,,,,,x,1,0.71707567235,2018_Nov_27_1533,59.9767246643,spanish_cond2,001,1058,
images/icecube02 (2).jpg,aloe,x,sounds/animalfarm_english.wav,,,,,,,,,0,1,1,1,0,84,84,122,743.17191036,8.98027792573e-06,743.99528924,0.823388822493,,,,,x,1,0.800438298262,2018_Nov_27_1533,59.9767246643,spanish_cond2,001,1058,
images/medal01.jpg,medal,z,sounds/animalfarm_english.wav,,,,,,,,,0,1,1,1,0,85,85,115,745.096139537,8.65943729877e-06,745.895768013,0.799637776916,,,,,z,1,0.783760769758,2018_Nov_27_1533,59.9767246643,spanish_cond2,001,1058,
images/hammer02a.jpg,flower,x,sounds/animalfarm_english.wav,,,,,,,,,0,1,1,1,0,86,86,176,746.990717352,8.98016151041e-06,747.929618264,0.938910213299,,,,,x,1,0.917117815232,2018_Nov_27_1533,59.9767246643,spanish_cond2,001,1058,
images/gluestick.jpg,squirrel,x,sounds/animalfarm_english.wav,,,,,,,,,0,1,1,1,0,87,87,226,749.035609089,8.98027792573e-06,750.496930052,1.46133026388,,,,,x,1,1.45059410483,2018_Nov_27_1533,59.9767246643,spanish_cond2,001,1058,
images/sock03.jpg,sock,z,sounds/animalfarm_english.wav,,,,,,,,,0,1,1,1,0,88,88,90,751.602474432,8.98016151041e-06,752.614153833,1.01168934384,,,,,z,1,1.00047979958,2018_Nov_27_1533,59.9767246643,spanish_cond2,001,1058,
images/nailclipper03a.jpg,aquarium,x,sounds/animalfarm_english.wav,,,,,,,,,0,1,1,1,0,89,89,123,753.713464346,9.30088572204e-06,754.531278063,0.817823659512,,,,,x,1,0.800428035203,2018_Nov_27_1533,59.9767246643,spanish_cond2,001,1058,
images/banana04a.jpg,banana,z,sounds/animalfarm_english.wav,,,,,,,,,0,1,1,1,0,90,90,118,755.636134816,8.98016151041e-06,756.715183735,1.07905822003,,,,,x,0,1.06718125392,2018_Nov_27_1533,59.9767246643,spanish_cond2,001,1058,
images/electrictoothbrush01a.jpg,banjo,x,sounds/animalfarm_english.wav,,,,,,,,,0,1,1,1,0,91,91,127,757.809576622,9.30100213736e-06,758.648998322,0.839431963395,,,,,x,1,0.817102035624,2018_Nov_27_1533,59.9767246643,spanish_cond2,001,1058,
images/broom02.jpg,broom,z,sounds/animalfarm_english.wav,,,,,,,,,0,1,1,1,0,92,92,116,759.766994081,8.98016151041e-06,760.56614853,0.799164070981,,,,,z,1,0.78374922392,2018_Nov_27_1533,59.9767246643,spanish_cond2,001,1058,
images/mattress.jpg,cat,x,sounds/animalfarm_english.wav,,,,,,,,,0,1,1,1,0,93,93,147,761.670105017,8.65943729877e-06,762.666684841,0.996589124668,,,,,x,1,0.983817024389,2018_Nov_27_1533,59.9767246643,spanish_cond2,001,1058,
images/ladybug03.jpg,giraffe,x,sounds/animalfarm_english.wav,,,,,,,,,0,1,1,1,0,94,94,178,763.769286279,9.30088572204e-06,764.583832483,0.814555826131,,,,,x,1,0.80043509102,2018_Nov_27_1533,59.9767246643,spanish_cond2,001,1058,
images/hairband.jpg,hairband,z,sounds/animalfarm_english.wav,,,,,,,,,0,1,1,1,0,95,95,66,765.692872088,8.98016151041e-06,766.434296311,0.741433844087,,,,,z,1,0.717074710177,2018_Nov_27_1533,59.9767246643,spanish_cond2,001,1058,
images/cauliflower01.jpg,glue stick,x,sounds/animalfarm_english.wav,,,,,,,,,0,1,1,1,0,96,96,181,767.550227584,8.98027792573e-06,768.401707779,0.851489174995,,,,,x,1,0.834020746872,2018_Nov_27_1533,59.9767246643,spanish_cond2,001,1058,
images/parkfountain.jpg,park fountain,z,sounds/animalfarm_english.wav,,,,,,,,,0,1,1,1,0,97,97,93,769.521475846,8.98016151041e-06,770.218584347,0.697117802338,,,,,z,1,0.683730237186,2018_Nov_27_1533,59.9767246643,spanish_cond2,001,1058,
images/lighter02b.jpg,stapler,x,sounds/animalfarm_english.wav,,,,,,,,,0,1,1,1,0,98,98,227,771.3197435,9.62160993367e-06,772.119076912,0.799343675142,,,,,x,1,0.783751148148,2018_Nov_27_1533,59.9767246643,spanish_cond2,001,1058,
images/baseball01a.jpg,baseball,z,sounds/animalfarm_english.wav,,,,,,,,,0,1,1,1,0,99,99,74,773.25124857,9.30088572204e-06,774.11958301,0.868344703922,,,,,z,1,0.850454205996,2018_Nov_27_1533,59.9767246643,spanish_cond2,001,1058,
images/bracelet02a.jpg,chess knight,x,sounds/animalfarm_english.wav,,,,,,,,,0,1,1,1,0,100,100,152,775.228243202,9.30088572204e-06,776.070073522,0.841840262641,,,,,x,1,0.833780847024,2018_Nov_27_1533,59.9767246643,spanish_cond2,001,1058,
images/cake.jpg,cake,z,sounds/animalfarm_english.wav,,,,,,,,,0,1,1,1,0,101,101,23,777.184169946,8.98016151041e-06,777.953879578,0.769719253061,,,,,z,1,0.750372357899,2018_Nov_27_1533,59.9767246643,spanish_cond2,001,1058,
images/bench02.jpg,electric toothbrush,x,sounds/animalfarm_english.wav,,,,,,,,,0,1,1,1,0,102,102,172,779.063470825,8.65943729877e-06,779.837691727,0.774230203708,,,,,x,1,0.750423673424,2018_Nov_27_1533,59.9767246643,spanish_cond2,001,1058,
images/magnifyingglass01b.jpg,magnifying glass,z,sounds/animalfarm_english.wav,,,,,,,,,0,1,1,1,0,103,103,64,780.944067418,9.30100213736e-06,781.554828658,0.610770861036,,,,,z,1,0.600419888855,2018_Nov_27_1533,59.9767246643,spanish_cond2,001,1058,
images/floorlamp.jpg,floor lamp,z,sounds/animalfarm_english.wav,,,,,,,,,0,1,1,1,0,104,104,26,782.647230825,8.98016151041e-06,783.405279336,0.758058453444,,,,,z,1,0.733770519844,2018_Nov_27_1533,59.9767246643,spanish_cond2,001,1058,
images/tape01a.jpg,tie,x,sounds/animalfarm_english.wav,,,,,,,,,0,1,1,1,0,105,105,232,784.530906988,8.98027792573e-06,785.239054089,0.708156401874,,,,,x,1,0.683739858796,2018_Nov_27_1533,59.9767246643,spanish_cond2,001,1058,
images/crocodile.jpg,triangle ruler,x,sounds/animalfarm_english.wav,,,,,,,,,0,1,1,1,0,106,106,235,786.336102231,9.30088572204e-06,787.289822089,0.953739101882,,,,,x,1,0.934013755061,2018_Nov_27_1533,59.9767246643,spanish_cond2,001,1058,
images/parrot01.jpg,chameleon,x,sounds/animalfarm_english.wav,,,,,,,,,0,1,1,1,0,107,107,150,788.404640137,9.62160993367e-06,789.456790127,1.05215993233,,,,,x,1,1.03382491425,2018_Nov_27_1533,59.9767246643,spanish_cond2,001,1058,
images/cactus.jpg,cactus,z,sounds/animalfarm_english.wav,,,,,,,,,0,1,1,1,0,108,108,70,790.568826556,8.6595537141e-06,791.323933087,0.755116152577,,,,,z,1,0.733742616954,2018_Nov_27_1533,59.9767246643,spanish_cond2,001,1058,
images/scooter.jpg,pen,x,sounds/animalfarm_english.wav,,,,,,,,,0,1,1,1,0,109,109,212,792.41657355,9.30100213736e-06,793.191070274,0.774506024434,,,,,x,1,0.750422069803,2018_Nov_27_1533,59.9767246643,spanish_cond2,001,1058,
images/wallet01.jpg,lamp,x,sounds/animalfarm_english.wav,,,,,,,,,0,1,1,1,0,110,110,193,794.373239238,8.98027792573e-06,795.324935984,0.951706367778,,,,,x,1,0.933793740114,2018_Nov_27_1533,59.9767246643,spanish_cond2,001,1058,
images/beermug01b.jpg,beer mug,z,sounds/animalfarm_english.wav,,,,,,,,,0,1,1,1,0,111,111,111,796.44171717,8.98027792573e-06,797.175415848,0.733708299813,,,,,z,1,0.717084652628,2018_Nov_27_1533,59.9767246643,spanish_cond2,001,1058,
images/backpack01b.jpg,swallow,x,sounds/animalfarm_english.wav,,,,,,,,,0,1,1,1,0,112,112,228,798.305434501,8.98016151041e-06,799.275948951,0.970524713513,,,,,x,1,0.950472551282,2018_Nov_27_1533,59.9767246643,spanish_cond2,001,1058,
images/cat.jpg,black olive,x,sounds/animalfarm_english.wav,,,,,,,,,0,1,1,1,0,113,113,133,800.406475948,9.30100213736e-06,801.209810364,0.803344357642,,,,,x,1,0.783810802503,2018_Nov_27_1533,59.9767246643,spanish_cond2,001,1058,
images/hand01a.jpg,cupcake,x,sounds/animalfarm_english.wav,,,,,,,,,0,1,1,1,0,114,114,163,802.320909964,8.98027792573e-06,803.126918557,0.806017893716,,,,,x,1,0.783767184243,2018_Nov_27_1533,59.9767246643,spanish_cond2,001,1058,
images/coin01b.jpg,arrow,x,sounds/animalfarm_english.wav,,,,,,,,,0,1,1,1,0,115,115,124,804.23007773,8.65943729877e-06,804.810694978,0.580626549083,,,,,x,1,0.567060983274,2018_Nov_27_1533,59.9767246643,spanish_cond2,001,1058,
images/cigar.jpg,crocodile,x,sounds/animalfarm_english.wav,,,,,,,,,0,1,1,1,0,116,116,162,805.908893869,8.98016151041e-06,806.694495261,0.785610692576,,,,,x,1,0.767097994685,2018_Nov_27_1533,59.9767246643,spanish_cond2,001,1058,
images/fryingpan01.jpg,frying pan,z,sounds/animalfarm_english.wav,,,,,,,,,0,1,1,1,0,117,117,45,807.794624255,9.30088572204e-06,808.511619747,0.717005755054,,,,,z,1,0.70041514223,2018_Nov_27_1533,59.9767246643,spanish_cond2,001,1058,
images/screwdriver02b.jpg,cola,x,sounds/animalfarm_english.wav,,,,,,,,,0,1,1,1,0,118,118,158,809.605164004,8.98016151041e-06,810.328750327,0.72359626519,,,,,x,1,0.700418990804,2018_Nov_27_1533,59.9767246643,spanish_cond2,001,1058,
images/flashlight05.jpg,flash light,z,sounds/animalfarm_english.wav,,,,,,,,,0,1,1,1,0,119,119,8,811.431853053,8.98016151041e-06,812.545995661,1.11415222986,,,,,z,1,1.10054176312,2018_Nov_27_1533,59.9767246643,spanish_cond2,001,1058,
images/belt02a.jpg,snowman,x,sounds/animalfarm_english.wav,,,,,,,,,0,1,1,1,0,120,120,224,813.649611542,8.65943729877e-06,814.363108922,0.713507001987,,,,,x,1,0.700418349472,2018_Nov_27_1533,59.9767246643,spanish_cond2,001,1058,
images/plant01.jpg,plant,z,sounds/animalfarm_english.wav,,,,,,,,,0,1,1,1,0,121,121,47,815.474727451,9.621726349e-06,816.180215127,0.705497298273,,,,,z,1,0.68372670922,2018_Nov_27_1533,59.9767246643,spanish_cond2,001,1058,
images/comb02a.jpg,diploma,x,sounds/animalfarm_english.wav,,,,,,,,,0,1,1,1,0,122,122,166,817.28416103,9.30088572204e-06,818.030689218,0.746537809144,,,,,x,1,0.733753200737,2018_Nov_27_1533,59.9767246643,spanish_cond2,001,1058,
images/parkbench03.jpg,park bench,z,sounds/animalfarm_english.wav,,,,,,,,,0,1,1,1,0,123,123,71,819.213224767,8.98016151041e-06,820.114561471,0.901346004801,,,,,z,1,0.883801244898,2018_Nov_27_1533,59.9767246643,spanish_cond2,001,1058,
images/fork01.jpg,cooking pot,x,sounds/animalfarm_english.wav,,,,,,,,,0,1,1,1,0,124,124,160,821.208787582,9.621726349e-06,822.298445654,1.08966833528,,,,,x,1,1.06718029175,2018_Nov_27_1533,59.9767246643,spanish_cond2,001,1058,
images/computerkeyboard01a.jpg,computer keyboard,z,sounds/animalfarm_english.wav,,,,,,,,,0,1,1,1,0,125,125,61,823.416048529,8.98027792573e-06,824.615697788,1.19965888048,,,,,z,1,1.183868789,2018_Nov_27_1533,59.9767246643,spanish_cond2,001,1058,
images/watermelon01.jpg,orange,x,sounds/animalfarm_english.wav,,,,,,,,,0,1,1,1,0,126,126,207,825.744410141,9.62160993367e-06,826.416150518,0.671749998699,,,,,x,1,0.650400196551,2018_Nov_27_1533,59.9767246643,spanish_cond2,001,1058,
images/eraser.jpg,eraser,z,sounds/animalfarm_english.wav,,,,,,,,,0,1,1,1,0,127,127,110,827.522892153,8.6595537141e-06,828.249943232,0.727060059668,,,,,z,1,0.71707952104,2018_Nov_27_1533,59.9767246643,spanish_cond2,001,1058,
images/chessknight02b (1).jpg,cockroach,x,sounds/animalfarm_english.wav,,,,,,,,,0,1,1,1,0,128,128,155,829.359167573,8.98016151041e-06,830.200305455,0.841147824423,,,,,x,1,0.816970219021,2018_Nov_27_1533,59.9767246643,spanish_cond2,001,1058,
images/blueberry02.jpg,blueberry,z,sounds/animalfarm_english.wav,,,,,,,,,0,1,1,1,0,129,129,46,831.313001609,8.98027792573e-06,832.184118631,0.871126644081,,,,,z,1,0.850293845288,2018_Nov_27_1533,59.9767246643,spanish_cond2,001,1058,
images/scissors04a.jpg,leek,x,sounds/animalfarm_english.wav,,,,,,,,,0,1,1,1,0,130,130,194,833.278625695,8.65943729877e-06,834.068103329,0.789486935013,,,,,x,1,0.767113389215,2018_Nov_27_1533,59.9767246643,spanish_cond2,001,1058,
images/candy.jpg,candy,z,sounds/animalfarm_english.wav,,,,,,,,,0,1,1,1,0,131,131,31,835.170176217,8.65943729877e-06,835.818527002,0.64836008579,,,,,z,1,0.633728761808,2018_Nov_27_1533,59.9767246643,spanish_cond2,001,1058,
images/gamecontroller01.jpg,game controller,z,sounds/animalfarm_english.wav,,,,,,,,,0,1,1,1,0,132,132,112,836.938402511,8.98027792573e-06,837.652319074,0.713926505996,,,,,z,1,0.700413538609,2018_Nov_27_1533,59.9767246643,spanish_cond2,001,1058,
images/candycane01a.jpg,lip,x,sounds/animalfarm_english.wav,,,,,,,,,0,1,1,1,0,133,133,200,838.746308814,8.98016151041e-06,839.386089594,0.63979040191,,,,,x,1,0.617055081995,2018_Nov_27_1533,59.9767246643,spanish_cond2,001,1058,
images/glasses01b.jpg,calculator,x,sounds/animalfarm_english.wav,,,,,,,,,0,1,1,1,0,134,134,142,840.479485357,8.98027792573e-06,841.369936446,0.89046071039,,,,,x,1,0.867115057074,2018_Nov_27_1533,59.9767246643,spanish_cond2,001,1058,
images/ant.jpg,ant,z,sounds/animalfarm_english.wav,,,,,,,,,0,1,1,1,0,135,135,98,842.464545499,9.62160993367e-06,843.437143037,0.972607480246,,,,,z,1,0.950497567654,2018_Nov_27_1533,59.9767246643,spanish_cond2,001,1058,
images/dresser02.jpg,dresser,z,sounds/animalfarm_english.wav,,,,,,,,,0,1,1,1,0,136,136,87,844.559284444,9.30088572204e-06,845.454300686,0.895025862963,,,,,z,1,0.883790981839,2018_Nov_27_1533,59.9767246643,spanish_cond2,001,1058,
images/ladder.jpg,ladder,z,sounds/animalfarm_english.wav,,,,,,,,,0,1,1,1,0,137,137,113,846.546958789,8.98016151041e-06,847.321462889,0.774513721699,,,,,z,1,0.750450613908,2018_Nov_27_1533,59.9767246643,spanish_cond2,001,1058,
images/tissuebox03.jpg,tissue box,z,sounds/animalfarm_english.wav,,,,,,,,,0,1,1,1,0,138,138,58,848.446960969,8.98016151041e-06,849.255101079,0.808149410062,,,,,z,1,0.783603616175,2018_Nov_27_1533,59.9767246643,spanish_cond2,001,1058,
images/bed.jpg,bed,z,sounds/animalfarm_english.wav,,,,,,,,,0,1,1,1,0,139,139,103,850.374456697,9.30100213736e-06,851.105737455,0.731290699681,,,,,z,1,0.717093311949,2018_Nov_27_1533,59.9767246643,spanish_cond2,001,1058,
images/treadmill.jpg,lily,x,sounds/animalfarm_english.wav,,,,,,,,,0,1,1,1,0,140,140,199,852.21181295,8.65943729877e-06,852.872840581,0.661036931677,,,,,x,1,0.65039859293,2018_Nov_27_1533,59.9767246643,spanish_cond2,001,1058,
images/blackolive.jpg,tank,x,sounds/animalfarm_english.wav,,,,,,,,,0,1,1,1,0,141,141,229,853.98794375,9.30088572204e-06,854.823332055,0.83539792581,,,,,x,1,0.817086961819,2018_Nov_27_1533,59.9767246643,spanish_cond2,001,1058,
images/mirror02.jpg,8 ball,x,sounds/animalfarm_english.wav,,,,,,,,,0,1,1,1,0,142,142,121,855.925212831,9.30100213736e-06,856.557116686,0.631913797697,,,,,x,1,0.61707272171,2018_Nov_27_1533,59.9767246643,spanish_cond2,001,1058,
images/bottleofredwine02.jpg,pipe,x,sounds/animalfarm_english.wav,,,,,,,,,0,1,1,1,0,143,143,213,857.655837712,8.98016151041e-06,858.590953467,0.935125055839,,,,,x,1,0.917131606257,2018_Nov_27_1533,59.9767246643,spanish_cond2,001,1058,
images/masquerademask02b.jpg,mirror,x,sounds/animalfarm_english.wav,,,,,,,,,0,1,1,1,0,144,144,204,859.695657556,9.30100213736e-06,860.674815777,0.97916816338,,,,,x,1,0.967142061796,2018_Nov_27_1533,59.9767246643,spanish_cond2,001,1058,
images/bullet (2).jpg,rubber glove,x,sounds/animalfarm_english.wav,,,,,,,,,0,1,1,1,0,145,145,217,861.778648145,9.30100213736e-06,862.641981252,0.863342407625,,,,,x,1,0.850443942938,2018_Nov_27_1533,59.9767246643,spanish_cond2,001,1058,
images/radio03a.jpg,radio,z,sounds/animalfarm_english.wav,,,,,,,,,0,1,1,1,0,146,146,37,863.756080883,8.98016151041e-06,864.442425965,0.686355023528,,,,,z,1,0.667064254754,2018_Nov_27_1533,59.9767246643,spanish_cond2,001,1058,
images/headphones02b.jpg,headphones,z,sounds/animalfarm_english.wav,,,,,,,,,0,1,1,1,0,147,147,101,865.549725013,9.62160993367e-06,866.459611516,0.909896445344,,,,,z,1,0.900464020204,2018_Nov_27_1533,59.9767246643,spanish_cond2,001,1058,
images/swallow.jpg,mattress,x,sounds/animalfarm_english.wav,,,,,,,,,0,1,1,1,0,148,148,202,867.561135971,8.98016151041e-06,868.276744341,0.715617992217,,,,,x,1,0.700407765573,2018_Nov_27_1533,59.9767246643,spanish_cond2,001,1058,
images/honeycomb.jpg,honey comb,z,sounds/animalfarm_english.wav,,,,,,,,,0,1,1,1,0,149,149,59,869.390132291,8.98027792573e-06,870.193909623,0.803787274286,,,,,z,1,0.783776485245,2018_Nov_27_1533,59.9767246643,spanish_cond2,001,1058,
images/parkingmeter.jpg,ear,x,sounds/animalfarm_english.wav,,,,,,,,,0,1,1,1,0,150,150,171,871.296143514,8.98016151041e-06,872.361104412,1.06497019855,,,,,x,1,1.05046780466,2018_Nov_27_1533,59.9767246643,spanish_cond2,001,1058,
images/hat05.jpg,hat,z,sounds/animalfarm_english.wav,,,,,,,,,0,1,1,1,0,151,151,15,873.544544716,9.621726349e-06,874.361620453,0.817085999646,,,,,z,1,0.800437977538,2018_Nov_27_1533,59.9767246643,spanish_cond2,001,1058,
images/binder03b.jpg,dj mixer,x,sounds/animalfarm_english.wav,,,,,,,,,0,1,1,1,0,152,152,167,875.474572863,8.98016151041e-06,876.645532283,1.17096872057,,,,,x,1,1.15050763823,2018_Nov_27_1533,59.9767246643,spanish_cond2,001,1058,
images/clothespin02a.jpg,clothes pin,z,sounds/animalfarm_english.wav,,,,,,,,,0,1,1,1,0,153,153,79,877.772209657,8.98027792573e-06,878.629200813,0.857000456774,,,,,z,1,0.833608940244,2018_Nov_27_1533,59.9767246643,spanish_cond2,001,1058,
images/cocktailshrimp01.jpg,cocktail shrimp,z,sounds/animalfarm_english.wav,,,,,,,,,0,1,1,1,0,154,154,30,879.74508943,8.98016151041e-06,880.479821473,0.734741985798,,,,,z,1,0.717064447119,2018_Nov_27_1533,59.9767246643,spanish_cond2,001,1058,
images/squirrel.jpg,binder,x,sounds/animalfarm_english.wav,,,,,,,,,0,1,1,1,0,155,155,132,881.582909125,1.02631747723e-05,882.280274204,0.697375021176,,,,,x,1,0.683722219081,2018_Nov_27_1533,59.9767246643,spanish_cond2,001,1058,
images/ostrich.jpg,ostrich,z,sounds/animalfarm_english.wav,,,,,,,,,0,1,1,1,0,156,156,76,883.380476002,8.98016151041e-06,884.114109895,0.733643834712,,,,,z,1,0.717100047157,2018_Nov_27_1533,59.9767246643,spanish_cond2,001,1058,
images/rhinoceros01.jpg,envelope,x,sounds/animalfarm_english.wav,,,,,,,,,0,1,1,1,0,157,157,173,885.226214316,8.98027792573e-06,885.847851549,0.621646533953,,,,,x,1,0.600382685196,2018_Nov_27_1533,59.9767246643,spanish_cond2,001,1058,
images/lollipop03b.jpg,lollipop,z,sounds/animalfarm_english.wav,,,,,,,,,0,1,1,1,0,158,158,42,886.940470524,9.30088572204e-06,887.631633808,0.691173225641,,,,,z,1,0.667062971741,2018_Nov_27_1533,59.9767246643,spanish_cond2,001,1058,
images/handfan01b.jpg,handfan,z,sounds/animalfarm_english.wav,,,,,,,,,0,1,1,1,0,159,159,69,888.746625045,8.98016151041e-06,889.448759897,0.702144473558,,,,,z,1,0.683738575899,2018_Nov_27_1533,59.9767246643,spanish_cond2,001,1058,
images/puma.jpg,puma,z,sounds/animalfarm_english.wav,,,,,,,,,0,1,1,1,0,160,160,4,890.54727053,9.30088572204e-06,891.182535228,0.635273998952,,,,,z,1,0.617054761271,2018_Nov_27_1533,59.9767246643,spanish_cond2,001,1058,
images/tulip02.jpg,sport shorts,x,sounds/animalfarm_english.wav,,,,,,,,,0,1,1,1,0,161,161,225,892.341713578,9.30100213736e-06,893.166372779,0.824668181362,,,,,x,1,0.800432846067,2018_Nov_27_1533,59.9767246643,spanish_cond2,001,1058,
images/cheetah.jpg,cheetah,z,sounds/animalfarm_english.wav,,,,,,,,,0,1,1,1,0,162,162,82,894.268514622,9.30088572204e-06,895.183547426,0.915042745764,,,,,z,1,0.900455681374,2018_Nov_27_1533,59.9767246643,spanish_cond2,001,1058,
images/razor04a.jpg,razor,z,sounds/animalfarm_english.wav,,,,,,,,,0,1,1,1,0,163,163,36,896.282739592,8.98027792573e-06,896.950656966,0.667926675291,,,,,z,1,0.650378387421,2018_Nov_27_1533,59.9767246643,spanish_cond2,001,1058,
images/lock02a.jpg,lock,z,sounds/animalfarm_english.wav,,,,,,,,,0,1,1,1,0,164,164,65,898.061185362,8.6595537141e-06,898.734442432,0.673266370897,,,,,z,1,0.650395385688,2018_Nov_27_1533,59.9767246643,spanish_cond2,001,1058,
images/cookingpot.jpg,grasshopper,x,sounds/animalfarm_english.wav,,,,,,,,,0,1,1,1,0,165,165,183,899.900060873,1.05837825686e-05,900.534895483,0.634844873333,,,,,x,1,0.617051233305,2018_Nov_27_1533,59.9767246643,spanish_cond2,001,1058,
images/boxingglove02a.jpg,bracelet,x,sounds/animalfarm_english.wav,,,,,,,,,0,1,1,1,0,166,166,135,901.646472639,8.98016151041e-06,902.335362646,0.688900270965,,,,,x,1,0.667071952019,2018_Nov_27_1533,59.9767246643,spanish_cond2,001,1058,
images/battery03b.jpg,battery,z,sounds/animalfarm_english.wav,,,,,,,,,0,1,1,1,0,167,167,34,903.445157872,8.65943729877e-06,904.352543066,0.907394495327,,,,,z,1,0.883798999828,2018_Nov_27_1533,59.9767246643,spanish_cond2,001,1058,
images/cola.jpg,comb,x,sounds/animalfarm_english.wav,,,,,,,,,0,1,1,1,0,168,168,157,905.474121928,8.98027792573e-06,906.469737662,0.995625035255,,,,,x,1,0.983813496423,2018_Nov_27_1533,59.9767246643,spanish_cond2,001,1058,
images/coffeepot03b.jpg,coffee pot,z,sounds/animalfarm_english.wav,,,,,,,,,0,1,1,1,0,169,169,107,907.591131468,8.6595537141e-06,908.503602988,0.912481141626,,,,,z,1,0.900416232646,2018_Nov_27_1533,59.9767246643,spanish_cond2,001,1058,
images/grandpiano.jpg,tulip,x,sounds/animalfarm_english.wav,,,,,,,,,0,1,1,1,0,170,170,236,909.618260033,8.6595537141e-06,910.287373058,0.669122325839,,,,,x,1,0.650403403793,2018_Nov_27_1533,59.9767246643,spanish_cond2,001,1058,
images/doorhandle.jpg,doll,x,sounds/animalfarm_english.wav,,,,,,,,,0,1,1,1,0,171,171,168,911.390125235,8.98016151041e-06,912.221195663,0.831080370233,,,,,x,1,0.817107167211,2018_Nov_27_1533,59.9767246643,spanish_cond2,001,1058,
images/daisy.jpg,daisy,z,sounds/animalfarm_english.wav,,,,,,,,,0,1,1,1,0,172,172,6,913.323887224,8.98016151041e-06,914.105011341,0.781133417622,,,,,z,1,0.76710344688,2018_Nov_27_1533,59.9767246643,spanish_cond2,001,1058,
images/bicycle.jpg,hand bag,x,sounds/animalfarm_english.wav,,,,,,,,,0,1,1,1,0,173,173,186,915.21568791,8.98027792573e-06,916.222399653,1.00673098641,,,,,x,1,0.983979630284,2018_Nov_27_1533,59.9767246643,spanish_cond2,001,1058,
images/thumbtack02a.jpg,thumb tack,z,sounds/animalfarm_english.wav,,,,,,,,,0,1,1,1,0,174,174,60,917.451528367,8.98027792573e-06,918.222713318,0.771194252186,,,,,x,0,0.750423031859,2018_Nov_27_1533,59.9767246643,spanish_cond2,001,1058,
images/pouch01b.jpg,pouch,z,sounds/animalfarm_english.wav,,,,,,,,,0,1,1,1,0,175,175,25,919.336545468,8.33871308714e-06,920.139855508,0.80331934127,,,,,z,1,0.78375884553,2018_Nov_27_1533,59.9767246643,spanish_cond2,001,1058,
images/radish01.jpg,raisin,x,sounds/animalfarm_english.wav,,,,,,,,,0,1,1,1,0,176,176,214,921.250909246,9.30088572204e-06,922.140364173,0.889464548673,,,,,x,1,0.867116981302,2018_Nov_27_1533,59.9767246643,spanish_cond2,001,1058,
images/dryingmachine01.jpg,drying machine,z,sounds/animalfarm_english.wav,,,,,,,,,0,1,1,1,0,177,177,18,923.26157228,9.30088572204e-06,923.92415926,0.662596601294,,,,,z,1,0.650403403793,2018_Nov_27_1533,59.9767246643,spanish_cond2,001,1058,
images/chameleon.jpg,50 dollar bill,x,sounds/animalfarm_english.wav,,,,,,,,,0,1,1,1,0,178,178,120,925.109283033,9.30088572204e-06,926.024684666,0.915410934249,,,,,x,1,0.900455039926,2018_Nov_27_1533,59.9767246643,spanish_cond2,001,1058,
images/pingpongpaddle01c (1).jpg,ping pong paddle,z,sounds/animalfarm_english.wav,,,,,,,,,0,1,1,1,0,179,179,10,927.136042127,9.30100213736e-06,927.825142849,0.689110343694,,,,,z,1,0.66707355564,2018_Nov_27_1533,59.9767246643,spanish_cond2,001,1058,
images/hairpin.jpg,hair pin,z,sounds/animalfarm_english.wav,,,,,,,,,0,1,1,1,0,180,180,28,928.915964821,8.65943729877e-06,929.575584804,0.659628963447,,,,,z,1,0.650401479448,2018_Nov_27_1533,59.9767246643,spanish_cond2,001,1058,
images/notebook02b.jpg,notebook,z,sounds/animalfarm_english.wav,,,,,,,,,0,1,1,1,0,181,181,7,930.682679553,9.30088572204e-06,931.44273065,0.760061039706,,,,,z,1,0.750409561559,2018_Nov_27_1533,59.9767246643,spanish_cond2,001,1058,
images/knife04.jpg,tooth brush,x,sounds/animalfarm_english.wav,,,,,,,,,0,1,1,1,0,182,182,233,932.54000458,9.30088572204e-06,933.509911904,0.969916625181,,,,,x,1,0.950470306328,2018_Nov_27_1533,59.9767246643,spanish_cond2,001,1058,
images/atm.jpg,atm,z,sounds/animalfarm_english.wav,,,,,,,,,0,1,1,1,0,183,183,96,934.661169069,9.30088572204e-06,935.427067885,0.765908758505,,,,,z,1,0.750431691413,2018_Nov_27_1533,59.9767246643,spanish_cond2,001,1058,
images/table02.jpg,table,z,sounds/animalfarm_english.wav,,,,,,,,,0,1,1,1,0,184,184,49,936.54209312,9.621726349e-06,937.16083167,0.618747851229,,,,,z,1,0.60037819494,2018_Nov_27_1533,59.9767246643,spanish_cond2,001,1058,
images/snowman.jpg,globe,x,sounds/animalfarm_english.wav,,,,,,,,,0,1,1,1,0,185,185,180,938.272440577,8.98016151041e-06,939.19469924,0.92226828495,,,,,x,1,0.900471396744,2018_Nov_27_1533,59.9767246643,spanish_cond2,001,1058,
images/cloud.jpg,ceiling fan,x,sounds/animalfarm_english.wav,,,,,,,,,0,1,1,1,0,186,186,149,940.30011918,9.621726349e-06,941.245203928,0.945094048511,,,,,x,1,0.933788287803,2018_Nov_27_1533,59.9767246643,spanish_cond2,001,1058,
images/corkscrew02a.jpg,masquerade mask,x,sounds/animalfarm_english.wav,,,,,,,,,0,1,1,1,0,187,187,201,942.349026032,9.30088572204e-06,943.045660507,0.696643775678,,,,,x,1,0.683731199242,2018_Nov_27_1533,59.9767246643,spanish_cond2,001,1058,
images/apricot.jpg,apricot,z,sounds/animalfarm_english.wav,,,,,,,,,0,1,1,1,0,188,188,32,944.16309821,9.62160993367e-06,944.929311333,0.766222745064,,,,,z,1,0.750265878276,2018_Nov_27_1533,59.9767246643,spanish_cond2,001,1058,
images/orange.jpg,bat,x,sounds/animalfarm_english.wav,,,,,,,,,0,1,1,1,0,189,189,128,946.054373874,9.30100213736e-06,946.79662171,0.742256816011,,,,,x,1,0.733753842302,2018_Nov_27_1533,59.9767246643,spanish_cond2,001,1058,
images/bandaid01.jpg,door handle,x,sounds/animalfarm_english.wav,,,,,,,,,0,1,1,1,0,190,190,170,947.903874895,9.62160993367e-06,948.680429369,0.776565057808,,,,,x,1,0.767102805432,2018_Nov_27_1533,59.9767246643,spanish_cond2,001,1058,
images/dreamcatcher.jpg,dream catcher,z,sounds/animalfarm_english.wav,,,,,,,,,0,1,1,1,0,191,191,48,949.778865274,9.30088572204e-06,950.514221442,0.735366110224,,,,,z,1,0.717079841765,2018_Nov_27_1533,59.9767246643,spanish_cond2,001,1058,
images/basketball01.jpg,basket ball,z,sounds/animalfarm_english.wav,,,,,,,,,0,1,1,1,0,192,192,33,951.653831919,9.30088572204e-06,952.33135587,0.677533573122,,,,,z,1,0.667086063768,2018_Nov_27_1533,59.9767246643,spanish_cond2,001,1058,
images/hairdryer03a.jpg,hairdryer,z,sounds/animalfarm_english.wav,,,,,,,,,0,1,1,1,0,193,193,119,953.502751792,9.30088572204e-06,954.34851833,0.845777121489,,,,,z,1,0.833771225414,2018_Nov_27_1533,59.9767246643,spanish_cond2,001,1058,
images/globe.jpg,cloud,x,sounds/animalfarm_english.wav,,,,,,,,,0,1,1,1,0,194,194,154,955.477228118,9.30100213736e-06,956.248994217,0.771775720641,,,,,x,1,0.750407958054,2018_Nov_27_1533,59.9767246643,spanish_cond2,001,1058,
images/marker01a.jpg,marker,z,sounds/animalfarm_english.wav,,,,,,,,,0,1,1,1,0,195,195,95,957.34773192,8.65943729877e-06,958.149479725,0.801756785135,,,,,z,1,0.783763335668,2018_Nov_27_1533,59.9767246643,spanish_cond2,001,1058,
images/flower01.jpg,bus,x,sounds/animalfarm_english.wav,,,,,,,,,0,1,1,1,0,196,196,140,959.264296811,9.94245056063e-06,960.033293799,0.769006930175,,,,,x,1,0.750423994032,2018_Nov_27_1533,59.9767246643,spanish_cond2,001,1058,
images/lightswitch02a.jpg,fork,x,sounds/animalfarm_english.wav,,,,,,,,,0,1,1,1,0,197,197,177,961.217108065,9.30088572204e-06,962.283865325,1.06676656078,,,,,x,1,1.05049987684,2018_Nov_27_1533,59.9767246643,spanish_cond2,001,1058,
images/leek.jpg,donut,x,sounds/animalfarm_english.wav,,,,,,,,,0,1,1,1,0,198,198,169,963.384989519,8.6595537141e-06,964.184190793,0.799211537815,,,,,x,1,0.783590466599,2018_Nov_27_1533,59.9767246643,spanish_cond2,001,1058,
images/feather03b.jpg,feather,z,sounds/animalfarm_english.wav,,,,,,,,,0,1,1,1,0,199,199,114,965.285122875,9.30088572204e-06,966.168176517,0.883063264308,,,,,z,1,0.867116660578,2018_Nov_27_1533,59.9767246643,spanish_cond2,001,1058,
images/pictureframe04.jpg,picture frame,z,sounds/animalfarm_english.wav,,,,,,,,,0,1,1,1,0,200,200,41,967.290098231,8.98027792573e-06,967.985305815,0.695217205561,,,,,z,1,0.683737934451,2018_Nov_27_1533,59.9767246643,spanish_cond2,001,1058,
images/toucan.jpg,toucan,z,sounds/animalfarm_english.wav,,,,,,,,,0,1,1,1,0,201,201,81,969.086720582,8.98016151041e-06,969.769096411,0.68238513032,,,,,z,1,0.667072272743,2018_Nov_27_1533,59.9767246643,spanish_cond2,001,1058,
images/dice05a.jpg,band aid,x,sounds/animalfarm_english.wav,,,,,,,,,0,1,1,1,0,202,202,126,970.882171658,9.30088572204e-06,971.552869048,0.670707332436,,,,,x,1,0.650387688424,2018_Nov_27_1533,59.9767246643,spanish_cond2,001,1058,
images/swan.jpg,swan,z,sounds/animalfarm_english.wav,,,,,,,,,0,1,1,1,0,203,203,54,972.644607321,8.6595537141e-06,973.503380727,0.858782707248,,,,,z,1,0.850461582653,2018_Nov_27_1533,59.9767246643,spanish_cond2,001,1058,
images/diploma01.jpg,glasses,x,sounds/animalfarm_english.wav,,,,,,,,,0,1,1,1,0,204,204,179,974.634416389,9.30088572204e-06,975.587239189,0.952832421637,,,,,x,1,0.933813304058,2018_Nov_27_1533,59.9767246643,spanish_cond2,001,1058,
images/mitten01.jpg,mitten,z,sounds/animalfarm_english.wav,,,,,,,,,0,1,1,1,0,205,205,102,976.707735294,8.65943729877e-06,977.471035944,0.763309950591,,,,,z,1,0.750418541837,2018_Nov_27_1533,59.9767246643,spanish_cond2,001,1058,
images/charcoalbarbecue.jpg,charcoal barbecue,z,sounds/animalfarm_english.wav,,,,,,,,,0,1,1,1,0,206,206,77,978.588045483,9.62160993367e-06,979.338407578,0.750372357899,,,,,z,1,0.73393088067,2018_Nov_27_1533,59.9767246643,spanish_cond2,001,1058,
