images,name,corrAns,sounds,trials_3.thisRepN,trials_3.thisTrialN,trials_3.thisN,trials_3.thisIndex,trials_4.thisRepN,trials_4.thisTrialN,trials_4.thisN,trials_4.thisIndex,trials_2.thisRepN,trials_2.thisTrialN,trials_2.thisN,trials_2.thisIndex,trials.thisRepN,trials.thisTrialN,trials.thisN,trials.thisIndex,begin_global,begin_routine,end_global,end_routine,key_resp_2.keys,key_resp_2.corr,key_resp_2.rt,begin_book,key_resp_1.keys,key_resp_1.corr,key_resp_1.rt,date,frameRate,expName,session,participant,
images\volleyball.jpg,volley ball,z,,0,0,0,0,,,,,,,,,,,,,,,,,,,,,,,,2018_Nov_28_1540,59.9872635979,spanish_cond1,001,1061,
images\puma.jpg,puma,z,,,,,,0,0,0,0,,,,,,,,,48.1771537654,9.9424214568e-06,49.2819957806,1.10485227831,z,1,1.08388855783,,,,,2018_Nov_28_1540,59.9872635979,spanish_cond1,001,1061,
images\mitten01.jpg,mitten,z,sounds\animalfarm_spanish.wav,,,,,,,,,0,0,0,1,0,0,0,102,91.4790272993,9.30097303353e-06,92.359684768,0.880667731893,,,,81.2788440383,z,1,0.867140930059,2018_Nov_28_1540,59.9872635979,spanish_cond1,001,1061,
images\icecube02 (2).jpg,aloe,x,sounds\animalfarm_spanish.wav,,,,,,,,,0,0,0,1,0,1,1,122,93.4781350486,9.3009439297e-06,94.6936158216,1.2154910361,,,,,x,1,1.20056107236,2018_Nov_28_1540,59.9872635979,spanish_cond1,001,1061,
images\straw.jpg,straw,z,sounds\animalfarm_spanish.wav,,,,,,,,,0,0,0,1,0,2,2,109,95.7867495329,8.9802488219e-06,96.4440531271,0.657312574447,,,,,z,1,0.633734963718,2018_Nov_28_1540,59.9872635979,spanish_cond1,001,1061,
images\elbow.jpg,elbow,z,sounds\animalfarm_spanish.wav,,,,,,,,,0,0,0,1,0,3,3,105,97.5575864075,9.30097303353e-06,98.3612158984,0.803639753984,,,,,z,1,0.783784771949,2018_Nov_28_1540,59.9872635979,spanish_cond1,001,1061,
images\pouch01b.jpg,pouch,z,sounds\animalfarm_spanish.wav,,,,,,,,,0,0,0,1,0,4,4,25,99.4751821545,9.3009439297e-06,100.261709747,0.786537855864,,,,,z,1,0.76711841533,2018_Nov_28_1540,59.9872635979,spanish_cond1,001,1061,
images\banjo.jpg,knife,x,sounds\animalfarm_spanish.wav,,,,,,,,,0,0,0,1,0,5,5,191,101.360179964,9.30097303353e-06,102.362276208,1.00210618618,,,,,x,1,0.983862515161,2018_Nov_28_1540,59.9872635979,spanish_cond1,001,1061,
images\raisin.jpg,ruler,x,sounds\animalfarm_spanish.wav,,,,,,,,,0,0,0,1,0,6,6,218,103.468099955,9.30097303353e-06,104.196044013,0.727954000671,,,,,x,1,0.717103309289,2018_Nov_28_1540,59.9872635979,spanish_cond1,001,1061,
images\flipflop01b.jpg,flip flop,z,sounds\animalfarm_spanish.wav,,,,,,,,,0,0,0,1,0,7,7,27,105.315180641,9.3009439297e-06,106.096531769,0.781361070287,,,,,z,1,0.767114245944,2018_Nov_28_1540,59.9872635979,spanish_cond1,001,1061,
images\radio03a.jpg,radio,z,sounds\animalfarm_spanish.wav,,,,,,,,,0,0,0,1,0,8,8,37,107.21261287,9.3009439297e-06,107.947004097,0.734402131115,,,,,z,1,0.717103309289,2018_Nov_28_1540,59.9872635979,spanish_cond1,001,1061,
images\hanger02a.jpg,hanger,z,sounds\animalfarm_spanish.wav,,,,,,,,,0,0,0,1,0,9,9,88,109.042908211,9.62169724517e-06,109.714123474,0.671225205733,,,,,z,1,0.650417035766,2018_Nov_28_1540,59.9872635979,spanish_cond1,001,1061,
images\nailclipper03a.jpg,aquarium,x,sounds\animalfarm_spanish.wav,,,,,,,,,0,0,0,1,0,10,10,123,110.81628521,8.9802488219e-06,111.814658825,0.998383557453,,,,,x,1,0.983829480712,2018_Nov_28_1540,59.9872635979,spanish_cond1,001,1061,
images\lion.jpg,lion,z,sounds\animalfarm_spanish.wav,,,,,,,,,0,0,0,1,0,11,11,44,112.928591405,9.62166814134e-06,113.531766945,0.603185803018,,,,,z,1,0.583732045139,2018_Nov_28_1540,59.9872635979,spanish_cond1,001,1061,
images\blueberry02.jpg,blueberry,z,sounds\animalfarm_spanish.wav,,,,,,,,,0,0,0,1,0,12,12,46,114.646023134,8.9802488219e-06,115.38223799,0.736224477703,,,,,z,1,0.717094008316,2018_Nov_28_1540,59.9872635979,spanish_cond1,001,1061,
images\desktopcomputer.jpg,desktop computer,z,sounds\animalfarm_spanish.wav,,,,,,,,,0,0,0,1,0,13,13,16,116.520145878,9.62166814134e-06,117.316071929,0.795935993985,,,,,z,1,0.783782206185,2018_Nov_28_1540,59.9872635979,spanish_cond1,001,1061,
images\gamecontroller01.jpg,game controller,z,sounds\animalfarm_spanish.wav,,,,,,,,,0,0,0,1,0,14,14,112,118.437651822,8.9802488219e-06,119.09985638,0.662214500655,,,,,z,1,0.650405169028,2018_Nov_28_1540,59.9872635979,spanish_cond1,001,1061,
images\drink.jpg,drink,z,sounds\animalfarm_spanish.wav,,,,,,,,,0,0,0,1,0,15,15,117,120.201937614,8.98021971807e-06,120.816965783,0.615038111457,,,,,z,1,0.600393911678,2018_Nov_28_1540,59.9872635979,spanish_cond1,001,1061,
images\flashlight05.jpg,flash light,z,sounds\animalfarm_spanish.wav,,,,,,,,,0,0,0,1,0,16,16,8,121.920627218,9.62169724517e-06,122.617436476,0.696818879544,,,,,z,1,0.683758729254,2018_Nov_28_1540,59.9872635979,spanish_cond1,001,1061,
images\cola.jpg,comb,x,sounds\animalfarm_spanish.wav,,,,,,,,,0,0,0,1,0,17,17,157,123.740724538,8.98021971807e-06,124.451458936,0.710744018987,,,,,x,1,0.700637725065,2018_Nov_28_1540,59.9872635979,spanish_cond1,001,1061,
images\candle08a.jpg,screw driver,x,sounds\animalfarm_spanish.wav,,,,,,,,,0,0,0,1,0,18,18,221,125.566108331,9.62169724517e-06,126.50176173,0.935663341195,,,,,x,1,0.917151866714,2018_Nov_28_1540,59.9872635979,spanish_cond1,001,1061,
images\pineapple01a.jpg,pineapple,z,sounds\animalfarm_spanish.wav,,,,,,,,,0,0,0,1,0,19,19,51,127.617068928,8.9802488219e-06,128.368910357,0.751851371955,,,,,z,1,0.733776401088,2018_Nov_28_1540,59.9872635979,spanish_cond1,001,1061,
images\toothbrush03a.jpg,parrot,x,sounds\animalfarm_spanish.wav,,,,,,,,,0,0,0,1,0,20,20,210,129.462997577,8.9802488219e-06,130.169374636,0.706387000741,,,,,x,1,0.683765143738,2018_Nov_28_1540,59.9872635979,spanish_cond1,001,1061,
images\swan.jpg,swan,z,sounds\animalfarm_spanish.wav,,,,,,,,,0,0,0,1,0,21,21,54,131.262676085,9.62166814134e-06,132.169881377,0.907216197258,,,,,z,1,0.883806965954,2018_Nov_28_1540,59.9872635979,spanish_cond1,001,1061,
images\lemon02.jpg,lemon,z,sounds\animalfarm_spanish.wav,,,,,,,,,0,0,0,1,0,22,22,14,133.283140119,9.30097303353e-06,134.103699922,0.820569744683,,,,,z,1,0.800445997011,2018_Nov_28_1540,59.9872635979,spanish_cond1,001,1061,
images\corkscrew02a.jpg,masquerade mask,x,sounds\animalfarm_spanish.wav,,,,,,,,,0,0,0,1,0,23,23,201,135.209210002,9.3009439297e-06,136.087557305,0.878357886802,,,,,x,1,0.86707774768,2018_Nov_28_1540,59.9872635979,spanish_cond1,001,1061,
images\grasshopper.jpg,cauliflower,x,sounds\animalfarm_spanish.wav,,,,,,,,,0,0,0,1,0,24,24,148,137.183139414,8.65949550644e-06,137.938015842,0.754886050418,,,,,x,1,0.73376453435,2018_Nov_28_1540,59.9872635979,spanish_cond1,001,1061,
images\coffeepot03b.jpg,coffee pot,z,sounds\animalfarm_spanish.wav,,,,,,,,,0,0,0,1,0,25,25,107,139.062419699,9.3009439297e-06,139.888516779,0.826107022614,,,,,z,1,0.817116523074,2018_Nov_28_1540,59.9872635979,spanish_cond1,001,1061,
images\feather03b.jpg,feather,z,sounds\animalfarm_spanish.wav,,,,,,,,,0,0,0,1,0,26,26,114,140.991338241,8.9802488219e-06,141.922381572,0.931053272681,,,,,z,1,0.917149942368,2018_Nov_28_1540,59.9872635979,spanish_cond1,001,1061,
images\grandpiano.jpg,tulip,x,sounds\animalfarm_spanish.wav,,,,,,,,,0,0,0,1,0,27,27,236,143.038361004,9.62169724517e-06,143.806200725,0.767850946053,,,,,x,1,0.75044147484,2018_Nov_28_1540,59.9872635979,spanish_cond1,001,1061,
images\hand01a.jpg,cupcake,x,sounds\animalfarm_spanish.wav,,,,,,,,,0,0,0,1,0,28,28,163,144.918142258,9.30097303353e-06,145.723344253,0.805211616069,,,,,x,1,0.783777716075,2018_Nov_28_1540,59.9872635979,spanish_cond1,001,1061,
images\ladybug03.jpg,giraffe,x,sounds\animalfarm_spanish.wav,,,,,,,,,0,0,0,1,0,29,29,178,146.828182099,9.30097303353e-06,147.640499327,0.812327170541,,,,,x,1,0.800412321143,2018_Nov_28_1540,59.9872635979,spanish_cond1,001,1061,
images\sunglasses03a.jpg,sun glasses,z,sounds\animalfarm_spanish.wav,,,,,,,,,0,0,0,1,0,30,30,17,148.751006268,9.94239235297e-06,149.6410112,0.890016158024,,,,,z,1,0.867122007417,2018_Nov_28_1540,59.9872635979,spanish_cond1,001,1061,
images\donut.jpg,rhinoceros,x,sounds\animalfarm_spanish.wav,,,,,,,,,0,0,0,1,0,31,31,216,150.768093412,8.98021971807e-06,151.474826794,0.706743323652,,,,,x,1,0.683751352626,2018_Nov_28_1540,59.9872635979,spanish_cond1,001,1061,
images\bed.jpg,bed,z,sounds\animalfarm_spanish.wav,,,,,,,,,0,0,0,1,0,32,32,103,152.596297,9.3009439297e-06,153.308637576,0.712350839865,,,,,z,1,0.700431821082,2018_Nov_28_1540,59.9872635979,spanish_cond1,001,1061,
images\hammer02a.jpg,flower,x,sounds\animalfarm_spanish.wav,,,,,,,,,0,0,0,1,0,33,33,176,154.405541062,8.9802488219e-06,155.142425588,0.736895108916,,,,,x,1,0.717087593861,2018_Nov_28_1540,59.9872635979,spanish_cond1,001,1061,
images\redfox.jpg,red fox,z,sounds\animalfarm_spanish.wav,,,,,,,,,0,0,0,1,0,34,34,1,156.256419105,9.62169724517e-06,157.209631111,0.953221627744,,,,,z,1,0.933816940465,2018_Nov_28_1540,59.9872635979,spanish_cond1,001,1061,
images\chameleon.jpg,50 dollar bill,x,sounds\animalfarm_spanish.wav,,,,,,,,,0,0,0,1,0,35,35,120,158.322947262,9.62169724517e-06,159.093447378,0.770510699629,,,,,x,1,0.750446927123,2018_Nov_28_1540,59.9872635979,spanish_cond1,001,1061,
images\lock02a.jpg,lock,z,sounds\animalfarm_spanish.wav,,,,,,,,,0,0,0,1,0,36,36,65,160.204403972,9.30097303353e-06,161.010612715,0.806218685437,,,,,z,1,0.783781244012,2018_Nov_28_1540,59.9872635979,spanish_cond1,001,1061,
images\glasses01b.jpg,calculator,x,sounds\animalfarm_spanish.wav,,,,,,,,,0,0,0,1,0,37,37,142,162.105088972,9.30097303353e-06,162.894423209,0.78934385904,,,,,x,1,0.767117132433,2018_Nov_28_1540,59.9872635979,spanish_cond1,001,1061,
images\binder03b.jpg,dj mixer,x,sounds\animalfarm_spanish.wav,,,,,,,,,0,0,0,1,0,38,38,167,164.008997555,8.65952461027e-06,164.678222414,0.669234479748,,,,,x,1,0.650418318633,2018_Nov_28_1540,59.9872635979,spanish_cond1,001,1061,
images\lily.jpg,kiwi,x,sounds\animalfarm_spanish.wav,,,,,,,,,0,0,0,1,0,39,39,190,165.780229881,9.30097303353e-06,166.512016839,0.731796900422,,,,,x,1,0.71709657411,2018_Nov_28_1540,59.9872635979,spanish_cond1,001,1061,
images\highlighter03b.jpg,coin,x,sounds\animalfarm_spanish.wav,,,,,,,,,0,0,0,1,0,40,40,156,167.615453447,9.62166814134e-06,168.26247435,0.647031486616,,,,,x,1,0.633745547588,2018_Nov_28_1540,59.9872635979,spanish_cond1,001,1061,
images\corn01.jpg,corn,z,sounds\animalfarm_spanish.wav,,,,,,,,,0,0,0,1,0,41,41,22,169.363457109,9.62166814134e-06,170.029572239,0.666125072865,,,,,z,1,0.650398754544,2018_Nov_28_1540,59.9872635979,spanish_cond1,001,1061,
images\watermelon01.jpg,orange,x,sounds\animalfarm_spanish.wav,,,,,,,,,0,0,0,1,0,42,42,207,171.160602869,9.30097303353e-06,171.863397775,0.702804527857,,,,,x,1,0.683767388808,2018_Nov_28_1540,59.9872635979,spanish_cond1,001,1061,
images\cake.jpg,cake,z,sounds\animalfarm_spanish.wav,,,,,,,,,0,0,0,1,0,43,43,23,172.979723268,8.9802488219e-06,173.713853426,0.734140421409,,,,,z,1,0.717094649764,2018_Nov_28_1540,59.9872635979,spanish_cond1,001,1061,
images\bicycle.jpg,hand bag,x,sounds\animalfarm_spanish.wav,,,,,,,,,0,0,0,1,0,44,44,186,174.824415852,9.62169724517e-06,175.514326684,0.689922057965,,,,,x,1,0.667096221296,2018_Nov_28_1540,59.9872635979,spanish_cond1,001,1061,
images\seagull.jpg,seagull,z,sounds\animalfarm_spanish.wav,,,,,,,,,0,0,0,1,0,45,45,50,176.624093076,8.98021971807e-06,177.398156742,0.774073287699,,,,,z,1,0.750460076757,2018_Nov_28_1540,59.9872635979,spanish_cond1,001,1061,
images\graduationcap.jpg,graduation cap,z,sounds\animalfarm_spanish.wav,,,,,,,,,0,0,0,1,0,46,46,35,178.502016384,8.98021971807e-06,179.331964382,0.829957619688,,,,,z,1,0.81711844739,2018_Nov_28_1540,59.9872635979,spanish_cond1,001,1061,
images\broadsword.jpg,teapot,x,sounds\animalfarm_spanish.wav,,,,,,,,,0,0,0,1,0,47,47,231,180.426876501,9.30097303353e-06,181.28247462,0.855607740697,,,,,x,1,0.833804688853,2018_Nov_28_1540,59.9872635979,spanish_cond1,001,1061,
images\computerkeyboard01a.jpg,computer keyboard,z,sounds\animalfarm_spanish.wav,,,,,,,,,0,0,0,1,0,48,48,61,182.401991945,9.3009439297e-06,183.232960803,0.830978800863,,,,,z,1,0.817117805942,2018_Nov_28_1540,59.9872635979,spanish_cond1,001,1061,
images\cat.jpg,black olive,x,sounds\animalfarm_spanish.wav,,,,,,,,,0,0,0,1,0,49,49,133,184.365810893,9.3009439297e-06,185.266813087,0.9010124575,,,,,x,1,0.88380215512,2018_Nov_28_1540,59.9872635979,spanish_cond1,001,1061,
images\lipstick04.jpg,lipstick,z,sounds\animalfarm_spanish.wav,,,,,,,,,0,0,0,1,0,50,50,56,186.36905372,8.98021971807e-06,187.217651745,0.84860860859,,,,,z,1,0.834046834498,2018_Nov_28_1540,59.9872635979,spanish_cond1,001,1061,
images\bowtie.jpg,bowtie,z,sounds\animalfarm_spanish.wav,,,,,,,,,0,0,0,1,0,51,51,89,188.330278022,8.9802488219e-06,189.184500561,0.854232160927,,,,,z,1,0.833801802335,2018_Nov_28_1540,59.9872635979,spanish_cond1,001,1061,
images\cupcake.jpg,scissors,x,sounds\animalfarm_spanish.wav,,,,,,,,,0,0,0,1,0,52,52,219,190.305474929,9.3009439297e-06,191.034956532,0.729491866136,,,,,x,1,0.717057125206,2018_Nov_28_1540,59.9872635979,spanish_cond1,001,1061,
images\pen03c.jpg,pepper,x,sounds\animalfarm_spanish.wav,,,,,,,,,0,0,0,1,0,53,53,211,192.131032875,9.3009439297e-06,193.218859587,1.0878363339,,,,,x,1,1.06718660097,2018_Nov_28_1540,59.9872635979,spanish_cond1,001,1061,
images\treadmill.jpg,lily,x,sounds\animalfarm_spanish.wav,,,,,,,,,0,0,0,1,0,54,54,199,194.327470736,9.3009439297e-06,195.136008246,0.808548094617,,,,,x,1,0.800444393419,2018_Nov_28_1540,59.9872635979,spanish_cond1,001,1061,
images\comb02a.jpg,diploma,x,sounds\animalfarm_spanish.wav,,,,,,,,,0,0,0,1,0,55,55,166,196.242755355,9.62169724517e-06,196.936678749,0.693933657865,,,,,x,1,0.683962708921,2018_Nov_28_1540,59.9872635979,spanish_cond1,001,1061,
images\nametag01a.jpg,name tag,z,sounds\animalfarm_spanish.wav,,,,,,,,,0,0,0,1,0,56,56,108,198.058569102,8.9802488219e-06,198.83696926,0.778410100465,,,,,z,1,0.767108793632,2018_Nov_28_1540,59.9872635979,spanish_cond1,001,1061,
images\axe01.jpg,axe,z,sounds\animalfarm_spanish.wav,,,,,,,,,0,0,0,1,0,57,57,104,199.941545075,9.3009439297e-06,200.820804514,0.879269380792,,,,,z,1,0.867128421873,2018_Nov_28_1540,59.9872635979,spanish_cond1,001,1061,
images\8ball.jpg,nail clipper,x,sounds\animalfarm_spanish.wav,,,,,,,,,0,0,0,1,0,58,58,206,201.937843935,9.3009439297e-06,202.604596021,0.66676202821,,,,,x,1,0.65040901769,2018_Nov_28_1540,59.9872635979,spanish_cond1,001,1061,
images\snowman.jpg,globe,x,sounds\animalfarm_spanish.wav,,,,,,,,,0,0,0,1,0,59,59,180,203.718420197,9.30097303353e-06,204.588434482,0.870025189564,,,,,x,1,0.850458858011,2018_Nov_28_1540,59.9872635979,spanish_cond1,001,1061,
images\nailpolish02b.jpg,nail polish,z,sounds\animalfarm_spanish.wav,,,,,,,,,0,0,0,1,0,60,60,94,205.69981892,8.9802488219e-06,206.522258799,0.822449821339,,,,,z,1,0.800438299688,2018_Nov_28_1540,59.9872635979,spanish_cond1,001,1061,
images\cheetah.jpg,cheetah,z,sounds\animalfarm_spanish.wav,,,,,,,,,0,0,0,1,0,61,61,82,207.62701037,9.62169724517e-06,208.372755823,0.745755715761,,,,,z,1,0.73376677942,2018_Nov_28_1540,59.9872635979,spanish_cond1,001,1061,
images\butterfly.jpg,butterfly,z,sounds\animalfarm_spanish.wav,,,,,,,,,0,0,0,1,0,62,62,91,209.48247122,8.9802488219e-06,210.189873308,0.707412030577,,,,,z,1,0.683745579649,2018_Nov_28_1540,59.9872635979,spanish_cond1,001,1061,
images\puma.jpg,puma,z,sounds\animalfarm_spanish.wav,,,,,,,,,0,0,0,1,0,63,63,4,211.289669393,9.3009439297e-06,211.840287778,0.550628327881,,,,,z,1,0.533690960554,2018_Nov_28_1540,59.9872635979,spanish_cond1,001,1061,
images\headphones02b.jpg,headphones,z,sounds\animalfarm_spanish.wav,,,,,,,,,0,0,0,1,0,64,64,101,212.949776745,9.3009439297e-06,213.757448625,0.807682143233,,,,,z,1,0.783763283544,2018_Nov_28_1540,59.9872635979,spanish_cond1,001,1061,
images\diploma01.jpg,glasses,x,sounds\animalfarm_spanish.wav,,,,,,,,,0,0,0,1,0,65,65,179,214.890849716,9.3009439297e-06,215.607942763,0.717103630013,,,,,x,1,0.700431500358,2018_Nov_28_1540,59.9872635979,spanish_cond1,001,1061,
images\spoon02b.jpg,spoon,z,sounds\animalfarm_spanish.wav,,,,,,,,,0,0,0,1,0,66,66,38,216.70114158,8.9802488219e-06,217.325222469,0.624108150281,,,,,x,0,0.600493656442,2018_Nov_28_1540,59.9872635979,spanish_cond1,001,1061,
images\tent.jpg,tent,z,sounds\animalfarm_spanish.wav,,,,,,,,,0,0,0,1,0,67,67,11,218.454180909,9.62169724517e-06,219.358883923,0.904713918542,,,,,z,1,0.883788043313,2018_Nov_28_1540,59.9872635979,spanish_cond1,001,1061,
images\egg01b (1).jpg,egg,z,sounds\animalfarm_spanish.wav,,,,,,,,,0,0,0,1,0,68,68,19,220.473447044,9.62169724517e-06,221.292731332,0.81929487185,,,,,z,1,0.800456901605,2018_Nov_28_1540,59.9872635979,spanish_cond1,001,1061,
images\aquarium.jpg,computer mouse,x,sounds\animalfarm_spanish.wav,,,,,,,,,0,0,0,1,0,69,69,159,222.429814962,9.3009439297e-06,223.45995456,1.03014954017,,,,,x,1,1.01718368239,2018_Nov_28_1540,59.9872635979,spanish_cond1,001,1061,
images\paperclip04.jpg,eye drops,x,sounds\animalfarm_spanish.wav,,,,,,,,,0,0,0,1,0,70,70,174,224.567701361,8.9802488219e-06,225.477135035,0.909444258083,,,,,x,1,0.900458890072,2018_Nov_28_1540,59.9872635979,spanish_cond1,001,1061,
images\table02.jpg,table,z,sounds\animalfarm_spanish.wav,,,,,,,,,0,0,0,1,0,71,71,49,226.593737953,8.98021971807e-06,227.544312656,0.95058464547,,,,,z,1,0.933800583589,2018_Nov_28_1540,59.9872635979,spanish_cond1,001,1061,
images\dolphin01.jpg,dolphin,z,sounds\animalfarm_spanish.wav,,,,,,,,,0,0,0,1,0,72,72,99,228.647182868,9.30097303353e-06,229.378143003,0.730970397941,,,,,z,1,0.717108120123,2018_Nov_28_1540,59.9872635979,spanish_cond1,001,1061,
images\hairpin.jpg,hair pin,z,sounds\animalfarm_spanish.wav,,,,,,,,,0,0,0,1,0,73,73,28,230.470853681,8.98021971807e-06,231.328639129,0.857795069722,,,,,z,1,0.833792180638,2018_Nov_28_1540,59.9872635979,spanish_cond1,001,1061,
images\cookingpot.jpg,grasshopper,x,sounds\animalfarm_spanish.wav,,,,,,,,,0,0,0,1,0,74,74,183,232.444464935,9.30097303353e-06,233.345796191,0.901340877608,,,,,x,1,0.883790609136,2018_Nov_28_1540,59.9872635979,spanish_cond1,001,1061,
images\lightbulb03b.jpg,treadmill,x,sounds\animalfarm_spanish.wav,,,,,,,,,0,0,0,1,0,75,75,234,234.450651677,8.98021971807e-06,235.312965409,0.86232335394,,,,,x,1,0.850447311997,2018_Nov_28_1540,59.9872635979,spanish_cond1,001,1061,
images\ladder.jpg,ladder,z,sounds\animalfarm_spanish.wav,,,,,,,,,0,0,0,1,0,76,76,113,236.407751483,9.30097303353e-06,237.046750469,0.639008928294,,,,,z,1,0.617058343953,2018_Nov_28_1540,59.9872635979,spanish_cond1,001,1061,
images\umbrella01.jpg,umbrella,z,sounds\animalfarm_spanish.wav,,,,,,,,,0,0,0,1,0,77,77,53,238.162074345,9.62166814134e-06,238.830541014,0.668476611929,,,,,z,1,0.650400678889,2018_Nov_28_1540,59.9872635979,spanish_cond1,001,1061,
images\aloe02.jpg,broad sword,x,sounds\animalfarm_spanish.wav,,,,,,,,,0,0,0,1,0,78,78,137,239.952837081,9.62166814134e-06,240.697677134,0.744850636198,,,,,x,1,0.733746894606,2018_Nov_28_1540,59.9872635979,spanish_cond1,001,1061,
images\apricot.jpg,apricot,z,sounds\animalfarm_spanish.wav,,,,,,,,,0,0,0,1,0,79,79,32,241.816692528,8.9802488219e-06,242.581507833,0.76482524781,,,,,z,1,0.750431532448,2018_Nov_28_1540,59.9872635979,spanish_cond1,001,1061,
images\cockroach02.jpg,belt,x,sounds\animalfarm_spanish.wav,,,,,,,,,0,0,0,1,0,80,80,129,243.683201634,9.3009439297e-06,244.431978237,0.748786545533,,,,,x,1,0.73375170544,2018_Nov_28_1540,59.9872635979,spanish_cond1,001,1061,
images\orange.jpg,bat,x,sounds\animalfarm_spanish.wav,,,,,,,,,0,0,0,1,0,81,81,128,245.559204454,8.98021971807e-06,246.299134562,0.739940050495,,,,,x,1,0.717097215558,2018_Nov_28_1540,59.9872635979,spanish_cond1,001,1061,
images\floorlamp.jpg,floor lamp,z,sounds\animalfarm_spanish.wav,,,,,,,,,0,0,0,1,0,82,82,26,247.394095751,3.36758967023e-05,248.132919366,0.738849593239,,,,,x,0,0.717073482083,2018_Nov_28_1540,59.9872635979,spanish_cond1,001,1061,
images\computermouse02a.jpg,world map,x,sounds\animalfarm_spanish.wav,,,,,,,,,0,0,0,1,0,83,83,239,249.237080807,8.9802488219e-06,250.21679285,0.979722305434,,,,,x,1,0.967157030333,2018_Nov_28_1540,59.9872635979,spanish_cond1,001,1061,
images\eyedrops.jpg,bicycle,x,sounds\animalfarm_spanish.wav,,,,,,,,,0,0,0,1,0,84,84,131,251.320156012,9.30097303353e-06,252.233978777,0.913832707185,,,,,x,1,0.900467228872,2018_Nov_28_1540,59.9872635979,spanish_cond1,001,1061,
images\toucan.jpg,toucan,z,sounds\animalfarm_spanish.wav,,,,,,,,,0,0,0,1,0,85,85,81,253.336550075,9.9424214568e-06,254.201149919,0.864610107004,,,,,z,1,0.850458858011,2018_Nov_28_1540,59.9872635979,spanish_cond1,001,1061,
images\doll.jpg,carrot,x,sounds\animalfarm_spanish.wav,,,,,,,,,0,0,0,1,0,86,86,146,255.314918931,9.30097303353e-06,256.168318816,0.853409827832,,,,,x,1,0.833782238245,2018_Nov_28_1540,59.9872635979,spanish_cond1,001,1061,
images\parrot01.jpg,chameleon,x,sounds\animalfarm_spanish.wav,,,,,,,,,0,0,0,1,0,87,87,150,257.283758793,9.62169724517e-06,258.135485789,0.851737579535,,,,,z,0,0.833781917521,2018_Nov_28_1540,59.9872635979,spanish_cond1,001,1061,
images\lollipop03b.jpg,lollipop,z,sounds\animalfarm_spanish.wav,,,,,,,,,0,0,0,1,0,88,88,42,259.230802339,9.30097303353e-06,260.085999234,0.85520715802,,,,,z,1,0.833799236541,2018_Nov_28_1540,59.9872635979,spanish_cond1,001,1061,
images\swallow.jpg,mattress,x,sounds\animalfarm_spanish.wav,,,,,,,,,0,0,0,1,0,89,89,202,261.189589148,8.65952461027e-06,262.119846707,0.930266860552,,,,,x,1,0.917142565741,2018_Nov_28_1540,59.9872635979,spanish_cond1,001,1061,
images\bat.jpg,hand,x,sounds\animalfarm_spanish.wav,,,,,,,,,0,0,0,1,0,90,90,185,263.220300273,8.98021971807e-06,264.203718267,0.983427615109,,,,,x,1,0.967156388884,2018_Nov_28_1540,59.9872635979,spanish_cond1,001,1061,
images\diaper01a.jpg,camera,x,sounds\animalfarm_spanish.wav,,,,,,,,,0,0,0,1,0,91,91,143,265.325931267,8.9802488219e-06,266.370937966,1.04501600086,,,,,x,1,1.03384298313,2018_Nov_28_1540,59.9872635979,spanish_cond1,001,1061,
images\peach01.jpg,peach,z,sounds\animalfarm_spanish.wav,,,,,,,,,0,0,0,1,0,92,92,106,267.502549104,9.3009439297e-06,268.238075048,0.735536206717,,,,,z,1,0.717078613641,2018_Nov_28_1540,59.9872635979,spanish_cond1,001,1061,
images\skateboard.jpg,key,x,sounds\animalfarm_spanish.wav,,,,,,,,,0,0,0,1,0,93,93,189,269.331383553,9.3009439297e-06,270.138563444,0.807190475287,,,,,x,1,0.783770339418,2018_Nov_28_1540,59.9872635979,spanish_cond1,001,1061,
images\camera01a.jpg,bull,x,sounds\animalfarm_spanish.wav,,,,,,,,,0,0,0,1,0,94,94,138,271.252402053,8.9802488219e-06,273.122848672,1.87045656165,,,,,x,1,1.85089696528,2018_Nov_28_1540,59.9872635979,spanish_cond1,001,1061,
images\bowl02b (1).jpg,bowl,z,sounds\animalfarm_spanish.wav,,,,,,,,,0,0,0,1,0,95,95,24,274.24313958,1.02631456684e-05,274.889785558,0.646656561759,,,,,z,1,0.633738491655,2018_Nov_28_1540,59.9872635979,spanish_cond1,001,1061,
images\bus.jpg,microphone,x,sounds\animalfarm_spanish.wav,,,,,,,,,0,0,0,1,0,96,96,203,276.009120072,9.62166814134e-06,276.790271068,0.781160939281,,,,,x,1,0.767102699931,2018_Nov_28_1540,59.9872635979,spanish_cond1,001,1061,
images\broom02.jpg,broom,z,sounds\animalfarm_spanish.wav,,,,,,,,,0,0,0,1,0,97,97,116,277.885825595,9.3009439297e-06,278.707472326,0.82165731545,,,,,z,1,0.800487370259,2018_Nov_28_1540,59.9872635979,spanish_cond1,001,1061,
images\lightswitch02a.jpg,fork,x,sounds\animalfarm_spanish.wav,,,,,,,,,0,0,0,1,0,98,98,177,279.821469051,8.65952461027e-06,280.624588914,0.803129804815,,,,,x,1,0.783778036799,2018_Nov_28_1540,59.9872635979,spanish_cond1,001,1061,
images\hairband.jpg,hairband,z,sounds\animalfarm_spanish.wav,,,,,,,,,0,0,0,1,0,99,99,66,281.736557709,9.30097303353e-06,282.475068619,0.738521493884,,,,,z,1,0.717099781323,2018_Nov_28_1540,59.9872635979,spanish_cond1,001,1061,
images\cigar.jpg,crocodile,x,sounds\animalfarm_spanish.wav,,,,,,,,,0,0,0,1,0,100,100,162,283.575810194,9.3009439297e-06,284.408884597,0.833084345591,,,,,x,1,0.81710337344,2018_Nov_28_1540,59.9872635979,spanish_cond1,001,1061,
images\mattress.jpg,cat,x,sounds\animalfarm_spanish.wav,,,,,,,,,0,0,0,1,0,101,101,147,285.515459477,8.98021971807e-06,286.259358208,0.743908994278,,,,,x,1,0.733759723487,2018_Nov_28_1540,59.9872635979,spanish_cond1,001,1061,
images\lip.jpg,boxing glove,x,sounds\animalfarm_spanish.wav,,,,,,,,,0,0,0,1,0,102,102,136,287.365165599,9.30097303353e-06,288.143177682,0.778022025974,,,,,x,1,0.767100134137,2018_Nov_28_1540,59.9872635979,spanish_cond1,001,1061,
images\ruler02b.jpg,watermelon,x,sounds\animalfarm_spanish.wav,,,,,,,,,0,0,0,1,0,103,103,238,289.248414828,8.9802488219e-06,289.977004822,0.728600577684,,,,,x,1,0.717107157951,2018_Nov_28_1540,59.9872635979,spanish_cond1,001,1061,
images\ostrich.jpg,ostrich,z,sounds\animalfarm_spanish.wav,,,,,,,,,0,0,0,1,0,104,104,76,291.079317938,9.3009439297e-06,291.760778048,0.681470372598,,,,,z,1,0.667083392414,2018_Nov_28_1540,59.9872635979,spanish_cond1,001,1061,
images\ceilingfan02.jpg,paper clip,x,sounds\animalfarm_spanish.wav,,,,,,,,,0,0,0,1,0,105,105,208,292.862416364,9.3009439297e-06,293.511228823,0.648823043797,,,,,x,1,0.633735284442,2018_Nov_28_1540,59.9872635979,spanish_cond1,001,1061,
images\atm.jpg,atm,z,sounds\animalfarm_spanish.wav,,,,,,,,,0,0,0,1,0,106,106,96,294.650693499,9.62166814134e-06,295.428410197,0.777726961038,,,,,z,1,0.767109435081,2018_Nov_28_1540,59.9872635979,spanish_cond1,001,1061,
images\pictureframe04.jpg,picture frame,z,sounds\animalfarm_spanish.wav,,,,,,,,,0,0,0,1,0,107,107,41,296.552534383,9.3009439297e-06,297.678967132,1.12644301174,,,,,z,1,1.11719048172,2018_Nov_28_1540,59.9872635979,spanish_cond1,001,1061,
images\eraser.jpg,eraser,z,sounds\animalfarm_spanish.wav,,,,,,,,,0,0,0,1,0,108,108,110,298.788743787,9.62166814134e-06,299.546100044,0.757367161452,,,,,z,1,0.733760685689,2018_Nov_28_1540,59.9872635979,spanish_cond1,001,1061,
images\doorhandle.jpg,doll,x,sounds\animalfarm_spanish.wav,,,,,,,,,0,0,0,1,0,109,109,168,300.651635141,9.62169724517e-06,301.646636677,0.995012120111,,,,,x,1,0.983819859044,2018_Nov_28_1540,59.9872635979,spanish_cond1,001,1061,
images\bowlingball.jpg,bowling ball,z,sounds\animalfarm_spanish.wav,,,,,,,,,0,0,0,1,0,110,110,20,302.781793084,9.30097303353e-06,303.730729856,0.948946714489,,,,,z,1,0.93403342829,2018_Nov_28_1540,59.9872635979,spanish_cond1,001,1061,
images\gluestick.jpg,squirrel,x,sounds\animalfarm_spanish.wav,,,,,,,,,0,0,0,1,0,111,111,226,304.840837176,9.94239235297e-06,306.014430598,1.17360432693,,,,,x,1,1.15053826896,2018_Nov_28_1540,59.9872635979,spanish_cond1,001,1061,
images\50dollarbill.jpg,cherry,x,sounds\animalfarm_spanish.wav,,,,,,,,,0,0,0,1,0,112,112,151,307.136535194,9.30097303353e-06,307.964921593,0.828396341443,,,,,x,1,0.817059434397,2018_Nov_28_1540,59.9872635979,spanish_cond1,001,1061,
images\antelope.jpg,antelope,z,sounds\animalfarm_spanish.wav,,,,,,,,,0,0,0,1,0,113,113,12,309.071689548,8.98021971807e-06,309.798740714,0.72706110857,,,,,z,1,0.717099139903,2018_Nov_28_1540,59.9872635979,spanish_cond1,001,1061,
images\arrow02.jpg,hammer,x,sounds\animalfarm_spanish.wav,,,,,,,,,0,0,0,1,0,114,114,184,310.897547369,8.65952461027e-06,311.582526448,0.684988700959,,,,,x,1,0.66708531676,2018_Nov_28_1540,59.9872635979,spanish_cond1,001,1061,
images\dresser02.jpg,dresser,z,sounds\animalfarm_spanish.wav,,,,,,,,,0,0,0,1,0,115,115,87,312.70736296,8.9802488219e-06,313.366308655,0.658955636987,,,,,z,1,0.650409017719,2018_Nov_28_1540,59.9872635979,spanish_cond1,001,1061,
images\screw03c.jpg,screw,z,sounds\animalfarm_spanish.wav,,,,,,,,,0,0,0,1,0,116,116,84,314.462855176,8.65952461027e-06,315.166777744,0.703932188946,,,,,z,1,0.683754880592,2018_Nov_28_1540,59.9872635979,spanish_cond1,001,1061,
images\flamingo.jpg,flamingo,z,sounds\animalfarm_spanish.wav,,,,,,,,,0,0,0,1,0,117,117,52,316.267372107,9.30097303353e-06,316.967232079,0.699870235578,,,,,x,0,0.683745579649,2018_Nov_28_1540,59.9872635979,spanish_cond1,001,1061,
images\chessknight02b (1).jpg,cockroach,x,sounds\animalfarm_spanish.wav,,,,,,,,,0,0,0,1,0,118,118,155,318.0786441,9.62166814134e-06,318.867716627,0.789083111449,,,,,x,1,0.767101096309,2018_Nov_28_1540,59.9872635979,spanish_cond1,001,1061,
images\puzzle.jpg,puzzle,z,sounds\animalfarm_spanish.wav,,,,,,,,,0,0,0,1,0,119,119,57,319.990990257,9.62169724517e-06,320.868280458,0.877300463966,,,,,z,1,0.867170757265,2018_Nov_28_1540,59.9872635979,spanish_cond1,001,1061,
images\tulip02.jpg,sport shorts,x,sounds\animalfarm_spanish.wav,,,,,,,,,0,0,0,1,0,120,120,225,321.96469837,9.62169724517e-06,322.718707564,0.75401913689,,,,,x,1,0.733759082068,2018_Nov_28_1540,59.9872635979,spanish_cond1,001,1061,
images\charcoalbarbecue.jpg,charcoal barbecue,z,sounds\animalfarm_spanish.wav,,,,,,,,,0,0,0,1,0,121,121,77,323.839413809,8.9802488219e-06,324.785894807,0.946490619826,,,,,z,1,0.933803790831,2018_Nov_28_1540,59.9872635979,spanish_cond1,001,1061,
images\key03b.jpg,cigar,x,sounds\animalfarm_spanish.wav,,,,,,,,,0,0,0,1,0,122,122,153,325.890348427,8.9802488219e-06,326.519689168,0.62935068403,,,,,x,1,0.617074059381,2018_Nov_28_1540,59.9872635979,spanish_cond1,001,1061,
images\dryingmachine01.jpg,drying machine,z,sounds\animalfarm_spanish.wav,,,,,,,,,0,0,0,1,0,123,123,18,327.643758832,9.30097303353e-06,328.553548829,0.909800260299,,,,,z,1,0.900483585719,2018_Nov_28_1540,59.9872635979,spanish_cond1,001,1061,
images\beachumbrella01.jpg,beach umbrella,z,sounds\animalfarm_spanish.wav,,,,,,,,,0,0,0,1,0,124,124,92,329.661911418,8.9802488219e-06,330.454027283,0.792126128712,,,,,z,1,0.783777395322,2018_Nov_28_1540,59.9872635979,spanish_cond1,001,1061,
images\birthdaycandle.jpg,birthday candle,z,sounds\animalfarm_spanish.wav,,,,,,,,,0,0,0,1,0,125,125,55,331.553005525,9.62166814134e-06,332.454549099,0.901553837466,,,,,z,1,0.883806645259,2018_Nov_28_1540,59.9872635979,spanish_cond1,001,1061,
images\parkfountain.jpg,park fountain,z,sounds\animalfarm_spanish.wav,,,,,,,,,0,0,0,1,0,126,126,93,333.577566792,9.3009439297e-06,334.421538391,0.8439821832,,,,,z,1,0.833612575923,2018_Nov_28_1540,59.9872635979,spanish_cond1,001,1061,
images\clothespin02a.jpg,clothes pin,z,sounds\animalfarm_spanish.wav,,,,,,,,,0,0,0,1,0,127,127,79,335.529072233,8.9802488219e-06,336.238996484,0.709935477003,,,,,z,1,0.700578712102,2018_Nov_28_1540,59.9872635979,spanish_cond1,001,1061,
images\blackolive.jpg,tank,x,sounds\animalfarm_spanish.wav,,,,,,,,,0,0,0,1,0,128,128,229,337.356025642,9.3009439297e-06,338.02263629,0.66662123095,,,,,x,1,0.650409338414,2018_Nov_28_1540,59.9872635979,spanish_cond1,001,1061,
images\calculator02b.jpg,dice,x,sounds\animalfarm_spanish.wav,,,,,,,,,0,0,0,1,0,129,129,165,339.126399393,8.65952461027e-06,340.073156213,0.946766120644,,,,,x,1,0.93380218721,2018_Nov_28_1540,59.9872635979,spanish_cond1,001,1061,
images\bottleofredwine02.jpg,pipe,x,sounds\animalfarm_spanish.wav,,,,,,,,,0,0,0,1,0,130,130,213,341.17430703,9.30097303353e-06,341.940296822,0.76599973446,,,,,x,1,0.750423514372,2018_Nov_28_1540,59.9872635979,spanish_cond1,001,1061,
images\envelope02a.jpg,grand piano,x,sounds\animalfarm_spanish.wav,,,,,,,,,0,0,0,1,0,131,131,182,343.066145856,8.65952461027e-06,343.874138779,0.808002545265,,,,,x,1,0.783782206185,2018_Nov_28_1540,59.9872635979,spanish_cond1,001,1061,
images\daisy.jpg,daisy,z,sounds\animalfarm_spanish.wav,,,,,,,,,0,0,0,1,0,132,132,6,344.979087595,8.9802488219e-06,345.591235033,0.612157379946,,,,,z,1,0.600393590925,2018_Nov_28_1540,59.9872635979,spanish_cond1,001,1061,
images\tape01a.jpg,tie,x,sounds\animalfarm_spanish.wav,,,,,,,,,0,0,0,1,0,133,133,232,346.719348368,8.98021971807e-06,347.37504001,0.655701584183,,,,,z,0,0.633752924186,2018_Nov_28_1540,59.9872635979,spanish_cond1,001,1061,
images\magnifyingglass01b.jpg,magnifying glass,z,sounds\animalfarm_spanish.wav,,,,,,,,,0,0,0,1,0,134,134,64,348.484572916,9.62169724517e-06,349.142139503,0.657577491424,,,,,z,1,0.633711550967,2018_Nov_28_1540,59.9872635979,spanish_cond1,001,1061,
images\mailbox01.jpg,mail box,z,sounds\animalfarm_spanish.wav,,,,,,,,,0,0,0,1,0,135,135,73,350.264103622,9.9424214568e-06,350.942606026,0.678513309045,,,,,z,1,0.667074412166,2018_Nov_28_1540,59.9872635979,spanish_cond1,001,1061,
images\parkingmeter.jpg,ear,x,sounds\animalfarm_spanish.wav,,,,,,,,,0,0,0,1,0,136,136,171,352.04766934,9.30097303353e-06,353.026478869,0.978820112388,,,,,x,1,0.967156709608,2018_Nov_28_1540,59.9872635979,spanish_cond1,001,1061,
images\tie01.jpg,bench,x,sounds\animalfarm_spanish.wav,,,,,,,,,0,0,0,1,0,137,137,130,354.127506849,1.02631165646e-05,354.976993596,0.849497651972,,,,,x,1,0.833806613198,2018_Nov_28_1540,59.9872635979,spanish_cond1,001,1061,
images\fryingpan01.jpg,frying pan,z,sounds\animalfarm_spanish.wav,,,,,,,,,0,0,0,1,0,138,138,45,356.07994463,9.30097303353e-06,356.660743666,0.580808657454,,,,,z,1,0.567059274035,2018_Nov_28_1540,59.9872635979,spanish_cond1,001,1061,
images\dreamcatcher.jpg,dream catcher,z,sounds\animalfarm_spanish.wav,,,,,,,,,0,0,0,1,0,139,139,48,357.762178002,8.98021971807e-06,358.8612964,1.09912833976,,,,,z,1,1.08382954483,2018_Nov_28_1540,59.9872635979,spanish_cond1,001,1061,
images\shotglass.jpg,shot glass,z,sounds\animalfarm_spanish.wav,,,,,,,,,0,0,0,1,0,140,140,86,359.972164795,9.94239235297e-06,360.82830686,0.856152327906,,,,,z,1,0.833615141688,2018_Nov_28_1540,59.9872635979,spanish_cond1,001,1061,
images\showerhead01.jpg,skateboard,x,sounds\animalfarm_spanish.wav,,,,,,,,,0,0,0,1,0,141,141,223,361.939411307,9.3009439297e-06,362.628934065,0.689532700548,,,,,x,1,0.667078902276,2018_Nov_28_1540,59.9872635979,spanish_cond1,001,1061,
images\tissuebox03.jpg,tissue box,z,sounds\animalfarm_spanish.wav,,,,,,,,,0,0,0,1,0,142,142,58,363.756763241,9.3009439297e-06,364.429392891,0.672639913682,,,,,z,1,0.650400678918,2018_Nov_28_1540,59.9872635979,spanish_cond1,001,1061,
images\mirror02.jpg,8 ball,x,sounds\animalfarm_spanish.wav,,,,,,,,,0,0,0,1,0,143,143,121,365.534813169,9.94239235297e-06,366.263195656,0.728393390804,,,,,x,1,0.717085348821,2018_Nov_28_1540,59.9872635979,spanish_cond1,001,1061,
images\parkbench03.jpg,park bench,z,sounds\animalfarm_spanish.wav,,,,,,,,,0,0,0,1,0,144,144,71,367.371069142,9.3009439297e-06,368.280386394,0.909327194269,,,,,z,1,0.90047685054,2018_Nov_28_1540,59.9872635979,spanish_cond1,001,1061,
images\backpack01b.jpg,swallow,x,sounds\animalfarm_spanish.wav,,,,,,,,,0,0,0,1,0,145,145,228,369.413006846,8.98021971807e-06,370.681004042,1.26800713799,,,,,x,1,1.25055821793,2018_Nov_28_1540,59.9872635979,spanish_cond1,001,1061,
images\saltshaker03c.jpg,salt shaker,z,sounds\animalfarm_spanish.wav,,,,,,,,,0,0,0,1,0,146,146,63,371.794567791,8.98021971807e-06,372.464807095,0.670249246439,,,,,z,1,0.650413507828,2018_Nov_28_1540,59.9872635979,spanish_cond1,001,1061,
images\safe.jpg,safe,z,sounds\animalfarm_spanish.wav,,,,,,,,,0,0,0,1,0,147,147,78,373.57834679,9.62166814134e-06,374.498636608,0.920300722471,,,,,z,1,0.900463380211,2018_Nov_28_1540,59.9872635979,spanish_cond1,001,1061,
images\boxingglove02a.jpg,bracelet,x,sounds\animalfarm_spanish.wav,,,,,,,,,0,0,0,1,0,148,148,135,375.612410751,9.3009439297e-06,376.415798096,0.80339760831,,,,,x,1,0.783768735826,2018_Nov_28_1540,59.9872635979,spanish_cond1,001,1061,
images\cherry01.jpg,highlighter,x,sounds\animalfarm_spanish.wav,,,,,,,,,0,0,0,1,0,149,149,187,377.526886828,9.30097303353e-06,378.266279725,0.739403160667,,,,,x,1,0.71709881915,2018_Nov_28_1540,59.9872635979,spanish_cond1,001,1061,
images\rhinoceros01.jpg,envelope,x,sounds\animalfarm_spanish.wav,,,,,,,,,0,0,0,1,0,150,150,173,379.381107443,8.98021971807e-06,380.166772612,0.785674790997,,,,,z,0,0.767114887363,2018_Nov_28_1540,59.9872635979,spanish_cond1,001,1061,
images\knife04.jpg,tooth brush,x,sounds\animalfarm_spanish.wav,,,,,,,,,0,0,0,1,0,151,151,233,381.266005828,9.30097303353e-06,382.033902958,0.767907393252,,,,,x,1,0.750430249551,2018_Nov_28_1540,59.9872635979,spanish_cond1,001,1061,
images\teapot.jpg,light switch,x,sounds\animalfarm_spanish.wav,,,,,,,,,0,0,0,1,0,152,152,197,383.153239717,9.3009439297e-06,384.234466276,1.08123714302,,,,,x,1,1.06715645303,2018_Nov_28_1540,59.9872635979,spanish_cond1,001,1061,
images\remotecontrol01c.jpg,remote control,z,sounds\animalfarm_spanish.wav,,,,,,,,,0,0,0,1,0,153,153,85,385.346582282,9.30097303353e-06,386.101604319,0.75503165854,,,,,z,1,0.733748498198,2018_Nov_28_1540,59.9872635979,spanish_cond1,001,1061,
images\licenseplate.jpg,license plate,z,sounds\animalfarm_spanish.wav,,,,,,,,,0,0,0,1,0,154,154,40,387.221308626,9.3009439297e-06,387.90206988,0.680770876323,,,,,z,1,0.667071846401,2018_Nov_28_1540,59.9872635979,spanish_cond1,001,1061,
images\barrel01.jpg,barrel,z,sounds\animalfarm_spanish.wav,,,,,,,,,0,0,0,1,0,155,155,9,389.089470737,9.30097303353e-06,389.786118351,0.696657235298,,,,,z,1,0.683975858556,2018_Nov_28_1540,59.9872635979,spanish_cond1,001,1061,
images\beermug01b.jpg,beer mug,z,sounds\animalfarm_spanish.wav,,,,,,,,,0,0,0,1,0,156,156,111,390.905057413,9.3009439297e-06,391.502992664,0.59794487289,,,,,z,1,0.583716971159,2018_Nov_28_1540,59.9872635979,spanish_cond1,001,1061,
images\squirrel.jpg,binder,x,sounds\animalfarm_spanish.wav,,,,,,,,,0,0,0,1,0,157,157,132,392.608622053,9.62169724517e-06,393.353480066,0.74486891742,,,,,x,1,0.733763892902,2018_Nov_28_1540,59.9872635979,spanish_cond1,001,1061,
images\triangleruler02.jpg,bottle of red wine,x,sounds\animalfarm_spanish.wav,,,,,,,,,0,0,0,1,0,158,158,134,394.467461396,9.3009439297e-06,395.270634819,0.803183365497,,,,,x,1,0.783756869088,2018_Nov_28_1540,59.9872635979,spanish_cond1,001,1061,
images\tank.jpg,wallet,x,sounds\animalfarm_spanish.wav,,,,,,,,,0,0,0,1,0,159,159,237,396.377965643,9.3009439297e-06,397.021097783,0.643142723537,,,,,x,1,0.633748434077,2018_Nov_28_1540,59.9872635979,spanish_cond1,001,1061,
images\lychee02a.jpg,lychee,z,sounds\animalfarm_spanish.wav,,,,,,,,,0,0,0,1,0,160,160,62,398.147710777,9.62169724517e-06,399.038259656,0.890559141611,,,,,x,0,0.867123290314,2018_Nov_28_1540,59.9872635979,spanish_cond1,001,1061,
images\kiwi03.jpg,backpack,x,sounds\animalfarm_spanish.wav,,,,,,,,,0,0,0,1,0,161,161,125,400.169324924,9.30097303353e-06,401.005437854,0.83612255202,,,,,x,1,0.81712069246,2018_Nov_28_1540,59.9872635979,spanish_cond1,001,1061,
images\croissant02b.jpg,croissant,z,sounds\animalfarm_spanish.wav,,,,,,,,,0,0,0,1,0,162,162,39,402.11908884,9.30097303353e-06,402.822570413,0.703491836641,,,,,z,1,0.683752314828,2018_Nov_28_1540,59.9872635979,spanish_cond1,001,1061,
images\bracelet02a.jpg,chess knight,x,sounds\animalfarm_spanish.wav,,,,,,,,,0,0,0,1,0,163,163,152,403.933141178,9.30097303353e-06,405.089814552,1.15668363718,,,,,x,1,1.13386068703,2018_Nov_28_1540,59.9872635979,spanish_cond1,001,1061,
images\highheelshoe02a.jpg,high heel shoe,z,sounds\animalfarm_spanish.wav,,,,,,,,,0,0,0,1,0,164,164,75,406.19941962,9.30097303353e-06,406.973639799,0.774229800416,,,,,z,1,0.750442757737,2018_Nov_28_1540,59.9872635979,spanish_cond1,001,1061,
images\leaf01a.jpg,leaf,z,sounds\animalfarm_spanish.wav,,,,,,,,,0,0,0,1,0,165,165,68,408.079246417,8.9802488219e-06,408.807421396,0.728184279578,,,,,z,1,0.717076368572,2018_Nov_28_1540,59.9872635979,spanish_cond1,001,1061,
images\scissors04a.jpg,leek,x,sounds\animalfarm_spanish.wav,,,,,,,,,0,0,0,1,0,166,166,194,409.903635007,8.65949550644e-06,410.674777531,0.771152145084,,,,,x,1,0.750617872342,2018_Nov_28_1540,59.9872635979,spanish_cond1,001,1061,
images\bandaid01.jpg,door handle,x,sounds\animalfarm_spanish.wav,,,,,,,,,0,0,0,1,0,167,167,170,411.784577599,9.9424214568e-06,412.675105951,0.890538294625,,,,,x,1,0.86714477872,2018_Nov_28_1540,59.9872635979,spanish_cond1,001,1061,
images\pingpongpaddle01c (1).jpg,ping pong paddle,z,sounds\animalfarm_spanish.wav,,,,,,,,,0,0,0,1,0,168,168,10,413.789320126,9.9424214568e-06,414.525564488,0.736255267082,,,,,z,1,0.717088556034,2018_Nov_28_1540,59.9872635979,spanish_cond1,001,1061,
images\worldmap.jpg,scooter,x,sounds\animalfarm_spanish.wav,,,,,,,,,0,0,0,1,0,169,169,220,415.659119206,9.3009439297e-06,416.609429954,0.950321011362,,,,,x,1,0.933802828658,2018_Nov_28_1540,59.9872635979,spanish_cond1,001,1061,
images\scooter.jpg,pen,x,sounds\animalfarm_spanish.wav,,,,,,,,,0,0,0,1,0,170,170,212,417.704576842,8.65952461027e-06,418.393050195,0.688483295817,,,,,x,1,0.666898976837,2018_Nov_28_1540,59.9872635979,spanish_cond1,001,1061,
images\basketball01.jpg,basket ball,z,sounds\animalfarm_spanish.wav,,,,,,,,,0,0,0,1,0,171,171,33,419.534705086,9.94239235297e-06,420.11033343,0.575638286333,,,,,z,1,0.567053501029,2018_Nov_28_1540,59.9872635979,spanish_cond1,001,1061,
images\sock03.jpg,sock,z,sounds\animalfarm_spanish.wav,,,,,,,,,0,0,0,1,0,172,172,90,421.217273934,9.30097303353e-06,421.894302617,0.677038946655,,,,,z,1,0.66726075206,2018_Nov_28_1540,59.9872635979,spanish_cond1,001,1061,
images\giraffe.jpg,lettuce,x,sounds\animalfarm_spanish.wav,,,,,,,,,0,0,0,1,0,173,173,195,422.998493886,9.62166814134e-06,423.577889439,0.579405495519,,,,,x,1,0.567056708271,2018_Nov_28_1540,59.9872635979,spanish_cond1,001,1061,
images\fork01.jpg,cooking pot,x,sounds\animalfarm_spanish.wav,,,,,,,,,0,0,0,1,0,174,174,160,424.675913531,9.9424214568e-06,425.461682293,0.7857790259,,,,,x,1,0.767027971509,2018_Nov_28_1540,59.9872635979,spanish_cond1,001,1061,
images\hat05.jpg,hat,z,sounds\animalfarm_spanish.wav,,,,,,,,,0,0,0,1,0,175,175,15,426.566704234,8.98021971807e-06,427.212151671,0.645457058738,,,,,z,1,0.633742340317,2018_Nov_28_1540,59.9872635979,spanish_cond1,001,1061,
images\microphone01.jpg,diaper,x,sounds\animalfarm_spanish.wav,,,,,,,,,0,0,0,1,0,176,176,164,428.311903496,9.62166814134e-06,428.979279708,0.667386475368,,,,,x,1,0.650416073622,2018_Nov_28_1540,59.9872635979,spanish_cond1,001,1061,
images\gorilla.jpg,gorilla,z,sounds\animalfarm_spanish.wav,,,,,,,,,0,0,0,1,0,177,177,80,430.092960521,9.62169724517e-06,430.796399118,0.703449180524,,,,,z,1,0.683755201346,2018_Nov_28_1540,59.9872635979,spanish_cond1,001,1061,
images\leek.jpg,donut,x,sounds\animalfarm_spanish.wav,,,,,,,,,0,0,0,1,0,178,178,169,431.89953585,8.98021971807e-06,432.496846013,0.597319784283,,,,,x,1,0.583733969484,2018_Nov_28_1540,59.9872635979,spanish_cond1,001,1061,
images\ashtray02b.jpg,ashtray,z,sounds\animalfarm_spanish.wav,,,,,,,,,0,0,0,1,0,179,179,43,433.611983869,9.3009439297e-06,434.430669047,0.81869512031,,,,,z,1,0.800452090771,2018_Nov_28_1540,59.9872635979,spanish_cond1,001,1061,
images\flower01.jpg,bus,x,sounds\animalfarm_spanish.wav,,,,,,,,,0,0,0,1,0,180,180,140,435.54776235,8.9802488219e-06,436.247832075,0.700079346803,,,,,x,1,0.683782462729,2018_Nov_28_1540,59.9872635979,spanish_cond1,001,1061,
images\candy.jpg,candy,z,sounds\animalfarm_spanish.wav,,,,,,,,,0,0,0,1,0,181,181,31,437.350794655,8.9802488219e-06,437.948237917,0.597452884249,,,,,z,1,0.583727555,2018_Nov_28_1540,59.9872635979,spanish_cond1,001,1061,
images\cloud.jpg,ceiling fan,x,sounds\animalfarm_spanish.wav,,,,,,,,,0,0,0,1,0,182,182,149,439.056734247,9.62166814134e-06,439.815376602,0.758652618155,,,,,x,1,0.750438588322,2018_Nov_28_1540,59.9872635979,spanish_cond1,001,1061,
images\lamp04b.jpg,parking meter,x,sounds\animalfarm_spanish.wav,,,,,,,,,0,0,0,1,0,183,183,209,440.937791016,9.62169724517e-06,441.782565063,0.844784631481,,,,,x,1,0.833809820382,2018_Nov_28_1540,59.9872635979,spanish_cond1,001,1061,
images\masquerademask02b.jpg,mirror,x,sounds\animalfarm_spanish.wav,,,,,,,,,0,0,0,1,0,184,184,204,442.889174902,8.98021971807e-06,444.099812121,1.21064684002,,,,,x,1,1.20055562005,2018_Nov_28_1540,59.9872635979,spanish_cond1,001,1061,
images\apple06.jpg,apple,z,sounds\animalfarm_spanish.wav,,,,,,,,,0,0,0,1,0,185,185,13,445.229477113,9.3009439297e-06,445.950278035,0.720811184758,,,,,z,1,0.700413860613,2018_Nov_28_1540,59.9872635979,spanish_cond1,001,1061,
images\belt02a.jpg,snowman,x,sounds\animalfarm_spanish.wav,,,,,,,,,0,0,0,1,0,186,186,224,447.054312149,9.30097303353e-06,447.884120954,0.829819388222,,,,,x,1,0.817127748363,2018_Nov_28_1540,59.9872635979,spanish_cond1,001,1061,
images\printer03a.jpg,printer,z,sounds\animalfarm_spanish.wav,,,,,,,,,0,0,0,1,0,187,187,72,448.996011171,9.30097303353e-06,449.784602615,0.788601385924,,,,,z,1,0.767113283771,2018_Nov_28_1540,59.9872635979,spanish_cond1,001,1061,
images\screwdriver02b.jpg,cola,x,sounds\animalfarm_spanish.wav,,,,,,,,,0,0,0,1,0,188,188,158,450.878919793,8.9802488219e-06,451.601793225,0.722884657211,,,,,x,1,0.700474477198,2018_Nov_28_1540,59.9872635979,spanish_cond1,001,1061,
images\rubberglove02a.jpg,lady bug,x,sounds\animalfarm_spanish.wav,,,,,,,,,0,0,0,1,0,189,189,192,452.707174054,9.30097303353e-06,453.402452503,0.695304747525,,,,,x,1,0.683951804356,2018_Nov_28_1540,59.9872635979,spanish_cond1,001,1061,
images\lantern03.jpg,lantern,z,sounds\animalfarm_spanish.wav,,,,,,,,,0,0,0,1,0,190,190,5,454.510166269,9.62169724517e-06,455.336022807,0.82586712201,,,,,z,1,0.817119409563,2018_Nov_28_1540,59.9872635979,spanish_cond1,001,1061,
images\lighter02b.jpg,stapler,x,sounds\animalfarm_spanish.wav,,,,,,,,,0,0,0,1,0,191,191,227,456.439977383,8.98021971807e-06,457.336541737,0.896574296377,,,,,x,1,0.883798947907,2018_Nov_28_1540,59.9872635979,spanish_cond1,001,1061,
images\baseball01a.jpg,baseball,z,sounds\animalfarm_spanish.wav,,,,,,,,,0,0,0,1,0,192,192,74,458.471423605,9.30097303353e-06,459.237022436,0.765608452726,,,,,z,1,0.750436022558,2018_Nov_28_1540,59.9872635979,spanish_cond1,001,1061,
images\weight01.jpg,weight,z,sounds\animalfarm_spanish.wav,,,,,,,,,0,0,0,1,0,193,193,67,460.342988905,9.3009439297e-06,461.254251019,0.911271736171,,,,,z,1,0.900521431002,2018_Nov_28_1540,59.9872635979,spanish_cond1,001,1061,
images\razor04a.jpg,razor,z,sounds\animalfarm_spanish.wav,,,,,,,,,0,0,0,1,0,194,194,36,462.356787038,1.02631165646e-05,463.088005034,0.731228900462,,,,,z,1,0.717091763276,2018_Nov_28_1540,59.9872635979,spanish_cond1,001,1061,
images\ear.jpg,bullet,x,sounds\animalfarm_spanish.wav,,,,,,,,,0,0,0,1,0,195,195,139,464.19448049,9.3009439297e-06,464.971855939,0.777386994945,,,,,x,1,0.76713124424,2018_Nov_28_1540,59.9872635979,spanish_cond1,001,1061,
images\bench02.jpg,electric toothbrush,x,sounds\animalfarm_spanish.wav,,,,,,,,,0,0,0,1,0,196,196,172,466.083302277,8.9802488219e-06,467.089040648,1.00574927565,,,,,x,1,0.983838781656,2018_Nov_28_1540,59.9872635979,spanish_cond1,001,1061,
images\radish01.jpg,raisin,x,sounds\animalfarm_spanish.wav,,,,,,,,,0,0,0,1,0,197,197,214,468.202824413,9.3009439297e-06,469.356283503,1.15346903325,,,,,x,1,1.13386581859,2018_Nov_28_1540,59.9872635979,spanish_cond1,001,1061,
images\thumbtack02a.jpg,thumb tack,z,sounds\animalfarm_spanish.wav,,,,,,,,,0,0,0,1,0,198,198,60,470.469239804,9.30097303353e-06,471.140071483,0.6708422628,,,,,z,1,0.650411262759,2018_Nov_28_1540,59.9872635979,spanish_cond1,001,1061,
images\stapler03a.jpg,candy cane,x,sounds\animalfarm_spanish.wav,,,,,,,,,0,0,0,1,0,199,199,145,472.252258048,8.9802488219e-06,473.007227166,0.754979380727,,,,,x,1,0.733775438945,2018_Nov_28_1540,59.9872635979,spanish_cond1,001,1061,
images\ant.jpg,ant,z,sounds\animalfarm_spanish.wav,,,,,,,,,0,0,0,1,0,200,200,98,474.102652441,9.30097303353e-06,474.774344619,0.671702761872,,,,,z,1,0.650411262759,2018_Nov_28_1540,59.9872635979,spanish_cond1,001,1061,
images\pepper05a.jpg,lighter,x,sounds\animalfarm_spanish.wav,,,,,,,,,0,0,0,1,0,201,201,198,475.898390549,9.62169724517e-06,476.591610278,0.69322967148,,,,,x,1,0.683884452563,2018_Nov_28_1540,59.9872635979,spanish_cond1,001,1061,
images\banana04a.jpg,banana,z,sounds\animalfarm_spanish.wav,,,,,,,,,0,0,0,1,0,202,202,118,477.69918453,8.65949550644e-06,478.391933759,0.692758529767,,,,,z,1,0.683720242552,2018_Nov_28_1540,59.9872635979,spanish_cond1,001,1061,
images\djmixer01.jpg,light bulb,x,sounds\animalfarm_spanish.wav,,,,,,,,,0,0,0,1,0,203,203,196,479.51596237,9.62169724517e-06,480.125717216,0.609765429806,,,,,x,1,0.600401288277,2018_Nov_28_1540,59.9872635979,spanish_cond1,001,1061,
images\battery03b.jpg,battery,z,sounds\animalfarm_spanish.wav,,,,,,,,,0,0,0,1,0,204,204,34,481.237486842,9.3009439297e-06,481.842813149,0.605336569628,,,,,z,1,0.583720178402,2018_Nov_28_1540,59.9872635979,spanish_cond1,001,1061,
images\sportshorts02.jpg,tape,x,sounds\animalfarm_spanish.wav,,,,,,,,,0,0,0,1,0,205,205,230,482.953028873,9.30097303353e-06,483.759983297,0.807015039987,,,,,x,1,0.78377579173,2018_Nov_28_1540,59.9872635979,spanish_cond1,001,1061,
images\lettuce.jpg,mushroom,x,sounds\animalfarm_spanish.wav,,,,,,,,,0,0,0,1,0,206,206,205,484.884402227,9.3009439297e-06,485.527102033,0.642710710003,,,,,x,1,0.633742981794,2018_Nov_28_1540,59.9872635979,spanish_cond1,001,1061,
images\bull.jpg,button,x,sounds\animalfarm_spanish.wav,,,,,,,,,0,0,0,1,0,207,207,141,486.633956583,9.62166814134e-06,487.294215958,0.660269317275,,,,,x,1,0.650400358165,2018_Nov_28_1540,59.9872635979,spanish_cond1,001,1061,
images\marker01a.jpg,marker,z,sounds\animalfarm_spanish.wav,,,,,,,,,0,0,0,1,0,208,208,95,488.395035469,8.9802488219e-06,488.944635239,0.549609391805,,,,,z,1,0.5337012237,2018_Nov_28_1540,59.9872635979,spanish_cond1,001,1061,
images\plant01.jpg,plant,z,sounds\animalfarm_spanish.wav,,,,,,,,,0,0,0,1,0,209,209,47,490.056953301,8.9802488219e-06,490.745093744,0.688150064874,,,,,z,1,0.667072167096,2018_Nov_28_1540,59.9872635979,spanish_cond1,001,1061,
images\carrot02.jpg,corkscrew,x,sounds\animalfarm_spanish.wav,,,,,,,,,0,0,0,1,0,210,210,161,491.850057634,9.9424214568e-06,492.628746763,0.778699392366,,,,,x,1,0.7669346412,2018_Nov_28_1540,59.9872635979,spanish_cond1,001,1061,
images\fireextinguisher02.jpg,fire extinguisher,z,sounds\animalfarm_spanish.wav,,,,,,,,,0,0,0,1,0,211,211,175,493.742174205,9.62169724517e-06,494.379363032,0.637199089921,,,,,z,1,0.617058343953,2018_Nov_28_1540,59.9872635979,spanish_cond1,001,1061,
images\bullet (2).jpg,rubber glove,x,sounds\animalfarm_spanish.wav,,,,,,,,,0,0,0,1,0,212,212,217,495.486790714,8.9802488219e-06,496.24650332,0.759723190626,,,,,x,1,0.750426721585,2018_Nov_28_1540,59.9872635979,spanish_cond1,001,1061,
images\cactus.jpg,cactus,z,sounds\animalfarm_spanish.wav,,,,,,,,,0,0,0,1,0,213,213,70,497.359447113,8.65952461027e-06,498.380387099,1.0209496087,,,,,z,1,1.00049263012,2018_Nov_28_1540,59.9872635979,spanish_cond1,001,1061,
images\pipe.jpg,icecube,x,sounds\animalfarm_spanish.wav,,,,,,,,,0,0,0,1,0,214,214,188,499.491255174,9.62169724517e-06,500.530933707,1.03968879633,,,,,x,1,1.01716604264,2018_Nov_28_1540,59.9872635979,spanish_cond1,001,1061,
images\medal01.jpg,medal,z,sounds\animalfarm_spanish.wav,,,,,,,,,0,0,0,1,0,215,215,115,501.63563685,9.3009439297e-06,502.381406677,0.745779769961,,,,,x,0,0.733754591958,2018_Nov_28_1540,59.9872635979,spanish_cond1,001,1061,
images\dragonfly02.jpg,dragon fly,z,sounds\animalfarm_spanish.wav,,,,,,,,,0,0,0,1,0,216,216,29,503.481759215,8.9802488219e-06,504.165211655,0.683462060755,,,,,z,1,0.667084354558,2018_Nov_28_1540,59.9872635979,spanish_cond1,001,1061,
images\honeycomb.jpg,honey comb,z,sounds\animalfarm_spanish.wav,,,,,,,,,0,0,0,1,0,217,217,59,505.27965258,9.30097303353e-06,505.949019198,0.669377201353,,,,,z,1,0.650425695261,2018_Nov_28_1540,59.9872635979,spanish_cond1,001,1061,
images\volleyball.jpg,volley ball,z,sounds\animalfarm_spanish.wav,,,,,,,,,0,0,0,1,0,218,218,2,507.083606322,9.62166814134e-06,507.732788896,0.649192837096,,,,,z,1,0.633741698897,2018_Nov_28_1540,59.9872635979,spanish_cond1,001,1061,
images\dice05a.jpg,band aid,x,sounds\animalfarm_spanish.wav,,,,,,,,,0,0,0,1,0,219,219,126,508.845898502,8.98021971807e-06,509.483227163,0.637339245732,,,,,x,1,0.617056419636,2018_Nov_28_1540,59.9872635979,spanish_cond1,001,1061,
images\candycane01a.jpg,lip,x,sounds\animalfarm_spanish.wav,,,,,,,,,0,0,0,1,0,220,220,200,510.580029943,9.62166814134e-06,511.150328837,0.570309478178,,,,,x,1,0.550384257891,2018_Nov_28_1540,59.9872635979,spanish_cond1,001,1061,
images\cocktailshrimp01.jpg,cocktail shrimp,z,sounds\animalfarm_spanish.wav,,,,,,,,,0,0,0,1,0,221,221,30,512.267575445,9.62166814134e-06,512.984128394,0.716563212191,,,,,z,1,0.700419312896,2018_Nov_28_1540,59.9872635979,spanish_cond1,001,1061,
images\hairdryer03a.jpg,hairdryer,z,sounds\animalfarm_spanish.wav,,,,,,,,,0,0,0,1,0,222,222,119,514.085157337,9.30097303353e-06,514.751267015,0.666119941336,,,,,z,1,0.650422808772,2018_Nov_28_1540,59.9872635979,spanish_cond1,001,1061,
images\button07.jpg,radish,x,sounds\animalfarm_spanish.wav,,,,,,,,,0,0,0,1,0,223,223,215,515.866080941,9.3009439297e-06,516.618404097,0.752333418204,,,,,x,1,0.73377126953,2018_Nov_28_1540,59.9872635979,spanish_cond1,001,1061,
images\plate01b.jpg,plate,z,sounds\animalfarm_spanish.wav,,,,,,,,,0,0,0,1,0,224,224,3,517.719932084,9.30097303353e-06,518.402181492,0.682259671245,,,,,z,1,0.66707473289,2018_Nov_28_1540,59.9872635979,spanish_cond1,001,1061,
images\electricguitar02.jpg,electric guitar,z,sounds\animalfarm_spanish.wav,,,,,,,,,0,0,0,1,0,225,225,100,519.506833318,9.62166814134e-06,520.252663121,0.745839745097,,,,,z,1,0.733748498198,2018_Nov_28_1540,59.9872635979,spanish_cond1,001,1061,
images\mushroom01.jpg,shower head,x,sounds\animalfarm_spanish.wav,,,,,,,,,0,0,0,1,0,226,226,222,521.371287233,9.62169724517e-06,522.103132563,0.731855592661,,,,,x,1,0.717086310993,2018_Nov_28_1540,59.9872635979,spanish_cond1,001,1061,
images\handfan01b.jpg,handfan,z,sounds\animalfarm_spanish.wav,,,,,,,,,0,0,0,1,0,227,227,69,523.220237091,9.62166814134e-06,523.936934045,0.716706895968,,,,,z,1,0.700419633591,2018_Nov_28_1540,59.9872635979,spanish_cond1,001,1061,
images\cauliflower01.jpg,glue stick,x,sounds\animalfarm_spanish.wav,,,,,,,,,0,0,0,1,0,228,228,181,525.055647318,8.9802488219e-06,525.820760895,0.765123519959,,,,,x,1,0.750434418936,2018_Nov_28_1540,59.9872635979,spanish_cond1,001,1061,
images\crocodile.jpg,triangle ruler,x,sounds\animalfarm_spanish.wav,,,,,,,,,0,0,0,1,0,229,229,235,526.920737547,9.3009439297e-06,527.77126536,0.850537435064,,,,,x,1,0.833801481611,2018_Nov_28_1540,59.9872635979,spanish_cond1,001,1061,
images\globe.jpg,cloud,x,sounds\animalfarm_spanish.wav,,,,,,,,,0,0,0,1,0,230,230,154,528.901925234,8.9802488219e-06,529.921811006,1.01989539308,,,,,x,1,1.00049038505,2018_Nov_28_1540,59.9872635979,spanish_cond1,001,1061,
images\coin01b.jpg,arrow,x,sounds\animalfarm_spanish.wav,,,,,,,,,0,0,0,1,0,231,231,124,531.027124483,9.94239235297e-06,531.77227724,0.745163020154,,,,,x,1,0.733666393207,2018_Nov_28_1540,59.9872635979,spanish_cond1,001,1061,
images\acousticguitar02.jpg,acoustic guitar,z,sounds\animalfarm_spanish.wav,,,,,,,,,0,0,0,1,0,232,232,97,532.887315352,8.9802488219e-06,533.722612043,0.835306954104,,,,,z,1,0.816947181447,2018_Nov_28_1540,59.9872635979,spanish_cond1,001,1061,
images\gps.jpg,gps,z,sounds\animalfarm_spanish.wav,,,,,,,,,0,0,0,1,0,233,233,21,534.843600202,8.98021971807e-06,535.756651629,0.913061369007,,,,,z,1,0.900480057782,2018_Nov_28_1540,59.9872635979,spanish_cond1,001,1061,
images\paintbrush03a.jpg,paint brush,z,sounds\animalfarm_spanish.wav,,,,,,,,,0,0,0,1,0,234,234,0,536.859147878,9.3009439297e-06,537.490411994,0.631274378946,,,,,z,1,0.617061551195,2018_Nov_28_1540,59.9872635979,spanish_cond1,001,1061,
images\wallet01.jpg,lamp,x,sounds\animalfarm_spanish.wav,,,,,,,,,0,0,0,1,0,235,235,193,538.598445842,8.9802488219e-06,539.457824961,0.85938906169,,,,,x,1,0.850695551373,2018_Nov_28_1540,59.9872635979,spanish_cond1,001,1061,
images\panda.jpg,panda,z,sounds\animalfarm_spanish.wav,,,,,,,,,0,0,0,1,0,236,236,83,540.569122163,8.98021971807e-06,541.241369832,0.672257932893,,,,,z,1,0.650407414098,2018_Nov_28_1540,59.9872635979,spanish_cond1,001,1061,
images\handbag02a.jpg,candle,x,sounds\animalfarm_spanish.wav,,,,,,,,,0,0,0,1,0,237,237,144,542.360802166,9.30097303353e-06,543.158540943,0.797749039601,,,,,x,1,0.783785413398,2018_Nov_28_1540,59.9872635979,spanish_cond1,001,1061,
images\notebook02b.jpg,notebook,z,sounds\animalfarm_spanish.wav,,,,,,,,,0,0,0,1,0,238,238,7,544.267446515,9.30097303353e-06,545.092359807,0.824922593572,,,,,z,1,0.800444072695,2018_Nov_28_1540,59.9872635979,spanish_cond1,001,1061,
images\electrictoothbrush01a.jpg,banjo,x,sounds\animalfarm_spanish.wav,,,,,,,,,0,0,0,1,0,239,239,127,546.189779978,8.9802488219e-06,547.042864913,0.85309551956,,,,,x,1,0.833794105012,2018_Nov_28_1540,59.9872635979,spanish_cond1,001,1061,
images\thumbtack02a.jpg,thumb tack,z,sounds\animalfarm_spanish.wav,,,,,,,,,0,0,0,1,1,0,240,60,548.15492319,8.9802488219e-06,548.743296414,0.588383166178,,,,,z,1,0.567053180333,2018_Nov_28_1540,59.9872635979,spanish_cond1,001,1061,
images\binder03b.jpg,dj mixer,x,sounds\animalfarm_spanish.wav,,,,,,,,,0,0,0,1,1,1,241,167,549.857685703,8.9802488219e-06,551.11060412,1.25292803816,,,,,x,1,1.23392168849,2018_Nov_28_1540,59.9872635979,spanish_cond1,001,1061,
images\gorilla.jpg,gorilla,z,sounds\animalfarm_spanish.wav,,,,,,,,,0,0,0,1,1,2,242,80,552.223207946,8.9802488219e-06,552.827679847,0.604481843562,,,,,z,1,0.583730762242,2018_Nov_28_1540,59.9872635979,spanish_cond1,001,1061,
images\honeycomb.jpg,honey comb,z,sounds\animalfarm_spanish.wav,,,,,,,,,0,0,0,1,1,3,243,59,553.942033215,9.30097303353e-06,554.778165389,0.83614211611,,,,,z,1,0.817100486922,2018_Nov_28_1540,59.9872635979,spanish_cond1,001,1061,
images\lock02a.jpg,lock,z,sounds\animalfarm_spanish.wav,,,,,,,,,0,0,0,1,1,4,244,65,555.888416072,9.30097303353e-06,556.645314658,0.756908848678,,,,,z,1,0.733754912682,2018_Nov_28_1540,59.9872635979,spanish_cond1,001,1061,
images\handfan01b.jpg,handfan,z,sounds\animalfarm_spanish.wav,,,,,,,,,0,0,0,1,1,5,245,69,557.761712954,9.62166814134e-06,558.662513735,0.900811685075,,,,,z,1,0.883808569575,2018_Nov_28_1540,59.9872635979,spanish_cond1,001,1061,
images\shotglass.jpg,shot glass,z,sounds\animalfarm_spanish.wav,,,,,,,,,0,0,0,1,1,6,246,86,559.772419321,8.98021971807e-06,560.429619642,0.657209943165,,,,,z,1,0.633734963718,2018_Nov_28_1540,59.9872635979,spanish_cond1,001,1061,
,,,sounds\animalfarm_spanish.wav,,,,,,,,,0,0,0,1,,,,,,,,,,,,,,,,2018_Nov_28_1540,59.9872635979,spanish_cond1,001,1061,
images\candle08a.jpg,screw driver,x,sounds\greatgatsby_english.wav,,,,,,,,,0,1,1,0,0,0,0,221,581.569669316,9.62166814134e-06,582.418595119,0.848936387221,,,,571.432618079,x,1,0.833788652701,2018_Nov_28_1540,59.9872635979,spanish_cond1,001,1061,
images\lion.jpg,lion,z,sounds\greatgatsby_english.wav,,,,,,,,,0,1,1,0,0,1,1,44,583.529963842,8.98021971807e-06,584.119044901,0.589091642672,,,,,z,1,0.567080121022,2018_Nov_28_1540,59.9872635979,spanish_cond1,001,1061,
images\corn01.jpg,corn,z,sounds\greatgatsby_english.wav,,,,,,,,,0,1,1,0,0,2,2,22,585.218245403,8.9802488219e-06,585.902818447,0.68458266597,,,,,z,1,0.667081788793,2018_Nov_28_1540,59.9872635979,spanish_cond1,001,1061,
images\screwdriver02b.jpg,cola,x,sounds\greatgatsby_english.wav,,,,,,,,,0,1,1,0,0,3,3,158,586.996419451,8.65952461027e-06,587.653289429,0.656879919494,,,,,x,1,0.633767035994,2018_Nov_28_1540,59.9872635979,spanish_cond1,001,1061,
images\parkfountain.jpg,park fountain,z,sounds\greatgatsby_english.wav,,,,,,,,,0,1,1,0,0,4,4,93,588.773567829,9.62169724517e-06,589.403712622,0.630155056628,,,,,z,1,0.617064437683,2018_Nov_28_1540,59.9872635979,spanish_cond1,001,1061,
images\broadsword.jpg,teapot,x,sounds\greatgatsby_english.wav,,,,,,,,,0,1,1,0,0,5,5,231,590.496786038,9.30097303353e-06,591.337540467,0.840765654953,,,,,x,1,0.817119409563,2018_Nov_28_1540,59.9872635979,spanish_cond1,001,1061,
images\mirror02.jpg,8 ball,x,sounds\greatgatsby_english.wav,,,,,,,,,0,1,1,0,0,6,6,121,592.438486984,9.30097303353e-06,593.087992847,0.649518370687,,,,,x,1,0.633742340346,2018_Nov_28_1540,59.9872635979,spanish_cond1,001,1061,
images\birthdaycandle.jpg,birthday candle,z,sounds\greatgatsby_english.wav,,,,,,,,,0,1,1,0,0,7,7,55,594.184076565,9.3009439297e-06,594.738411165,0.554345183598,,,,,x,0,0.533705072361,2018_Nov_28_1540,59.9872635979,spanish_cond1,001,1061,
images\sock03.jpg,sock,z,sounds\greatgatsby_english.wav,,,,,,,,,0,1,1,0,0,8,8,90,595.842582549,9.30097303353e-06,596.37216858,0.529596293491,,,,,z,1,0.516998304665,2018_Nov_28_1540,59.9872635979,spanish_cond1,001,1061,
images\cocktailshrimp01.jpg,cocktail shrimp,z,sounds\greatgatsby_english.wav,,,,,,,,,0,1,1,0,0,9,9,30,597.48547126,9.3009439297e-06,598.022580484,0.537119165791,,,,,z,1,0.517037432845,2018_Nov_28_1540,59.9872635979,spanish_cond1,001,1061,
images\eraser.jpg,eraser,z,sounds\greatgatsby_english.wav,,,,,,,,,0,1,1,0,0,10,10,110,599.127757333,8.65949550644e-06,599.689681516,0.561934445548,,,,,z,1,0.550380729954,2018_Nov_28_1540,59.9872635979,spanish_cond1,001,1061,
images\battery03b.jpg,battery,z,sounds\greatgatsby_english.wav,,,,,,,,,0,1,1,0,0,11,11,34,600.796786551,1.02631165646e-05,601.290091784,0.493316138309,,,,,z,1,0.483702795231,2018_Nov_28_1540,59.9872635979,spanish_cond1,001,1061,
images\bench02.jpg,electric toothbrush,x,sounds\greatgatsby_english.wav,,,,,,,,,0,1,1,0,0,12,12,172,602.397100602,8.9802488219e-06,603.707377713,1.31028641181,,,,,x,1,1.30058230419,2018_Nov_28_1540,59.9872635979,spanish_cond1,001,1061,
images\apricot.jpg,apricot,z,sounds\greatgatsby_english.wav,,,,,,,,,0,1,1,0,0,13,13,32,604.822560471,9.3009439297e-06,605.45782881,0.635278281494,,,,,z,1,0.617066041304,2018_Nov_28_1540,59.9872635979,spanish_cond1,001,1061,
images\cupcake.jpg,scissors,x,sounds\greatgatsby_english.wav,,,,,,,,,0,1,1,0,0,14,14,219,606.575590819,9.3009439297e-06,607.174948155,0.599367598916,,,,,x,1,0.583744232601,2018_Nov_28_1540,59.9872635979,spanish_cond1,001,1061,
images\plant01.jpg,plant,z,sounds\greatgatsby_english.wav,,,,,,,,,0,1,1,0,0,15,15,47,608.284939053,8.98021971807e-06,608.925393799,0.640464368014,,,,,z,1,0.617055457435,2018_Nov_28_1540,59.9872635979,spanish_cond1,001,1061,
images\bicycle.jpg,hand bag,x,sounds\greatgatsby_english.wav,,,,,,,,,0,1,1,0,0,16,16,186,610.033494037,8.9802488219e-06,610.742516095,0.70903200109,,,,,x,1,0.700426689524,2018_Nov_28_1540,59.9872635979,spanish_cond1,001,1061,
images\dryingmachine01.jpg,drying machine,z,sounds\greatgatsby_english.wav,,,,,,,,,0,1,1,0,0,17,17,18,611.861898076,9.62169724517e-06,612.676353241,0.814465749718,,,,,z,1,0.800456901605,2018_Nov_28_1540,59.9872635979,spanish_cond1,001,1061,
images\banjo.jpg,knife,x,sounds\greatgatsby_english.wav,,,,,,,,,0,1,1,0,0,18,18,191,613.771368633,9.3009439297e-06,614.426788943,0.655430573446,,,,,x,1,0.633736888063,2018_Nov_28_1540,59.9872635979,spanish_cond1,001,1061,
images\plate01b.jpg,plate,z,sounds\greatgatsby_english.wav,,,,,,,,,0,1,1,0,0,19,19,3,615.524783528,9.30097303353e-06,616.07722426,0.552450995165,,,,,z,1,0.53371854272,2018_Nov_28_1540,59.9872635979,spanish_cond1,001,1061,
images\comb02a.jpg,diploma,x,sounds\greatgatsby_english.wav,,,,,,,,,0,1,1,0,0,20,20,166,617.179986389,9.62169724517e-06,617.944362945,0.764387461299,,,,,x,1,0.75043762615,2018_Nov_28_1540,59.9872635979,spanish_cond1,001,1061,
images\pictureframe04.jpg,picture frame,z,sounds\greatgatsby_english.wav,,,,,,,,,0,1,1,0,0,21,21,41,619.065196837,9.3009439297e-06,619.678155062,0.612967525551,,,,,z,1,0.600416041532,2018_Nov_28_1540,59.9872635979,spanish_cond1,001,1061,
images\lip.jpg,boxing glove,x,sounds\greatgatsby_english.wav,,,,,,,,,0,1,1,0,0,22,22,136,620.7791375,8.98021971807e-06,621.411912861,0.632785303722,,,,,x,1,0.617066682753,2018_Nov_28_1540,59.9872635979,spanish_cond1,001,1061,
images\pingpongpaddle01c (1).jpg,ping pong paddle,z,sounds\greatgatsby_english.wav,,,,,,,,,0,1,1,0,0,23,23,10,622.521703949,9.62169724517e-06,623.16237839,0.640685346007,,,,,z,1,0.617087850434,2018_Nov_28_1540,59.9872635979,spanish_cond1,001,1061,
images\key03b.jpg,cigar,x,sounds\greatgatsby_english.wav,,,,,,,,,0,1,1,0,0,24,24,153,624.263465383,9.62166814134e-06,624.879469512,0.61601471217,,,,,x,1,0.600395194546,2018_Nov_28_1540,59.9872635979,spanish_cond1,001,1061,
images\marker01a.jpg,marker,z,sounds\greatgatsby_english.wav,,,,,,,,,0,1,1,0,0,25,25,95,625.97644035,9.3009439297e-06,626.546563488,0.570133401401,,,,,z,1,0.550384257891,2018_Nov_28_1540,59.9872635979,spanish_cond1,001,1061,
images\gorilla.jpg,gorilla,z,sounds\greatgatsby_english.wav,,,,,,,,,0,1,1,0,0,26,26,80,627.655628459,8.9802488219e-06,628.230328311,0.574709794048,,,,,z,1,0.550382975023,2018_Nov_28_1540,59.9872635979,spanish_cond1,001,1061,
images\arrow02.jpg,hammer,x,sounds\greatgatsby_english.wav,,,,,,,,,0,1,1,0,0,27,27,184,629.326599973,8.9802488219e-06,629.980777483,0.654187131469,,,,,x,1,0.633741057449,2018_Nov_28_1540,59.9872635979,spanish_cond1,001,1061,
images\grandpiano.jpg,tulip,x,sounds\greatgatsby_english.wav,,,,,,,,,0,1,1,0,0,28,28,236,631.093883882,9.3009439297e-06,632.031303821,0.937429881975,,,,,x,1,0.917147376575,2018_Nov_28_1540,59.9872635979,spanish_cond1,001,1061,
images\screw03c.jpg,screw,z,sounds\greatgatsby_english.wav,,,,,,,,,0,1,1,0,0,29,29,84,633.123447461,9.62169724517e-06,633.748409055,0.62497217732,,,,,z,1,0.6170747008,2018_Nov_28_1540,59.9872635979,spanish_cond1,001,1061,
images\worldmap.jpg,scooter,x,sounds\greatgatsby_english.wav,,,,,,,,,0,1,1,0,0,30,30,220,634.877521763,9.62169724517e-06,635.682246201,0.804735342826,,,,,x,1,0.783784771949,2018_Nov_28_1540,59.9872635979,spanish_cond1,001,1061,
images\watermelon01.jpg,orange,x,sounds\greatgatsby_english.wav,,,,,,,,,0,1,1,0,0,31,31,207,636.810047153,8.98021971807e-06,637.432695373,0.622658483539,,,,,x,1,0.600380120595,2018_Nov_28_1540,59.9872635979,spanish_cond1,001,1061,
images\gps.jpg,gps,z,sounds\greatgatsby_english.wav,,,,,,,,,0,1,1,0,0,32,32,21,638.549547172,8.9802488219e-06,639.11645763,0.566920080397,,,,,z,1,0.550378805608,2018_Nov_28_1540,59.9872635979,spanish_cond1,001,1061,
images\fryingpan01.jpg,frying pan,z,sounds\greatgatsby_english.wav,,,,,,,,,0,1,1,0,0,33,33,45,640.215681866,8.9802488219e-06,640.766863441,0.551191517006,,,,,z,1,0.533698978601,2018_Nov_28_1540,59.9872635979,spanish_cond1,001,1061,
images\coin01b.jpg,arrow,x,sounds\greatgatsby_english.wav,,,,,,,,,0,1,1,0,0,34,34,124,641.868159866,8.65949550644e-06,642.4839799,0.615830296621,,,,,x,1,0.600390704436,2018_Nov_28_1540,59.9872635979,spanish_cond1,001,1061,
images\lemon02.jpg,lemon,z,sounds\greatgatsby_english.wav,,,,,,,,,0,1,1,0,0,35,35,14,643.59445124,9.94239235297e-06,644.101065184,0.506624527974,,,,,z,1,0.48370953041,2018_Nov_28_1540,59.9872635979,spanish_cond1,001,1061,
images\triangleruler02.jpg,bottle of red wine,x,sounds\greatgatsby_english.wav,,,,,,,,,0,1,1,0,0,36,36,134,645.210040674,9.3009439297e-06,645.884852201,0.674822111148,,,,,x,1,0.650410621311,2018_Nov_28_1540,59.9872635979,spanish_cond1,001,1061,
images\fireextinguisher02.jpg,fire extinguisher,z,sounds\greatgatsby_english.wav,,,,,,,,,0,1,1,0,0,37,37,175,646.993961432,9.3009439297e-06,647.601960321,0.608009793592,,,,,z,1,0.583729800099,2018_Nov_28_1540,59.9872635979,spanish_cond1,001,1061,
images\computermouse02a.jpg,world map,x,sounds\greatgatsby_english.wav,,,,,,,,,0,1,1,0,0,38,38,239,648.702109201,8.9802488219e-06,649.485780758,0.783681819972,,,,,x,1,0.767110397253,2018_Nov_28_1540,59.9872635979,spanish_cond1,001,1061,
images\thumbtack02a.jpg,thumb tack,z,sounds\greatgatsby_english.wav,,,,,,,,,0,1,1,0,0,39,39,60,650.594541363,8.9802488219e-06,651.186209051,0.591677950782,,,,,z,1,0.583724027092,2018_Nov_28_1540,59.9872635979,spanish_cond1,001,1061,
images\mattress.jpg,cat,x,sounds\greatgatsby_english.wav,,,,,,,,,0,1,1,0,0,40,40,147,652.288397727,8.65952461027e-06,652.903315567,0.614927141432,,,,,x,1,0.600392949505,2018_Nov_28_1540,59.9872635979,spanish_cond1,001,1061,
images\rhinoceros01.jpg,envelope,x,sounds\greatgatsby_english.wav,,,,,,,,,0,1,1,0,0,41,41,173,654.014132326,9.62166814134e-06,654.670442001,0.656319616857,,,,,x,1,0.63374650976,2018_Nov_28_1540,59.9872635979,spanish_cond1,001,1061,
images\medal01.jpg,medal,z,sounds\greatgatsby_english.wav,,,,,,,,,0,1,1,0,0,42,42,115,655.77050621,9.30097303353e-06,656.204160864,0.433665238612,,,,,z,1,0.417016842432,2018_Nov_28_1540,59.9872635979,spanish_cond1,001,1061,
images\flashlight05.jpg,flash light,z,sounds\greatgatsby_english.wav,,,,,,,,,0,1,1,0,0,43,43,8,657.305122134,9.3009439297e-06,657.804581075,0.499468562426,,,,,x,0,0.483680986072,2018_Nov_28_1540,59.9872635979,spanish_cond1,001,1061,
images\hat05.jpg,hat,z,sounds\greatgatsby_english.wav,,,,,,,,,0,1,1,0,0,44,44,15,658.906646273,8.98021971807e-06,659.43832983,0.531693178666,,,,,z,1,0.517044809443,2018_Nov_28_1540,59.9872635979,spanish_cond1,001,1061,
images\ear.jpg,bullet,x,sounds\greatgatsby_english.wav,,,,,,,,,0,1,1,0,0,45,45,139,660.540440891,9.62169724517e-06,661.105418675,0.5649886881,,,,,x,1,0.550381050678,2018_Nov_28_1540,59.9872635979,spanish_cond1,001,1061,
images\cake.jpg,cake,z,sounds\greatgatsby_english.wav,,,,,,,,,0,1,1,0,0,46,46,23,662.218052969,9.3009439297e-06,662.822513966,0.604471259692,,,,,z,1,0.583719536953,2018_Nov_28_1540,59.9872635979,spanish_cond1,001,1061,
images\flipflop01b.jpg,flip flop,z,sounds\greatgatsby_english.wav,,,,,,,,,0,1,1,0,0,47,47,27,663.937445597,9.3009439297e-06,664.639649412,0.702213756565,,,,,z,1,0.683739806642,2018_Nov_28_1540,59.9872635979,spanish_cond1,001,1061,
images\teapot.jpg,light switch,x,sounds\greatgatsby_english.wav,,,,,,,,,0,1,1,0,0,48,48,197,665.754914595,9.30097303353e-06,666.390368632,0.635480016092,,,,,x,1,0.617252381198,2018_Nov_28_1540,59.9872635979,spanish_cond1,001,1061,
images\redfox.jpg,red fox,z,sounds\greatgatsby_english.wav,,,,,,,,,0,1,1,0,0,49,49,1,667.501341262,9.62166814134e-06,668.10720959,0.605879553215,,,,,z,1,0.583727234305,2018_Nov_28_1540,59.9872635979,spanish_cond1,001,1061,
images\daisy.jpg,daisy,z,sounds\greatgatsby_english.wav,,,,,,,,,0,1,1,0,0,50,50,6,669.207585862,9.3009439297e-06,669.924348564,0.716772323416,,,,,z,1,0.700422520109,2018_Nov_28_1540,59.9872635979,spanish_cond1,001,1061,
images\straw.jpg,straw,z,sounds\greatgatsby_english.wav,,,,,,,,,0,1,1,0,0,51,51,109,671.013891784,8.98021971807e-06,671.591453766,0.57757192367,,,,,z,1,0.567068575008,2018_Nov_28_1540,59.9872635979,spanish_cond1,001,1061,
images\globe.jpg,cloud,x,sounds\greatgatsby_english.wav,,,,,,,,,0,1,1,0,0,52,52,154,672.717694081,9.3009439297e-06,673.308545208,0.59086106997,,,,,x,1,0.567055746098,2018_Nov_28_1540,59.9872635979,spanish_cond1,001,1061,
images\panda.jpg,panda,z,sounds\greatgatsby_english.wav,,,,,,,,,0,1,1,0,0,53,53,83,674.416001434,9.62166814134e-06,674.925635945,0.50964445321,,,,,z,1,0.500384546554,2018_Nov_28_1540,59.9872635979,spanish_cond1,001,1061,
images\barrel01.jpg,barrel,z,sounds\greatgatsby_english.wav,,,,,,,,,0,1,1,0,0,54,54,9,676.054152109,8.98021971807e-06,676.659425175,0.605283008947,,,,,z,1,0.583742949704,2018_Nov_28_1540,59.9872635979,spanish_cond1,001,1061,
images\candy.jpg,candy,z,sounds\greatgatsby_english.wav,,,,,,,,,0,1,1,0,0,55,55,31,677.76020684,8.98021971807e-06,678.226309655,0.466113077855,,,,,x,0,0.450184704212,2018_Nov_28_1540,59.9872635979,spanish_cond1,001,1061,
images\masquerademask02b.jpg,mirror,x,sounds\greatgatsby_english.wav,,,,,,,,,0,1,1,0,0,56,56,204,679.330391878,8.9802488219e-06,679.810217777,0.479835199832,,,,,z,0,0.46703708003,2018_Nov_28_1540,59.9872635979,spanish_cond1,001,1061,
images\shotglass.jpg,shot glass,z,sounds\greatgatsby_english.wav,,,,,,,,,0,1,1,0,0,57,57,86,680.917241348,8.9802488219e-06,681.510646712,0.593415305804,,,,,z,1,0.583731082996,2018_Nov_28_1540,59.9872635979,spanish_cond1,001,1061,
images\belt02a.jpg,snowman,x,sounds\greatgatsby_english.wav,,,,,,,,,0,1,1,0,0,58,58,224,682.612220883,9.3009439297e-06,683.294442388,0.682231768355,,,,,x,1,0.66708371311,2018_Nov_28_1540,59.9872635979,spanish_cond1,001,1061,
images\razor04a.jpg,razor,z,sounds\greatgatsby_english.wav,,,,,,,,,0,1,1,0,0,59,59,36,684.392039598,9.3009439297e-06,685.028225845,0.636195869214,,,,,z,1,0.617073417932,2018_Nov_28_1540,59.9872635979,spanish_cond1,001,1061,
images\swan.jpg,swan,z,sounds\greatgatsby_english.wav,,,,,,,,,0,1,1,0,0,60,60,54,686.118531103,8.65949550644e-06,686.711989385,0.593467904313,,,,,z,1,0.583736214525,2018_Nov_28_1540,59.9872635979,spanish_cond1,001,1061,
images\tank.jpg,wallet,x,sounds\greatgatsby_english.wav,,,,,,,,,0,1,1,0,0,61,61,237,687.814897763,8.9802488219e-06,688.562467487,0.747579345218,,,,,x,1,0.733773835324,2018_Nov_28_1540,59.9872635979,spanish_cond1,001,1061,
images\crocodile.jpg,triangle ruler,x,sounds\greatgatsby_english.wav,,,,,,,,,0,1,1,0,0,62,62,235,689.658713812,9.62169724517e-06,690.562975191,0.904271321167,,,,,x,1,0.883803117293,2018_Nov_28_1540,59.9872635979,spanish_cond1,001,1061,
images\rubberglove02a.jpg,lady bug,x,sounds\greatgatsby_english.wav,,,,,,,,,0,1,1,0,0,63,63,192,691.665607106,9.62166814134e-06,692.213409866,0.547813023761,,,,,x,1,0.533728485112,2018_Nov_28_1540,59.9872635979,spanish_cond1,001,1061,
images\cauliflower01.jpg,glue stick,x,sounds\greatgatsby_english.wav,,,,,,,,,0,1,1,0,0,64,64,181,693.327590045,8.9802488219e-06,693.980512245,0.652931822697,,,,,x,1,0.633738812379,2018_Nov_28_1540,59.9872635979,spanish_cond1,001,1061,
images\mushroom01.jpg,shower head,x,sounds\greatgatsby_english.wav,,,,,,,,,0,1,1,0,0,65,65,222,695.095350226,8.98021971807e-06,695.697452307,0.60211234403,,,,,x,1,0.583549553907,2018_Nov_28_1540,59.9872635979,spanish_cond1,001,1061,
images\scissors04a.jpg,leek,x,sounds\greatgatsby_english.wav,,,,,,,,,0,1,1,0,0,66,66,194,696.790282294,8.9802488219e-06,697.514752604,0.724480573495,,,,,x,1,0.700414822786,2018_Nov_28_1540,59.9872635979,spanish_cond1,001,1061,
images\hand01a.jpg,cupcake,x,sounds\greatgatsby_english.wav,,,,,,,,,0,1,1,0,0,67,67,163,698.624886865,9.3009439297e-06,699.315217845,0.690340921836,,,,,x,1,0.667089486116,2018_Nov_28_1540,59.9872635979,spanish_cond1,001,1061,
images\ladybug03.jpg,giraffe,x,sounds\greatgatsby_english.wav,,,,,,,,,0,1,1,0,0,68,68,178,700.41657649,8.98021971807e-06,701.082338505,0.665772598586,,,,,x,1,0.650410300586,2018_Nov_28_1540,59.9872635979,spanish_cond1,001,1061,
images\button07.jpg,radish,x,sounds\greatgatsby_english.wav,,,,,,,,,0,1,1,0,0,69,69,215,702.19301158,8.9802488219e-06,702.882791879,0.68979056165,,,,,x,1,0.667077940103,2018_Nov_28_1540,59.9872635979,spanish_cond1,001,1061,
images\toucan.jpg,toucan,z,sounds\greatgatsby_english.wav,,,,,,,,,0,1,1,0,0,70,70,81,703.981798023,9.62169724517e-06,704.433027642,0.451239882008,,,,,z,1,0.433523479151,2018_Nov_28_1540,59.9872635979,spanish_cond1,001,1061,
images\drink.jpg,drink,z,sounds\greatgatsby_english.wav,,,,,,,,,0,1,1,0,0,71,71,117,705.531542439,8.65952461027e-06,706.216986245,0.685453107435,,,,,z,1,0.667089486145,2018_Nov_28_1540,59.9872635979,spanish_cond1,001,1061,
images\highlighter03b.jpg,coin,x,sounds\greatgatsby_english.wav,,,,,,,,,0,1,1,0,0,72,72,156,707.317095035,9.3009439297e-06,707.800720536,0.483635122713,,,,,z,0,0.467029061954,2018_Nov_28_1540,59.9872635979,spanish_cond1,001,1061,
images\lychee02a.jpg,lychee,z,sounds\greatgatsby_english.wav,,,,,,,,,0,1,1,0,0,73,73,62,708.923032318,8.9802488219e-06,709.784394145,0.861371769628,,,,,z,1,0.85029079931,2018_Nov_28_1540,59.9872635979,spanish_cond1,001,1061,
images\grasshopper.jpg,cauliflower,x,sounds\greatgatsby_english.wav,,,,,,,,,0,1,1,0,0,74,74,148,710.876407251,9.30097303353e-06,711.568448966,0.692051656893,,,,,x,1,0.683853663184,2018_Nov_28_1540,59.9872635979,spanish_cond1,001,1061,
images\radio03a.jpg,radio,z,sounds\greatgatsby_english.wav,,,,,,,,,0,1,1,0,0,75,75,37,712.680618854,8.65949550644e-06,713.318804487,0.638195896143,,,,,z,1,0.61708079456,2018_Nov_28_1540,59.9872635979,spanish_cond1,001,1061,
images\mitten01.jpg,mitten,z,sounds\greatgatsby_english.wav,,,,,,,,,0,1,1,0,0,76,76,102,714.438151829,8.98021971807e-06,715.15262008,0.714477873,,,,,z,1,0.700438556261,2018_Nov_28_1540,59.9872635979,spanish_cond1,001,1061,
images\dice05a.jpg,band aid,x,sounds\greatgatsby_english.wav,,,,,,,,,0,1,1,0,0,77,77,126,716.263430104,9.62169724517e-06,716.969735,0.706315158837,,,,,x,1,0.683752956247,2018_Nov_28_1540,59.9872635979,spanish_cond1,001,1061,
images\aquarium.jpg,computer mouse,x,sounds\greatgatsby_english.wav,,,,,,,,,0,1,1,0,0,78,78,159,718.104907443,9.62169724517e-06,718.770196712,0.665299211862,,,,,x,1,0.650409338414,2018_Nov_28_1540,59.9872635979,spanish_cond1,001,1061,
images\tape01a.jpg,tie,x,sounds\greatgatsby_english.wav,,,,,,,,,0,1,1,0,0,79,79,232,719.89437927,9.62169724517e-06,720.470633023,0.576264657837,,,,,x,1,0.567052218161,2018_Nov_28_1540,59.9872635979,spanish_cond1,001,1061,
images\tie01.jpg,bench,x,sounds\greatgatsby_english.wav,,,,,,,,,0,1,1,0,0,80,80,130,721.567782825,8.9802488219e-06,722.287771355,0.719999114808,,,,,x,1,0.70041578493,2018_Nov_28_1540,59.9872635979,spanish_cond1,001,1061,
images\seagull.jpg,seagull,z,sounds\greatgatsby_english.wav,,,,,,,,,0,1,1,0,0,81,81,50,723.394049246,9.3009439297e-06,723.988197404,0.594158741063,,,,,z,1,0.583725951408,2018_Nov_28_1540,59.9872635979,spanish_cond1,001,1061,
images\baseball01a.jpg,baseball,z,sounds\greatgatsby_english.wav,,,,,,,,,0,1,1,0,0,82,82,74,725.119091726,9.62166814134e-06,726.138752029,1.01967056643,,,,,z,1,1.00049744095,2018_Nov_28_1540,59.9872635979,spanish_cond1,001,1061,
images\giraffe.jpg,lettuce,x,sounds\greatgatsby_english.wav,,,,,,,,,0,1,1,0,0,83,83,195,727.238771658,8.98021971807e-06,727.989223396,0.750462001073,,,,,x,1,0.733757799171,2018_Nov_28_1540,59.9872635979,spanish_cond1,001,1061,
images\lily.jpg,kiwi,x,sounds\greatgatsby_english.wav,,,,,,,,,0,1,1,0,0,84,84,190,729.087008869,9.30097303353e-06,730.006409964,0.919411358336,,,,,x,1,0.900478133466,2018_Nov_28_1540,59.9872635979,spanish_cond1,001,1061,
images\cockroach02.jpg,belt,x,sounds\greatgatsby_english.wav,,,,,,,,,0,1,1,0,0,85,85,129,731.104347461,9.62169724517e-06,731.856896725,0.752559848479,,,,,x,1,0.733776401088,2018_Nov_28_1540,59.9872635979,spanish_cond1,001,1061,
images\fork01.jpg,cooking pot,x,sounds\greatgatsby_english.wav,,,,,,,,,0,1,1,0,0,86,86,160,732.94930849,9.9424214568e-06,733.640681177,0.691383270721,,,,,x,1,0.667082430213,2018_Nov_28_1540,59.9872635979,spanish_cond1,001,1061,
images\cookingpot.jpg,grasshopper,x,sounds\greatgatsby_english.wav,,,,,,,,,0,1,1,0,0,87,87,183,734.752930604,9.30097303353e-06,735.757885449,1.00496478786,,,,,x,1,0.983831405028,2018_Nov_28_1540,59.9872635979,spanish_cond1,001,1061,
images\elbow.jpg,elbow,z,sounds\greatgatsby_english.wav,,,,,,,,,0,1,1,0,0,88,88,105,736.868371543,9.30097303353e-06,737.641701716,0.773340436281,,,,,z,1,0.750442116288,2018_Nov_28_1540,59.9872635979,spanish_cond1,001,1061,
images\gluestick.jpg,squirrel,x,sounds\greatgatsby_english.wav,,,,,,,,,0,1,1,0,0,89,89,226,738.748414186,8.9802488219e-06,739.358815289,0.610410723952,,,,,x,1,0.600406419835,2018_Nov_28_1540,59.9872635979,spanish_cond1,001,1061,
images\apple06.jpg,apple,z,sounds\greatgatsby_english.wav,,,,,,,,,0,1,1,0,0,90,90,13,740.484793253,9.30097303353e-06,741.159279567,0.674496577587,,,,,z,1,0.650418960111,2018_Nov_28_1540,59.9872635979,spanish_cond1,001,1061,
images\bull.jpg,button,x,sounds\greatgatsby_english.wav,,,,,,,,,0,1,1,0,0,91,91,141,742.263806312,9.62169724517e-06,742.809689547,0.545893818984,,,,,x,1,0.533706034534,2018_Nov_28_1540,59.9872635979,spanish_cond1,001,1061,
images\bandaid01.jpg,door handle,x,sounds\greatgatsby_english.wav,,,,,,,,,0,1,1,0,0,92,92,170,743.915010401,9.62169724517e-06,744.610151259,0.695151762804,,,,,x,1,0.683739485918,2018_Nov_28_1540,59.9872635979,spanish_cond1,001,1061,
images\carrot02.jpg,corkscrew,x,sounds\greatgatsby_english.wav,,,,,,,,,0,1,1,0,0,93,93,161,745.710981354,8.98021971807e-06,746.343949149,0.632977737347,,,,,x,1,0.617083681049,2018_Nov_28_1540,59.9872635979,spanish_cond1,001,1061,
images\bed.jpg,bed,z,sounds\greatgatsby_english.wav,,,,,,,,,0,1,1,0,0,94,94,103,747.462066198,8.9802488219e-06,748.111046076,0.648989498906,,,,,z,1,0.633739453828,2018_Nov_28_1540,59.9872635979,spanish_cond1,001,1061,
images\ladder.jpg,ladder,z,sounds\greatgatsby_english.wav,,,,,,,,,0,1,1,0,0,95,95,113,749.20255244,3.14308272209e-05,749.911516127,0.708989986393,,,,,x,0,0.700429896737,2018_Nov_28_1540,59.9872635979,spanish_cond1,001,1061,
images\boxingglove02a.jpg,bracelet,x,sounds\greatgatsby_english.wav,,,,,,,,,0,1,1,0,0,96,96,135,751.021413374,9.62169724517e-06,751.595275177,0.573872066278,,,,,x,1,0.550386182236,2018_Nov_28_1540,59.9872635979,spanish_cond1,001,1061,
images\eyedrops.jpg,bicycle,x,sounds\greatgatsby_english.wav,,,,,,,,,0,1,1,0,0,97,97,131,752.694212045,8.9802488219e-06,753.329053182,0.634851720271,,,,,x,1,0.617066362029,2018_Nov_28_1540,59.9872635979,spanish_cond1,001,1061,
images\cactus.jpg,cactus,z,sounds\greatgatsby_english.wav,,,,,,,,,0,1,1,0,0,98,98,70,754.439805796,9.30097303353e-06,755.529616499,1.08982096615,,,,,z,1,1.06718082799,2018_Nov_28_1540,59.9872635979,spanish_cond1,001,1061,
images\ashtray02b.jpg,ashtray,z,sounds\greatgatsby_english.wav,,,,,,,,,0,1,1,0,0,99,99,43,756.642452528,9.30097303353e-06,757.513459771,0.871017184982,,,,,z,1,0.850458537287,2018_Nov_28_1540,59.9872635979,spanish_cond1,001,1061,
images\croissant02b.jpg,croissant,z,sounds\greatgatsby_english.wav,,,,,,,,,0,1,1,0,0,100,100,39,758.623111985,9.3009439297e-06,759.313926936,0.690825533879,,,,,z,1,0.667085958179,2018_Nov_28_1540,59.9872635979,spanish_cond1,001,1061,
images\calculator02b.jpg,dice,x,sounds\greatgatsby_english.wav,,,,,,,,,0,1,1,0,0,101,101,165,760.414312829,9.62169724517e-06,761.264460265,0.850202921283,,,,,x,1,0.833792822115,2018_Nov_28_1540,59.9872635979,spanish_cond1,001,1061,
images\clothespin02a.jpg,clothes pin,z,sounds\greatgatsby_english.wav,,,,,,,,,0,1,1,0,0,102,102,79,762.368386296,9.3009439297e-06,763.148243177,0.779866823083,,,,,z,1,0.767048818467,2018_Nov_28_1540,59.9872635979,spanish_cond1,001,1061,
images\lightswitch02a.jpg,fork,x,sounds\greatgatsby_english.wav,,,,,,,,,0,1,1,0,0,103,103,177,764.258651656,8.98021971807e-06,764.965374133,0.706732739811,,,,,x,1,0.683758729283,2018_Nov_28_1540,59.9872635979,spanish_cond1,001,1061,
images\basketball01.jpg,basket ball,z,sounds\greatgatsby_english.wav,,,,,,,,,0,1,1,0,0,104,104,33,766.103064891,9.3009439297e-06,766.749175582,0.646121596248,,,,,z,1,0.633740736725,2018_Nov_28_1540,59.9872635979,spanish_cond1,001,1061,
images\hairband.jpg,hairband,z,sounds\greatgatsby_english.wav,,,,,,,,,0,1,1,0,0,105,105,66,767.857326815,8.9802488219e-06,768.51628181,0.658964617236,,,,,z,1,0.650412224932,2018_Nov_28_1540,59.9872635979,spanish_cond1,001,1061,
images\cloud.jpg,ceiling fan,x,sounds\greatgatsby_english.wav,,,,,,,,,0,1,1,0,0,106,106,149,769.62061099,8.98021971807e-06,770.416772772,0.796172045928,,,,,x,1,0.783785092673,2018_Nov_28_1540,59.9872635979,spanish_cond1,001,1061,
images\pen03c.jpg,pepper,x,sounds\greatgatsby_english.wav,,,,,,,,,0,1,1,0,0,107,107,211,771.50907934,9.3009439297e-06,772.317259245,0.808189847332,,,,,x,1,0.783789903508,2018_Nov_28_1540,59.9872635979,spanish_cond1,001,1061,
images\pipe.jpg,icecube,x,sounds\greatgatsby_english.wav,,,,,,,,,0,1,1,0,0,108,108,188,773.424957296,8.98021971807e-06,774.234414639,0.809467285959,,,,,x,1,0.80043990328,2018_Nov_28_1540,59.9872635979,spanish_cond1,001,1061,
images\hairdryer03a.jpg,hairdryer,z,sounds\greatgatsby_english.wav,,,,,,,,,0,1,1,0,0,109,109,119,775.331897992,9.3009439297e-06,776.168237994,0.836350265134,,,,,z,1,0.817115881597,2018_Nov_28_1540,59.9872635979,spanish_cond1,001,1061,
images\lipstick04.jpg,lipstick,z,sounds\greatgatsby_english.wav,,,,,,,,,0,1,1,0,0,110,110,56,777.2666678,9.30097303353e-06,778.052054582,0.785397045111,,,,,z,1,0.76710783146,2018_Nov_28_1540,59.9872635979,spanish_cond1,001,1061,
images\blackolive.jpg,tank,x,sounds\greatgatsby_english.wav,,,,,,,,,0,1,1,0,0,111,111,229,779.16574662,8.9802488219e-06,779.852518539,0.686781861732,,,,,x,1,0.667084996006,2018_Nov_28_1540,59.9872635979,spanish_cond1,001,1061,
images\highheelshoe02a.jpg,high heel shoe,z,sounds\greatgatsby_english.wav,,,,,,,,,0,1,1,0,0,112,112,75,780.958645049,9.62166814134e-06,781.836357321,0.87772253505,,,,,z,1,0.8671274597,2018_Nov_28_1540,59.9872635979,spanish_cond1,001,1061,
images\acousticguitar02.jpg,acoustic guitar,z,sounds\greatgatsby_english.wav,,,,,,,,,0,1,1,0,0,113,113,97,782.949235365,9.62166814134e-06,783.886883018,0.937658236566,,,,,z,1,0.917145131505,2018_Nov_28_1540,59.9872635979,spanish_cond1,001,1061,
images\volleyball.jpg,volley ball,z,sounds\greatgatsby_english.wav,,,,,,,,,0,1,1,0,0,114,114,2,785.01764873,8.9802488219e-06,785.587317405,0.569678937318,,,,,z,1,0.55038040923,2018_Nov_28_1540,59.9872635979,spanish_cond1,001,1061,
images\cheetah.jpg,cheetah,z,sounds\greatgatsby_english.wav,,,,,,,,,0,1,1,0,0,115,115,82,786.68824532,9.3009439297e-06,787.321102144,0.632867088018,,,,,z,1,0.617059626849,2018_Nov_28_1540,59.9872635979,spanish_cond1,001,1061,
images\sportshorts02.jpg,tape,x,sounds\greatgatsby_english.wav,,,,,,,,,0,1,1,0,0,116,116,230,788.427406976,9.3009439297e-06,789.071555807,0.644159735297,,,,,x,1,0.633753886359,2018_Nov_28_1540,59.9872635979,spanish_cond1,001,1061,
images\hammer02a.jpg,flower,x,sounds\greatgatsby_english.wav,,,,,,,,,0,1,1,0,0,117,117,176,790.165285421,9.3009439297e-06,790.822193243,0.656917444023,,,,,x,1,0.633942792047,2018_Nov_28_1540,59.9872635979,spanish_cond1,001,1061,
images\feather03b.jpg,feather,z,sounds\greatgatsby_english.wav,,,,,,,,,0,1,1,0,0,118,118,114,791.920837612,8.9802488219e-06,792.655803574,0.73497590411,,,,,z,1,0.717089197482,2018_Nov_28_1540,59.9872635979,spanish_cond1,001,1061,
images\table02.jpg,table,z,sounds\greatgatsby_english.wav,,,,,,,,,0,1,1,0,0,119,119,49,793.768625812,9.30097303353e-06,794.623209806,0.85459393615,,,,,z,1,0.833972106106,2018_Nov_28_1540,59.9872635979,spanish_cond1,001,1061,
images\leek.jpg,donut,x,sounds\greatgatsby_english.wav,,,,,,,,,0,1,1,0,0,120,120,169,795.722315695,9.62166814134e-06,796.556794222,0.834488790424,,,,,x,1,0.817105939204,2018_Nov_28_1540,59.9872635979,spanish_cond1,001,1061,
images\tissuebox03.jpg,tissue box,z,sounds\greatgatsby_english.wav,,,,,,,,,0,1,1,0,0,121,121,58,797.680894996,8.9802488219e-06,798.357256576,0.676371522655,,,,,z,1,0.66708307169,2018_Nov_28_1540,59.9872635979,spanish_cond1,001,1061,
images\bowl02b (1).jpg,bowl,z,sounds\greatgatsby_english.wav,,,,,,,,,0,1,1,0,0,122,122,24,799.474270019,9.62166814134e-06,800.05769417,0.583435697336,,,,,z,1,0.567058311892,2018_Nov_28_1540,59.9872635979,spanish_cond1,001,1061,
images\chessknight02b (1).jpg,cockroach,x,sounds\greatgatsby_english.wav,,,,,,,,,0,1,1,0,0,123,123,155,801.165205561,9.30097303353e-06,801.824811944,0.659616325836,,,,,x,1,0.650407734822,2018_Nov_28_1540,59.9872635979,spanish_cond1,001,1061,
images\parkingmeter.jpg,ear,x,sounds\greatgatsby_english.wav,,,,,,,,,0,1,1,0,0,124,124,171,802.924787313,9.3009439297e-06,803.625273336,0.700496607082,,,,,x,1,0.683743013855,2018_Nov_28_1540,59.9872635979,spanish_cond1,001,1061,
images\charcoalbarbecue.jpg,charcoal barbecue,z,sounds\greatgatsby_english.wav,,,,,,,,,0,1,1,0,0,125,125,77,804.741008699,9.30097303353e-06,805.459074497,0.718075740617,,,,,z,1,0.700422520138,2018_Nov_28_1540,59.9872635979,spanish_cond1,001,1061,
images\ostrich.jpg,ostrich,z,sounds\greatgatsby_english.wav,,,,,,,,,0,1,1,0,0,126,126,76,806.557928939,8.65952461027e-06,807.37624272,0.818323402695,,,,,z,1,0.800449524977,2018_Nov_28_1540,59.9872635979,spanish_cond1,001,1061,
images\8ball.jpg,nail clipper,x,sounds\greatgatsby_english.wav,,,,,,,,,0,1,1,0,0,127,127,206,808.492335368,8.98021971807e-06,809.193369507,0.701044722198,,,,,x,1,0.683750069758,2018_Nov_28_1540,59.9872635979,spanish_cond1,001,1061,
images\gamecontroller01.jpg,game controller,z,sounds\greatgatsby_english.wav,,,,,,,,,0,1,1,0,0,128,128,112,810.311550701,9.30097303353e-06,810.993830898,0.682290139899,,,,,z,1,0.667081788793,2018_Nov_28_1540,59.9872635979,spanish_cond1,001,1061,
images\aloe02.jpg,broad sword,x,sounds\greatgatsby_english.wav,,,,,,,,,0,1,1,0,0,129,129,137,812.114687562,8.9802488219e-06,812.744305728,0.629628109164,,,,,z,0,0.617093944194,2018_Nov_28_1540,59.9872635979,spanish_cond1,001,1061,
images\treadmill.jpg,lily,x,sounds\greatgatsby_english.wav,,,,,,,,,0,1,1,0,0,130,130,199,813.848781157,9.62169724517e-06,814.528078313,0.679307739221,,,,,x,1,0.667086278903,2018_Nov_28_1540,59.9872635979,spanish_cond1,001,1061,
images\beermug01b.jpg,beer mug,z,sounds\greatgatsby_english.wav,,,,,,,,,0,1,1,0,0,131,131,111,815.643640164,9.62166814134e-06,816.378549038,0.734919136186,,,,,z,1,0.717094008345,2018_Nov_28_1540,59.9872635979,spanish_cond1,001,1061,
images\lighter02b.jpg,stapler,x,sounds\greatgatsby_english.wav,,,,,,,,,0,1,1,0,0,132,132,227,817.478758213,9.62166814134e-06,818.195666523,0.71691953516,,,,,x,1,0.700415464235,2018_Nov_28_1540,59.9872635979,spanish_cond1,001,1061,
images\printer03a.jpg,printer,z,sounds\greatgatsby_english.wav,,,,,,,,,0,1,1,0,0,133,133,72,819.303827697,8.9802488219e-06,820.029477947,0.725660833152,,,,,z,1,0.717077651439,2018_Nov_28_1540,59.9872635979,spanish_cond1,001,1061,
images\diploma01.jpg,glasses,x,sounds\greatgatsby_english.wav,,,,,,,,,0,1,1,0,0,134,134,179,821.15925006,9.30097303353e-06,821.979977601,0.820737803384,,,,,x,1,0.80044375197,2018_Nov_28_1540,59.9872635979,spanish_cond1,001,1061,
images\puzzle.jpg,puzzle,z,sounds\greatgatsby_english.wav,,,,,,,,,0,1,1,0,0,135,135,57,823.098624484,9.3009439297e-06,823.763773598,0.66515969747,,,,,z,1,0.650406131201,2018_Nov_28_1540,59.9872635979,spanish_cond1,001,1061,
images\chameleon.jpg,50 dollar bill,x,sounds\greatgatsby_english.wav,,,,,,,,,0,1,1,0,0,136,136,120,824.873915236,9.3009439297e-06,825.664255901,0.790350928408,,,,,x,1,0.767106548592,2018_Nov_28_1540,59.9872635979,spanish_cond1,001,1061,
images\umbrella01.jpg,umbrella,z,sounds\greatgatsby_english.wav,,,,,,,,,0,1,1,0,0,137,137,53,826.775864203,9.3009439297e-06,827.514731757,0.7388774961,,,,,z,1,0.717102667841,2018_Nov_28_1540,59.9872635979,spanish_cond1,001,1061,
images\graduationcap.jpg,graduation cap,z,sounds\greatgatsby_english.wav,,,,,,,,,0,1,1,0,0,138,138,35,828.615686934,9.62166814134e-06,829.531918647,0.916241655592,,,,,z,1,0.900464663107,2018_Nov_28_1540,59.9872635979,spanish_cond1,001,1061,
images\bracelet02a.jpg,chess knight,x,sounds\greatgatsby_english.wav,,,,,,,,,0,1,1,0,0,139,139,152,830.639814263,9.30097303353e-06,831.532426351,0.892622350919,,,,,x,1,0.88380440019,2018_Nov_28_1540,59.9872635979,spanish_cond1,001,1061,
images\dragonfly02.jpg,dragon fly,z,sounds\greatgatsby_english.wav,,,,,,,,,0,1,1,0,0,140,140,29,832.628393647,9.3009439297e-06,833.299538031,0.671154005278,,,,,z,1,0.650399075297,2018_Nov_28_1540,59.9872635979,spanish_cond1,001,1061,
images\lamp04b.jpg,parking meter,x,sounds\greatgatsby_english.wav,,,,,,,,,0,1,1,0,0,141,141,209,834.420362301,9.94239235297e-06,835.400093587,0.979741228046,,,,,x,1,0.967166331306,2018_Nov_28_1540,59.9872635979,spanish_cond1,001,1061,
images\flamingo.jpg,flamingo,z,sounds\greatgatsby_english.wav,,,,,,,,,0,1,1,0,0,142,142,52,836.497201053,8.65952461027e-06,837.100583459,0.603404215188,,,,,z,1,0.58372915865,2018_Nov_28_1540,59.9872635979,spanish_cond1,001,1061,
images\hairpin.jpg,hair pin,z,sounds\greatgatsby_english.wav,,,,,,,,,0,1,1,0,0,143,143,28,838.190133094,9.62169724517e-06,838.867645106,0.677522275801,,,,,z,1,0.667084033834,2018_Nov_28_1540,59.9872635979,spanish_cond1,001,1061,
images\floorlamp.jpg,floor lamp,z,sounds\greatgatsby_english.wav,,,,,,,,,0,1,1,0,0,144,144,26,839.958997203,8.98021971807e-06,840.601247996,0.642261056753,,,,,z,1,0.633568187885,2018_Nov_28_1540,59.9872635979,spanish_cond1,001,1061,
images\bowlingball.jpg,bowling ball,z,sounds\greatgatsby_english.wav,,,,,,,,,0,1,1,0,0,145,145,20,841.732419423,9.9424214568e-06,842.28518601,0.552776849479,,,,,z,1,0.533706034534,2018_Nov_28_1540,59.9872635979,spanish_cond1,001,1061,
images\backpack01b.jpg,swallow,x,sounds\greatgatsby_english.wav,,,,,,,,,0,1,1,0,0,146,146,228,843.415908104,8.98021971807e-06,844.169005484,0.753107642871,,,,,x,1,0.733774156048,2018_Nov_28_1540,59.9872635979,spanish_cond1,001,1061,
images\antelope.jpg,antelope,z,sounds\greatgatsby_english.wav,,,,,,,,,0,1,1,0,0,147,147,12,845.273317024,9.62169724517e-06,845.986126176,0.712819095061,,,,,z,1,0.700420275069,2018_Nov_28_1540,59.9872635979,spanish_cond1,001,1061,
images\knife04.jpg,tooth brush,x,sounds\greatgatsby_english.wav,,,,,,,,,0,1,1,0,0,148,148,233,847.081394297,9.94239235297e-06,847.819942732,0.738558376994,,,,,x,1,0.717099460599,2018_Nov_28_1540,59.9872635979,spanish_cond1,001,1061,
images\mailbox01.jpg,mail box,z,sounds\greatgatsby_english.wav,,,,,,,,,0,1,1,0,0,149,149,73,848.938248687,9.30097303353e-06,849.870467787,0.932229683676,,,,,z,1,0.917150583817,2018_Nov_28_1540,59.9872635979,spanish_cond1,001,1061,
images\remotecontrol01c.jpg,remote control,z,sounds\greatgatsby_english.wav,,,,,,,,,0,1,1,0,0,150,150,85,850.97971108,2.56578205153e-05,851.937670424,0.957984681008,,,,,z,1,0.933832976589,2018_Nov_28_1540,59.9872635979,spanish_cond1,001,1061,
images\microphone01.jpg,diaper,x,sounds\greatgatsby_english.wav,,,,,,,,,0,1,1,0,0,151,151,164,853.035127478,9.3009439297e-06,853.771461322,0.736344107252,,,,,x,1,0.717090159626,2018_Nov_28_1540,59.9872635979,spanish_cond1,001,1061,
images\headphones02b.jpg,headphones,z,sounds\greatgatsby_english.wav,,,,,,,,,0,1,1,0,0,152,152,101,854.878047106,9.3009439297e-06,855.405220981,0.527184458537,,,,,z,1,0.517055393313,2018_Nov_28_1540,59.9872635979,spanish_cond1,001,1061,
images\paintbrush03a.jpg,paint brush,z,sounds\greatgatsby_english.wav,,,,,,,,,0,1,1,0,0,153,153,0,856.504079593,9.3009439297e-06,857.055637055,0.551567404036,,,,,z,1,0.533715335507,2018_Nov_28_1540,59.9872635979,spanish_cond1,001,1061,
images\cigar.jpg,crocodile,x,sounds\greatgatsby_english.wav,,,,,,,,,0,1,1,0,0,154,154,162,858.152962933,9.30097303353e-06,858.922781513,0.769828522403,,,,,x,1,0.750434418936,2018_Nov_28_1540,59.9872635979,spanish_cond1,001,1061,
images\lollipop03b.jpg,lollipop,z,sounds\greatgatsby_english.wav,,,,,,,,,0,1,1,0,0,155,155,42,860.014419373,9.3009439297e-06,860.656576837,0.642167084996,,,,,z,1,0.633752924186,2018_Nov_28_1540,59.9872635979,spanish_cond1,001,1061,
images\glasses01b.jpg,calculator,x,sounds\greatgatsby_english.wav,,,,,,,,,0,1,1,0,0,156,156,142,861.748398471,9.62166814134e-06,862.390331428,0.641943220544,,,,,x,1,0.633736567339,2018_Nov_28_1540,59.9872635979,spanish_cond1,001,1061,
images\nametag01a.jpg,name tag,z,sounds\greatgatsby_english.wav,,,,,,,,,0,1,1,0,0,157,157,108,863.510024189,9.62166814134e-06,864.223974794,0.713960867986,,,,,z,1,0.700255744305,2018_Nov_28_1540,59.9872635979,spanish_cond1,001,1061,
images\electricguitar02.jpg,electric guitar,z,sounds\greatgatsby_english.wav,,,,,,,,,0,1,1,0,0,158,158,100,865.325057618,9.30097303353e-06,865.941259953,0.616212598135,,,,,z,1,0.600406099111,2018_Nov_28_1540,59.9872635979,spanish_cond1,001,1061,
images\spoon02b.jpg,spoon,z,sounds\greatgatsby_english.wav,,,,,,,,,0,1,1,0,0,159,159,38,867.031519347,9.3009439297e-06,867.508313775,0.47680501148,,,,,z,1,0.467026175465,2018_Nov_28_1540,59.9872635979,spanish_cond1,001,1061,
images\stapler03a.jpg,candy cane,x,sounds\greatgatsby_english.wav,,,,,,,,,0,1,1,0,0,160,160,145,868.618279977,8.98021971807e-06,869.225421895,0.607151860284,,,,,x,1,0.583730120794,2018_Nov_28_1540,59.9872635979,spanish_cond1,001,1061,
images\doll.jpg,carrot,x,sounds\greatgatsby_english.wav,,,,,,,,,0,1,1,0,0,161,161,146,870.334776799,9.3009439297e-06,870.975706536,0.640939999837,,,,,x,1,0.616900227644,2018_Nov_28_1540,59.9872635979,spanish_cond1,001,1061,
images\tulip02.jpg,sport shorts,x,sounds\greatgatsby_english.wav,,,,,,,,,0,1,1,0,0,162,162,225,872.0688457,8.98021971807e-06,872.876366519,0.80753044138,,,,,x,1,0.783792790025,2018_Nov_28_1540,59.9872635979,spanish_cond1,001,1061,
images\weight01.jpg,weight,z,sounds\greatgatsby_english.wav,,,,,,,,,0,1,1,0,0,163,163,67,873.980166827,8.9802488219e-06,874.64348301,0.663326125621,,,,,z,1,0.650415752869,2018_Nov_28_1540,59.9872635979,spanish_cond1,001,1061,
images\beachumbrella01.jpg,beach umbrella,z,sounds\greatgatsby_english.wav,,,,,,,,,0,1,1,0,0,164,164,92,875.747787815,9.62166814134e-06,876.510616885,0.762839653384,,,,,z,1,0.750425117963,2018_Nov_28_1540,59.9872635979,spanish_cond1,001,1061,
images\saltshaker03c.jpg,salt shaker,z,sounds\greatgatsby_english.wav,,,,,,,,,0,1,1,0,0,165,165,63,877.620916638,9.62169724517e-06,878.26107183,0.64016577517,,,,,z,1,0.617071172863,2018_Nov_28_1540,59.9872635979,spanish_cond1,001,1061,
images\squirrel.jpg,binder,x,sounds\greatgatsby_english.wav,,,,,,,,,0,1,1,0,0,166,166,132,879.362697637,9.62169724517e-06,880.294754772,0.932067718677,,,,,x,1,0.916970979102,2018_Nov_28_1540,59.9872635979,spanish_cond1,001,1061,
images\pepper05a.jpg,lighter,x,sounds\greatgatsby_english.wav,,,,,,,,,0,1,1,0,0,167,167,198,881.414622647,8.98021971807e-06,882.245429541,0.830816835893,,,,,x,1,0.817117164494,2018_Nov_28_1540,59.9872635979,spanish_cond1,001,1061,
images\handfan01b.jpg,handfan,z,sounds\greatgatsby_english.wav,,,,,,,,,0,1,1,0,0,168,168,69,883.358341581,9.3009439297e-06,884.079223004,0.720891044708,,,,,z,1,0.700421237212,2018_Nov_28_1540,59.9872635979,spanish_cond1,001,1061,
images\peach01.jpg,peach,z,sounds\greatgatsby_english.wav,,,,,,,,,0,1,1,0,0,169,169,106,885.207001505,8.98021971807e-06,885.846364832,0.63937391073,,,,,z,1,0.617087208986,2018_Nov_28_1540,59.9872635979,spanish_cond1,001,1061,
images\cat.jpg,black olive,x,sounds\greatgatsby_english.wav,,,,,,,,,0,1,1,0,0,170,170,133,886.976228031,9.94239235297e-06,887.780174717,0.803957910917,,,,,x,1,0.783772905212,2018_Nov_28_1540,59.9872635979,spanish_cond1,001,1061,
images\scooter.jpg,pen,x,sounds\greatgatsby_english.wav,,,,,,,,,0,1,1,0,0,171,171,212,888.871663121,9.3009439297e-06,889.630481873,0.758829015656,,,,,x,1,0.750277585525,2018_Nov_28_1540,59.9872635979,spanish_cond1,001,1061,
images\honeycomb.jpg,honey comb,z,sounds\greatgatsby_english.wav,,,,,,,,,0,1,1,0,0,172,172,59,890.742445536,9.30097303353e-06,891.347774088,0.605338493973,,,,,z,1,0.583743270457,2018_Nov_28_1540,59.9872635979,spanish_cond1,001,1061,
images\wallet01.jpg,lamp,x,sounds\greatgatsby_english.wav,,,,,,,,,0,1,1,0,0,173,173,193,892.451388056,9.3009439297e-06,893.198240323,0.746862529893,,,,,x,1,0.733778004709,2018_Nov_28_1540,59.9872635979,spanish_cond1,001,1061,
images\coffeepot03b.jpg,coffee pot,z,sounds\greatgatsby_english.wav,,,,,,,,,0,1,1,0,0,174,174,107,894.317752516,9.62169724517e-06,894.998691451,0.680949839618,,,,,z,1,0.667082109518,2018_Nov_28_1540,59.9872635979,spanish_cond1,001,1061,
images\skateboard.jpg,key,x,sounds\greatgatsby_english.wav,,,,,,,,,0,1,1,0,0,175,175,189,896.088741734,9.62169724517e-06,896.815822086,0.727090935805,,,,,x,1,0.717091763247,2018_Nov_28_1540,59.9872635979,spanish_cond1,001,1061,
images\electrictoothbrush01a.jpg,banjo,x,sounds\greatgatsby_english.wav,,,,,,,,,0,1,1,0,0,176,176,127,897.909555549,9.94239235297e-06,898.766334569,0.85678992467,,,,,x,1,0.833803405956,2018_Nov_28_1540,59.9872635979,spanish_cond1,001,1061,
images\axe01.jpg,axe,z,sounds\greatgatsby_english.wav,,,,,,,,,0,1,1,0,0,177,177,104,899.870117237,9.62169724517e-06,900.616808822,0.746702489269,,,,,z,1,0.733773835324,2018_Nov_28_1540,59.9872635979,spanish_cond1,001,1061,
images\bowtie.jpg,bowtie,z,sounds\greatgatsby_english.wav,,,,,,,,,0,1,1,0,0,178,178,89,901.726168537,9.3009439297e-06,902.30055825,0.574399655161,,,,,z,1,0.550382975023,2018_Nov_28_1540,59.9872635979,spanish_cond1,001,1061,
images\nailpolish02b.jpg,nail polish,z,sounds\greatgatsby_english.wav,,,,,,,,,0,1,1,0,0,179,179,94,903.408461243,9.62169724517e-06,904.00099424,0.592543260689,,,,,z,1,0.583706387319,2018_Nov_28_1540,59.9872635979,spanish_cond1,001,1061,
images\icecube02 (2).jpg,aloe,x,sounds\greatgatsby_english.wav,,,,,,,,,0,1,1,0,0,180,180,122,905.110282756,9.62166814134e-06,905.818137063,0.707864570315,,,,,x,1,0.683750390483,2018_Nov_28_1540,59.9872635979,spanish_cond1,001,1061,
images\diaper01a.jpg,camera,x,sounds\greatgatsby_english.wav,,,,,,,,,0,1,1,0,0,181,181,143,906.937647011,9.3009439297e-06,907.635271226,0.697633835982,,,,,x,1,0.683760653599,2018_Nov_28_1540,59.9872635979,spanish_cond1,001,1061,
images\showerhead01.jpg,skateboard,x,sounds\greatgatsby_english.wav,,,,,,,,,0,1,1,0,0,182,182,223,908.742124172,9.30097303353e-06,909.435732297,0.693618066696,,,,,x,1,0.68376225722,2018_Nov_28_1540,59.9872635979,spanish_cond1,001,1061,
images\safe.jpg,safe,z,sounds\greatgatsby_english.wav,,,,,,,,,0,1,1,0,0,183,183,78,910.545540383,8.9802488219e-06,911.302868416,0.757337975694,,,,,z,1,0.733766137972,2018_Nov_28_1540,59.9872635979,spanish_cond1,001,1061,
images\bullet (2).jpg,rubber glove,x,sounds\greatgatsby_english.wav,,,,,,,,,0,1,1,0,0,184,184,217,912.406678987,3.62416612916e-05,913.069999019,0.663347293332,,,,,x,1,0.650414790696,2018_Nov_28_1540,59.9872635979,spanish_cond1,001,1061,
