images,name,corrAns,sounds,trials_3.thisRepN,trials_3.thisTrialN,trials_3.thisN,trials_3.thisIndex,trials_4.thisRepN,trials_4.thisTrialN,trials_4.thisN,trials_4.thisIndex,trials_2.thisRepN,trials_2.thisTrialN,trials_2.thisN,trials_2.thisIndex,trials.thisRepN,trials.thisTrialN,trials.thisN,trials.thisIndex,begin_global,begin_routine,end_global,end_routine,key_resp_2.keys,key_resp_2.corr,key_resp_2.rt,begin_book,key_resp_1.keys,key_resp_1.corr,key_resp_1.rt,date,frameRate,expName,session,participant,
images/volleyball.jpg,volley ball,z,,0,0,0,0,,,,,,,,,,,,,,,,,,,,,,,,2018_Nov_28_1540,59.9792631046,spanish_cond2,001,1062,
images/puma.jpg,puma,z,,,,,,0,0,0,0,,,,,,,,,48.1845591306,9.94233414531e-06,49.7063413768,1.52179315081,z,1,1.5006395129,,,,,2018_Nov_28_1540,59.9792631046,spanish_cond2,001,1062,
images/lightbulb03b.jpg,treadmill,x,sounds/greatgatsby_spanish.wav,,,,,,,,,0,0,0,0,0,0,0,234,91.8865377719,9.30088572204e-06,93.000207505,1.11367999599,,,,81.7026877503,x,1,1.10053726775,2018_Nov_28_1540,59.9792631046,spanish_cond2,001,1062,
images/screwdriver02b.jpg,cola,x,sounds/greatgatsby_spanish.wav,,,,,,,,,0,0,0,0,0,1,1,158,94.1011363701,9.621726349e-06,95.100723926,0.999597818824,,,,,x,1,0.98384379968,2018_Nov_28_1540,59.9792631046,spanish_cond2,001,1062,
images/panda.jpg,panda,z,sounds/greatgatsby_spanish.wav,,,,,,,,,0,0,0,0,0,2,2,83,96.211405203,8.98027792573e-06,97.1678721411,0.956477201078,,,,,z,1,0.933807526715,2018_Nov_28_1540,59.9792631046,spanish_cond2,001,1062,
images/corkscrew02a.jpg,masquerade mask,x,sounds/greatgatsby_spanish.wav,,,,,,,,,0,0,0,0,0,3,3,201,98.2738067824,8.98027792573e-06,99.6851566294,1.41136010992,,,,,x,1,1.40059871739,2018_Nov_28_1540,59.9792631046,spanish_cond2,001,1062,
images/computerkeyboard01a.jpg,computer keyboard,z,sounds/greatgatsby_spanish.wav,,,,,,,,,0,0,0,0,0,4,4,61,100.803280182,9.30088572204e-06,102.002387109,1.19911718997,,,,,z,1,1.18387696194,2018_Nov_28_1540,59.9792631046,spanish_cond2,001,1062,
images/bullet (2).jpg,rubber glove,x,sounds/greatgatsby_spanish.wav,,,,,,,,,0,0,0,0,0,5,5,217,103.108390063,9.3006528914e-06,103.836175007,0.727795206942,,,,,x,1,0.717103089904,2018_Nov_28_1540,59.9792631046,spanish_cond2,001,1062,
images/hairdryer03a.jpg,hairdryer,z,sounds/greatgatsby_spanish.wav,,,,,,,,,0,0,0,0,0,6,6,119,104.936340241,8.98004509509e-06,106.286763173,1.35043319454,,,,,z,1,1.33389630145,2018_Nov_28_1540,59.9792631046,spanish_cond2,001,1062,
images/lemon02.jpg,lemon,z,sounds/greatgatsby_spanish.wav,,,,,,,,,0,0,0,0,0,7,7,14,107.400527839,9.30088572204e-06,108.28726189,0.886744635645,,,,,z,1,0.867139748065,2018_Nov_28_1540,59.9792631046,spanish_cond2,001,1062,
images/ant.jpg,ant,z,sounds/greatgatsby_spanish.wav,,,,,,,,,0,0,0,0,0,8,8,98,109.383243671,8.98004509509e-06,110.554463152,1.1712297441,,,,,z,1,1.15052703675,2018_Nov_28_1540,59.9792631046,spanish_cond2,001,1062,
images/mitten01.jpg,mitten,z,sounds/greatgatsby_spanish.wav,,,,,,,,,0,0,0,0,0,9,9,102,111.676104988,9.62149351835e-06,112.755018124,1.0789250026,,,,,z,1,1.06719664345,2018_Nov_28_1540,59.9792631046,spanish_cond2,001,1062,
images/cherry01.jpg,highlighter,x,sounds/greatgatsby_spanish.wav,,,,,,,,,0,0,0,0,0,10,10,187,113.865103185,9.30088572204e-06,114.972219354,1.10712675261,,,,,x,1,1.08386374847,2018_Nov_28_1540,59.9792631046,spanish_cond2,001,1062,
images/lion.jpg,lion,z,sounds/greatgatsby_spanish.wav,,,,,,,,,0,0,0,0,0,11,11,44,116.085649189,8.65920446813e-06,116.972689206,0.887049638899,,,,,z,1,0.867124032695,2018_Nov_28_1540,59.9792631046,spanish_cond2,001,1062,
images/elbow.jpg,elbow,z,sounds/greatgatsby_spanish.wav,,,,,,,,,0,0,0,0,0,12,12,105,118.08521654,8.98004509509e-06,119.256601832,1.171395235,,,,,z,1,1.15054948721,2018_Nov_28_1540,59.9792631046,spanish_cond2,001,1062,
images/candy.jpg,candy,z,sounds/greatgatsby_spanish.wav,,,,,,,,,0,0,0,0,0,13,13,31,120.359997665,8.65943729877e-06,121.907236951,1.54724890785,,,,,z,1,1.53396057338,2018_Nov_28_1540,59.9792631046,spanish_cond2,001,1062,
images/peach01.jpg,peach,z,sounds/greatgatsby_spanish.wav,,,,,,,,,0,0,0,0,0,14,14,106,123.037148837,8.98004509509e-06,123.757715367,0.72057647258,,,,,z,1,0.700441437075,2018_Nov_28_1540,59.9792631046,spanish_cond2,001,1062,
images/medal01.jpg,medal,z,sounds/greatgatsby_spanish.wav,,,,,,,,,0,0,0,0,0,15,15,115,124.859820308,9.62149351835e-06,125.974904089,1.11509436509,,,,,z,1,1.1005340605,2018_Nov_28_1540,59.9792631046,spanish_cond2,001,1062,
images/wallet01.jpg,lamp,x,sounds/greatgatsby_spanish.wav,,,,,,,,,0,0,0,0,0,16,16,193,127.081174202,9.30088572204e-06,128.025382313,0.944218373625,,,,,z,0,0.933788924711,2018_Nov_28_1540,59.9792631046,spanish_cond2,001,1062,
images/bowlingball.jpg,bowling ball,z,sounds/greatgatsby_spanish.wav,,,,,,,,,0,0,0,0,0,17,17,20,129.157978293,9.30088572204e-06,129.875837957,0.717869607266,,,,,z,1,0.700426363153,2018_Nov_28_1540,59.9792631046,spanish_cond2,001,1062,
images/volleyball.jpg,volley ball,z,sounds/greatgatsby_spanish.wav,,,,,,,,,0,0,0,0,0,18,18,2,131.007979479,8.65943729877e-06,131.826326059,0.818356201518,,,,,z,1,0.800441180589,2018_Nov_28_1540,59.9792631046,spanish_cond2,001,1062,
images/parkingmeter.jpg,ear,x,sounds/greatgatsby_spanish.wav,,,,,,,,,0,0,0,0,0,19,19,171,132.929200404,9.30088572204e-06,134.226902647,1.29771250649,,,,,x,1,1.28390524932,2018_Nov_28_1540,59.9792631046,spanish_cond2,001,1062,
images/binder03b.jpg,dj mixer,x,sounds/greatgatsby_spanish.wav,,,,,,,,,0,0,0,0,0,20,20,167,135.340748775,8.65943729877e-06,136.727601814,1.38686266006,,,,,x,1,1.36734404578,2018_Nov_28_1540,59.9792631046,spanish_cond2,001,1062,
images/rhinoceros01.jpg,envelope,x,sounds/greatgatsby_spanish.wav,,,,,,,,,0,0,0,0,0,21,21,173,137.841017217,8.98027792573e-06,139.17810082,1.33709322475,,,,,x,1,1.31722951704,2018_Nov_28_1540,59.9792631046,spanish_cond2,001,1062,
images/snowman.jpg,globe,x,sounds/greatgatsby_spanish.wav,,,,,,,,,0,0,0,0,0,22,22,180,140.292104421,8.65943729877e-06,141.495333544,1.20323842415,,,,,x,1,1.18387760362,2018_Nov_28_1540,59.9792631046,spanish_cond2,001,1062,
images/nailclipper03a.jpg,aquarium,x,sounds/greatgatsby_spanish.wav,,,,,,,,,0,0,0,0,0,23,23,123,142.595842268,8.98004509509e-06,143.595871453,1.00003880681,,,,,x,1,0.983853742015,2018_Nov_28_1540,59.9792631046,spanish_cond2,001,1062,
images/ladder.jpg,ladder,z,sounds/greatgatsby_spanish.wav,,,,,,,,,0,0,0,0,0,24,24,113,144.689634503,8.98027792573e-06,145.462980092,0.773355852114,,,,,z,1,0.75044563855,2018_Nov_28_1540,59.9792631046,spanish_cond2,001,1062,
images/grandpiano.jpg,tulip,x,sounds/greatgatsby_spanish.wav,,,,,,,,,0,0,0,0,0,25,25,236,146.578807619,9.621726349e-06,147.863553152,1.2847561161,,,,,x,1,1.26722916425,2018_Nov_28_1540,59.9792631046,spanish_cond2,001,1062,
images/triangleruler02.jpg,bottle of red wine,x,sounds/greatgatsby_spanish.wav,,,,,,,,,0,0,0,0,0,26,26,134,148.976491326,9.30088572204e-06,150.197464848,1.22098346427,,,,,x,1,1.20055625448,2018_Nov_28_1540,59.9792631046,spanish_cond2,001,1062,
images/calculator02b.jpg,dice,x,sounds/greatgatsby_spanish.wav,,,,,,,,,0,0,0,0,0,27,27,165,151.30073079,9.30088572204e-06,152.431323561,1.13060271367,,,,,x,1,1.11718512978,2018_Nov_28_1540,59.9792631046,spanish_cond2,001,1062,
images/djmixer01.jpg,light bulb,x,sounds/greatgatsby_spanish.wav,,,,,,,,,0,0,0,0,0,28,28,196,153.554778419,9.30088572204e-06,154.581847391,1.02707923483,,,,,x,1,1.01716293604,2018_Nov_28_1540,59.9792631046,spanish_cond2,001,1062,
images/broom02.jpg,broom,z,sounds/greatgatsby_spanish.wav,,,,,,,,,0,0,0,0,0,29,29,116,155.674871504,9.30088572204e-06,156.715718868,1.04085762729,,,,,z,1,1.01716774679,2018_Nov_28_1540,59.9792631046,spanish_cond2,001,1062,
images/ruler02b.jpg,watermelon,x,sounds/greatgatsby_spanish.wav,,,,,,,,,0,0,0,0,0,30,30,238,157.819359089,9.30088572204e-06,158.882736294,1.06338714762,,,,,x,1,1.05034288019,2018_Nov_28_1540,59.9792631046,spanish_cond2,001,1062,
images/aquarium.jpg,computer mouse,x,sounds/greatgatsby_spanish.wav,,,,,,,,,0,0,0,0,0,31,31,159,160.020939077,1.02629419416e-05,160.916724129,0.895796276862,,,,,x,1,0.883703902364,2018_Nov_28_1540,59.9792631046,spanish_cond2,001,1062,
images/cheetah.jpg,cheetah,z,sounds/greatgatsby_spanish.wav,,,,,,,,,0,0,0,0,0,32,32,82,162.02028449,8.65943729877e-06,163.467354373,1.44707918353,,,,,z,1,1.43393966253,2018_Nov_28_1540,59.9792631046,spanish_cond2,001,1062,
images/headphones02b.jpg,headphones,z,sounds/greatgatsby_spanish.wav,,,,,,,,,0,0,0,0,0,33,33,101,164.57719665,8.98004509509e-06,165.61787243,1.0406854013,,,,,z,1,1.01716774656,2018_Nov_28_1540,59.9792631046,spanish_cond2,001,1062,
images/dreamcatcher.jpg,dream catcher,z,sounds/greatgatsby_spanish.wav,,,,,,,,,0,0,0,0,0,34,34,48,166.717471596,8.65920446813e-06,168.018309826,1.30084753083,,,,,z,1,1.28374938015,2018_Nov_28_1540,59.9792631046,spanish_cond2,001,1062,
images/spoon02b.jpg,spoon,z,sounds/greatgatsby_spanish.wav,,,,,,,,,0,0,0,0,0,35,35,38,169.111078006,8.98004509509e-06,170.585779721,1.47471229918,,,,,z,1,1.45064172591,2018_Nov_28_1540,59.9792631046,spanish_cond2,001,1062,
images/knife04.jpg,tooth brush,x,sounds/greatgatsby_spanish.wav,,,,,,,,,0,0,0,0,0,36,36,233,171.682842965,9.621726349e-06,172.669583816,0.986750472803,,,,,x,1,0.967141736532,2018_Nov_28_1540,59.9792631046,spanish_cond2,001,1062,
images/pineapple01a.jpg,pineapple,z,sounds/greatgatsby_spanish.wav,,,,,,,,,0,0,0,0,0,37,37,51,173.784153165,8.98004509509e-06,174.753426397,0.969283174723,,,,,z,1,0.950478800805,2018_Nov_28_1540,59.9792631046,spanish_cond2,001,1062,
images/dragonfly02.jpg,dragon fly,z,sounds/greatgatsby_spanish.wav,,,,,,,,,0,0,0,0,0,38,38,29,175.851900482,8.98027792573e-06,177.15402287,1.30213297135,,,,,z,1,1.28390300437,2018_Nov_28_1540,59.9792631046,spanish_cond2,001,1062,
images/ostrich.jpg,ostrich,z,sounds/greatgatsby_spanish.wav,,,,,,,,,0,0,0,0,0,39,39,76,178.255321203,9.30088572204e-06,179.221181027,0.965869766427,,,,,z,1,0.950483932393,2018_Nov_28_1540,59.9792631046,spanish_cond2,001,1062,
images/cupcake.jpg,scissors,x,sounds/greatgatsby_spanish.wav,,,,,,,,,0,0,0,0,0,40,40,219,180.341381553,9.3006528914e-06,181.154984384,0.813612773316,,,,,x,1,0.800444387598,2018_Nov_28_1540,59.9792631046,spanish_cond2,001,1062,
images/swallow.jpg,mattress,x,sounds/greatgatsby_spanish.wav,,,,,,,,,0,0,0,0,0,41,41,202,182.258644489,9.62149351835e-06,182.938754932,0.680120064178,,,,,x,1,0.667084777029,2018_Nov_28_1540,59.9792631046,spanish_cond2,001,1062,
images/bat.jpg,hand,x,sounds/greatgatsby_spanish.wav,,,,,,,,,0,0,0,0,0,42,42,185,184.038560641,9.30088572204e-06,185.289165355,1.25061497791,,,,,x,1,1.23371759709,2018_Nov_28_1540,59.9792631046,spanish_cond2,001,1062,
images/arrow02.jpg,hammer,x,sounds/greatgatsby_spanish.wav,,,,,,,,,0,0,0,0,0,43,43,184,186.387901788,8.98004509509e-06,187.156466746,0.768574899761,,,,,x,1,0.750451411586,2018_Nov_28_1540,59.9792631046,spanish_cond2,001,1062,
images/umbrella01.jpg,umbrella,z,sounds/greatgatsby_spanish.wav,,,,,,,,,0,0,0,0,0,44,44,53,188.271115953,9.62149351835e-06,188.390098711,0.118993020384,,,,,x,0,0.100293200929,2018_Nov_28_1540,59.9792631046,spanish_cond2,001,1062,
images/thumbtack02a.jpg,thumb tack,z,sounds/greatgatsby_spanish.wav,,,,,,,,,0,0,0,0,0,45,45,60,189.502008661,9.30088572204e-06,190.223874101,0.721875703428,,,,,z,1,0.70043630572,2018_Nov_28_1540,59.9792631046,spanish_cond2,001,1062,
images/egg01b (1).jpg,egg,z,sounds/greatgatsby_spanish.wav,,,,,,,,,0,0,0,0,0,46,46,19,191.338049928,8.98027792573e-06,192.124333627,0.786293961806,,,,,z,1,0.767090934562,2018_Nov_28_1540,59.9792631046,spanish_cond2,001,1062,
images/camera01a.jpg,bull,x,sounds/greatgatsby_spanish.wav,,,,,,,,,0,0,0,0,0,47,47,138,193.236991813,9.62149351835e-06,194.158152443,0.921170250745,,,,,x,1,0.900464977836,2018_Nov_28_1540,59.9792631046,spanish_cond2,001,1062,
images/plate01b.jpg,plate,z,sounds/greatgatsby_spanish.wav,,,,,,,,,0,0,0,0,0,48,48,3,195.25881896,9.3006528914e-06,196.325351075,1.06654237746,,,,,z,1,1.05051350268,2018_Nov_28_1540,59.9792631046,spanish_cond2,001,1062,
images/coin01b.jpg,arrow,x,sounds/greatgatsby_spanish.wav,,,,,,,,,0,0,0,0,0,49,49,124,197.429456979,9.62149351835e-06,198.476018907,1.04658918967,,,,,x,1,1.03389001545,2018_Nov_28_1540,59.9792631046,spanish_cond2,001,1062,
images/bench02.jpg,electric toothbrush,x,sounds/greatgatsby_spanish.wav,,,,,,,,,0,0,0,0,0,50,50,172,199.58606452,9.30088572204e-06,200.593052337,1.00699808006,,,,,x,1,0.983828405384,2018_Nov_28_1540,59.9792631046,spanish_cond2,001,1062,
images/bottleofredwine02.jpg,pipe,x,sounds/greatgatsby_spanish.wav,,,,,,,,,0,0,0,0,0,51,51,213,201.692877609,8.65943729877e-06,202.660224285,0.967356618028,,,,,x,1,0.950476235012,2018_Nov_28_1540,59.9792631046,spanish_cond2,001,1062,
images/flamingo.jpg,flamingo,z,sounds/greatgatsby_spanish.wav,,,,,,,,,0,0,0,0,0,52,52,52,203.760046992,9.30088572204e-06,204.644039861,0.884002491366,,,,,z,1,0.867133333581,2018_Nov_28_1540,59.9792631046,spanish_cond2,001,1062,
images/bandaid01.jpg,door handle,x,sounds/greatgatsby_spanish.wav,,,,,,,,,0,0,0,0,0,53,53,170,205.750956543,9.62149351835e-06,206.761236216,1.01028993609,,,,,x,1,1.00051379134,2018_Nov_28_1540,59.9792631046,spanish_cond2,001,1062,
images/desktopcomputer.jpg,desktop computer,z,sounds/greatgatsby_spanish.wav,,,,,,,,,0,0,0,0,0,54,54,16,207.89905574,9.3006528914e-06,208.795051184,0.896005706163,,,,,z,1,0.88380332524,2018_Nov_28_1540,59.9792631046,spanish_cond2,001,1062,
images/chessknight02b (1).jpg,cockroach,x,sounds/greatgatsby_spanish.wav,,,,,,,,,0,0,0,0,0,55,55,155,209.905734706,9.30088572204e-06,210.812225345,0.906500581419,,,,,x,1,0.883820964722,2018_Nov_28_1540,59.9792631046,spanish_cond2,001,1062,
images/cigar.jpg,crocodile,x,sounds/greatgatsby_spanish.wav,,,,,,,,,0,0,0,0,0,56,56,162,211.91202047,8.98027792573e-06,212.812694235,0.900684349472,,,,,x,1,0.88379498641,2018_Nov_28_1540,59.9792631046,spanish_cond2,001,1062,
images/parrot01.jpg,chameleon,x,sounds/greatgatsby_spanish.wav,,,,,,,,,0,0,0,0,0,57,57,150,213.927652616,9.30088572204e-06,215.04657155,1.11892887694,,,,,x,1,1.10052443901,2018_Nov_28_1540,59.9792631046,spanish_cond2,001,1062,
images/cloud.jpg,ceiling fan,x,sounds/greatgatsby_spanish.wav,,,,,,,,,0,0,0,0,0,58,58,149,216.152860586,8.98004509509e-06,217.080431097,0.92758109537,,,,,x,1,0.91717730416,2018_Nov_28_1540,59.9792631046,spanish_cond2,001,1062,
images/mattress.jpg,cat,x,sounds/greatgatsby_spanish.wav,,,,,,,,,0,0,0,0,0,59,59,147,218.185961954,9.30088572204e-06,219.114478585,0.928526253207,,,,,x,1,0.917392185424,2018_Nov_28_1540,59.9792631046,spanish_cond2,001,1062,
images/eraser.jpg,eraser,z,sounds/greatgatsby_spanish.wav,,,,,,,,,0,0,0,0,0,60,60,110,220.222638052,8.98027792573e-06,221.248075528,1.02544773929,,,,,z,1,1.01717031235,2018_Nov_28_1540,59.9792631046,spanish_cond2,001,1062,
images/feather03b.jpg,feather,z,sounds/greatgatsby_spanish.wav,,,,,,,,,0,0,0,0,0,61,61,114,222.349842752,9.30088572204e-06,223.315255494,0.965422364185,,,,,z,1,0.95045891637,2018_Nov_28_1540,59.9792631046,spanish_cond2,001,1062,
images/parkfountain.jpg,park fountain,z,sounds/greatgatsby_spanish.wav,,,,,,,,,0,0,0,0,0,62,62,93,224.436941589,9.62149351835e-06,225.665816655,1.22888500895,,,,,z,1,1.21719128755,2018_Nov_28_1540,59.9792631046,spanish_cond2,001,1062,
images/plant01.jpg,plant,z,sounds/greatgatsby_spanish.wav,,,,,,,,,0,0,0,0,0,63,63,47,226.778821539,9.30088572204e-06,227.766344302,0.987532705301,,,,,z,1,0.967173808487,2018_Nov_28_1540,59.9792631046,spanish_cond2,001,1062,
images/cake.jpg,cake,z,sounds/greatgatsby_spanish.wav,,,,,,,,,0,0,0,0,0,64,64,23,228.881456948,9.30088572204e-06,230.150084124,1.2686374397,,,,,z,1,1.25039143697,2018_Nov_28_1540,59.9792631046,spanish_cond2,001,1062,
images/electricguitar02.jpg,electric guitar,z,sounds/greatgatsby_spanish.wav,,,,,,,,,0,0,0,0,0,65,65,100,231.253630054,9.3006528914e-06,232.0507085,0.79708806728,,,,,z,1,0.783774717012,2018_Nov_28_1540,59.9792631046,spanish_cond2,001,1062,
images/leek.jpg,donut,x,sounds/greatgatsby_spanish.wav,,,,,,,,,0,0,0,0,0,66,66,169,233.153316648,8.65943729877e-06,233.917673777,0.764367071446,,,,,x,1,0.750276298961,2018_Nov_28_1540,59.9792631046,spanish_cond2,001,1062,
images/hanger02a.jpg,hanger,z,sounds/greatgatsby_spanish.wav,,,,,,,,,0,0,0,0,0,67,67,88,235.012618674,9.30088572204e-06,236.218407773,1.20579904155,,,,,z,1,1.18388914946,2018_Nov_28_1540,59.9792631046,spanish_cond2,001,1062,
images/acousticguitar02.jpg,acoustic guitar,z,sounds/greatgatsby_spanish.wav,,,,,,,,,0,0,0,0,0,68,68,97,237.332880906,9.62149351835e-06,238.018847991,0.685976706678,,,,,z,1,0.667105944362,2018_Nov_28_1540,59.9792631046,spanish_cond2,001,1062,
images/grasshopper.jpg,cauliflower,x,sounds/greatgatsby_spanish.wav,,,,,,,,,0,0,0,0,0,69,69,148,239.114403858,9.30088572204e-06,239.819289172,0.704897822347,,,,,x,1,0.683776577236,2018_Nov_28_1540,59.9792631046,spanish_cond2,001,1062,
images/key03b.jpg,cigar,x,sounds/greatgatsby_spanish.wav,,,,,,,,,0,0,0,0,0,70,70,153,240.922118616,9.30088572204e-06,241.653319213,0.731210860424,,,,,x,1,0.717361588962,2018_Nov_28_1540,59.9792631046,spanish_cond2,001,1062,
images/beermug01b.jpg,beer mug,z,sounds/greatgatsby_spanish.wav,,,,,,,,,0,0,0,0,0,71,71,111,242.772133593,9.30088572204e-06,244.153664627,1.38154161745,,,,,z,1,1.36726162117,2018_Nov_28_1540,59.9792631046,spanish_cond2,001,1062,
images/flipflop01b.jpg,flip flop,z,sounds/greatgatsby_spanish.wav,,,,,,,,,0,0,0,0,0,72,72,27,245.270632951,8.98027792573e-06,246.537584694,1.26696136431,,,,,z,1,1.2505723224,2018_Nov_28_1540,59.9792631046,spanish_cond2,001,1062,
images/crocodile.jpg,triangle ruler,x,sounds/greatgatsby_spanish.wav,,,,,,,,,0,0,0,0,0,73,73,235,247.636807977,9.30088572204e-06,248.588072218,0.951274824562,,,,,x,1,0.933814582182,2018_Nov_28_1540,59.9792631046,spanish_cond2,001,1062,
images/electrictoothbrush01a.jpg,banjo,x,sounds/greatgatsby_spanish.wav,,,,,,,,,0,0,0,0,0,74,74,127,249.684207944,9.30088572204e-06,250.488554194,0.804356513312,,,,,x,1,0.783786262851,2018_Nov_28_1540,59.9792631046,spanish_cond2,001,1062,
images/battery03b.jpg,battery,z,sounds/greatgatsby_spanish.wav,,,,,,,,,0,0,0,0,0,75,75,34,251.599176459,9.30088572204e-06,252.60571527,1.00654843263,,,,,z,1,0.983823273797,2018_Nov_28_1540,59.9792631046,spanish_cond2,001,1062,
images/croissant02b.jpg,croissant,z,sounds/greatgatsby_spanish.wav,,,,,,,,,0,0,0,0,0,76,76,39,253.719100205,9.94210131466e-06,254.456175405,0.737085783854,,,,,z,1,0.717103410745,2018_Nov_28_1540,59.9792631046,spanish_cond2,001,1062,
images/notebook02b.jpg,notebook,z,sounds/greatgatsby_spanish.wav,,,,,,,,,0,0,0,0,0,77,77,7,255.56283487,9.621726349e-06,256.439999641,0.877175354399,,,,,z,1,0.867148407269,2018_Nov_28_1540,59.9792631046,spanish_cond2,001,1062,
images/paperclip04.jpg,eye drops,x,sounds/greatgatsby_spanish.wav,,,,,,,,,0,0,0,0,0,78,78,174,257.547304071,9.621726349e-06,258.590502945,1.04320913623,,,,,x,1,1.03383645532,2018_Nov_28_1540,59.9792631046,spanish_cond2,001,1062,
images/banana04a.jpg,banana,z,sounds/greatgatsby_spanish.wav,,,,,,,,,0,0,0,0,0,79,79,118,259.697901346,8.98004509509e-06,260.657684514,0.959793110844,,,,,z,1,0.950495157624,2018_Nov_28_1540,59.9792631046,spanish_cond2,001,1062,
images/charcoalbarbecue.jpg,charcoal barbecue,z,sounds/greatgatsby_spanish.wav,,,,,,,,,0,0,0,0,0,80,80,77,261.77676028,9.94233414531e-06,262.958231853,1.18148215627,,,,,z,1,1.1672037635,2018_Nov_28_1540,59.9792631046,spanish_cond2,001,1062,
images/apricot.jpg,apricot,z,sounds/greatgatsby_spanish.wav,,,,,,,,,0,0,0,0,0,81,81,32,264.077017047,8.98004509509e-06,264.925394436,0.84838700993,,,,,z,1,0.833787577925,2018_Nov_28_1540,59.9792631046,spanish_cond2,001,1062,
images/tape01a.jpg,tie,x,sounds/greatgatsby_spanish.wav,,,,,,,,,0,0,0,0,0,82,82,232,266.052595287,9.62149351835e-06,267.325966534,1.27338118874,,,,,x,1,1.25054826867,2018_Nov_28_1540,59.9792631046,spanish_cond2,001,1062,
images/lily.jpg,kiwi,x,sounds/greatgatsby_spanish.wav,,,,,,,,,0,0,0,0,0,83,83,190,268.427001557,9.30088572204e-06,269.993281266,1.56628965121,,,,,x,1,1.55063088541,2018_Nov_28_1540,59.9792631046,spanish_cond2,001,1062,
images/clothespin02a.jpg,clothes pin,z,sounds/greatgatsby_spanish.wav,,,,,,,,,0,0,0,0,0,84,84,79,271.099511289,9.3006528914e-06,272.760825055,1.66132402909,,,,,x,0,1.65085737687,2018_Nov_28_1540,59.9792631046,spanish_cond2,001,1062,
images/bowl02b (1).jpg,bowl,z,sounds/greatgatsby_spanish.wav,,,,,,,,,0,0,0,0,0,85,85,24,273.879807813,1.02629419416e-05,275.044510291,1.16471274197,,,,,z,1,1.15053024399,2018_Nov_28_1540,59.9792631046,spanish_cond2,001,1062,
images/computermouse02a.jpg,world map,x,sounds/greatgatsby_spanish.wav,,,,,,,,,0,0,0,0,0,86,86,239,276.147710486,9.62149351835e-06,277.328392128,1.18069158471,,,,,x,1,1.1671710501,2018_Nov_28_1540,59.9792631046,spanish_cond2,001,1062,
images/printer03a.jpg,printer,z,sounds/greatgatsby_spanish.wav,,,,,,,,,0,0,0,0,0,87,87,72,278.439541334,9.3006528914e-06,279.278889852,0.839358780766,,,,,z,1,0.817137791542,2018_Nov_28_1540,59.9792631046,spanish_cond2,001,1062,
images/lock02a.jpg,lock,z,sounds/greatgatsby_spanish.wav,,,,,,,,,0,0,0,0,0,88,88,65,280.389350154,9.62149351835e-06,281.412723806,1.02338391496,,,,,z,1,1.00049647246,2018_Nov_28_1540,59.9792631046,spanish_cond2,001,1062,
images/daisy.jpg,daisy,z,sounds/greatgatsby_spanish.wav,,,,,,,,,0,0,0,0,0,89,89,6,282.516725797,8.98027792573e-06,283.363203568,0.846487393603,,,,,z,1,0.83377827704,2018_Nov_28_1540,59.9792631046,spanish_cond2,001,1062,
images/orange.jpg,bat,x,sounds/greatgatsby_spanish.wav,,,,,,,,,0,0,0,0,0,90,90,128,284.489394797,9.30088572204e-06,285.630454542,1.14106968627,,,,,x,1,1.11722714384,2018_Nov_28_1540,59.9792631046,spanish_cond2,001,1062,
images/bed.jpg,bed,z,sounds/greatgatsby_spanish.wav,,,,,,,,,0,0,0,0,0,91,91,103,286.751832746,9.621726349e-06,287.930991296,1.17916881293,,,,,z,1,1.16721595055,2018_Nov_28_1540,59.9792631046,spanish_cond2,001,1062,
images/bull.jpg,button,x,sounds/greatgatsby_spanish.wav,,,,,,,,,0,0,0,0,0,92,92,141,289.038072828,9.30088572204e-06,289.814769605,0.776707361452,,,,,x,1,0.767109215725,2018_Nov_28_1540,59.9792631046,spanish_cond2,001,1062,
images/hand01a.jpg,cupcake,x,sounds/greatgatsby_spanish.wav,,,,,,,,,0,0,0,0,0,93,93,163,290.928036195,9.62149351835e-06,292.315380574,1.38735464239,,,,,x,1,1.36724975449,2018_Nov_28_1540,59.9792631046,spanish_cond2,001,1062,
images/nailpolish02b.jpg,nail polish,z,sounds/greatgatsby_spanish.wav,,,,,,,,,0,0,0,0,0,94,94,94,293.425364609,9.621726349e-06,294.365877399,0.940524657257,,,,,z,1,0.917130799964,2018_Nov_28_1540,59.9792631046,spanish_cond2,001,1062,
images/pictureframe04.jpg,picture frame,z,sounds/greatgatsby_spanish.wav,,,,,,,,,0,0,0,0,0,95,95,41,295.488896401,9.30088572204e-06,296.316373199,0.82748673996,,,,,z,1,0.817131056683,2018_Nov_28_1540,59.9792631046,spanish_cond2,001,1062,
images/highlighter03b.jpg,coin,x,sounds/greatgatsby_spanish.wav,,,,,,,,,0,0,0,0,0,96,96,156,297.420218037,9.30088572204e-06,298.850313567,1.43010579213,,,,,x,1,1.41726774676,2018_Nov_28_1540,59.9792631046,spanish_cond2,001,1062,
images/doorhandle.jpg,doll,x,sounds/greatgatsby_spanish.wav,,,,,,,,,0,0,0,0,0,97,97,168,299.954525308,8.65943729877e-06,301.100848365,1.14633267885,,,,,x,1,1.13385800761,2018_Nov_28_1540,59.9792631046,spanish_cond2,001,1062,
images/cockroach02.jpg,belt,x,sounds/greatgatsby_spanish.wav,,,,,,,,,0,0,0,0,0,98,98,129,302.201091213,9.62149351835e-06,303.351393426,1.15031247609,,,,,x,1,1.13385640411,2018_Nov_28_1540,59.9792631046,spanish_cond2,001,1062,
images/doll.jpg,carrot,x,sounds/greatgatsby_spanish.wav,,,,,,,,,0,0,0,0,0,99,99,146,304.464168354,8.98004509509e-06,305.785341107,1.3211820533,,,,,x,1,1.30057876883,2018_Nov_28_1540,59.9792631046,spanish_cond2,001,1062,
images/mailbox01.jpg,mail box,z,sounds/greatgatsby_spanish.wav,,,,,,,,,0,0,0,0,0,100,100,73,306.906541313,9.30088572204e-06,307.71912939,0.812598019606,,,,,z,1,0.800434766104,2018_Nov_28_1540,59.9792631046,spanish_cond2,001,1062,
images/gamecontroller01.jpg,game controller,z,sounds/greatgatsby_spanish.wav,,,,,,,,,0,0,0,0,0,101,101,112,308.84084916,9.30088572204e-06,310.119712713,1.2788738159,,,,,z,1,1.26722499495,2018_Nov_28_1540,59.9792631046,spanish_cond2,001,1062,
images/boxingglove02a.jpg,bracelet,x,sounds/greatgatsby_spanish.wav,,,,,,,,,0,0,0,0,0,102,102,135,311.23264351,9.30088572204e-06,312.520314317,1.28768042824,,,,,x,1,1.26724231383,2018_Nov_28_1540,59.9792631046,spanish_cond2,001,1062,
images/skateboard.jpg,key,x,sounds/greatgatsby_spanish.wav,,,,,,,,,0,0,0,0,0,103,103,189,313.611591797,9.94233414531e-06,314.370748474,0.759166939883,,,,,x,1,0.750435375376,2018_Nov_28_1540,59.9792631046,spanish_cond2,001,1062,
images/backpack01b.jpg,swallow,x,sounds/greatgatsby_spanish.wav,,,,,,,,,0,0,0,0,0,104,104,228,315.503340605,8.98004509509e-06,316.187868947,0.684538283851,,,,,x,1,0.667084456189,2018_Nov_28_1540,59.9792631046,spanish_cond2,001,1062,
images/kiwi03.jpg,backpack,x,sounds/greatgatsby_spanish.wav,,,,,,,,,0,0,0,0,0,105,105,125,317.317930287,9.30088572204e-06,318.838529403,1.52060937835,,,,,x,1,1.50063534337,2018_Nov_28_1540,59.9792631046,spanish_cond2,001,1062,
images/50dollarbill.jpg,cherry,x,sounds/greatgatsby_spanish.wav,,,,,,,,,0,0,0,0,0,106,106,151,319.960101642,9.30088572204e-06,321.622520925,1.66242890479,,,,,x,1,1.65066205943,2018_Nov_28_1540,59.9792631046,spanish_cond2,001,1062,
images/weight01.jpg,weight,z,sounds/greatgatsby_spanish.wav,,,,,,,,,0,0,0,0,0,107,107,67,322.729486677,8.98004509509e-06,323.973099726,1.24362299149,,,,,z,1,1.23390008602,2018_Nov_28_1540,59.9792631046,spanish_cond2,001,1062,
images/button07.jpg,radish,x,sounds/greatgatsby_spanish.wav,,,,,,,,,0,0,0,0,0,108,108,215,325.086918593,8.98027792573e-06,326.290333413,1.20342412032,,,,,x,1,1.18387984857,2018_Nov_28_1540,59.9792631046,spanish_cond2,001,1062,
images/blueberry02.jpg,blueberry,z,sounds/greatgatsby_spanish.wav,,,,,,,,,0,0,0,0,0,109,109,46,327.404684993,9.94210131466e-06,328.907628228,1.50295317685,,,,,z,1,1.48395316489,2018_Nov_28_1540,59.9792631046,spanish_cond2,001,1062,
images/dolphin01.jpg,dolphin,z,sounds/greatgatsby_spanish.wav,,,,,,,,,0,0,0,0,0,110,110,99,330.009435221,9.30088572204e-06,331.541594318,1.53216903913,,,,,z,1,1.51728737471,2018_Nov_28_1540,59.9792631046,spanish_cond2,001,1062,
images/candycane01a.jpg,lip,x,sounds/greatgatsby_spanish.wav,,,,,,,,,0,0,0,0,0,111,111,200,332.637781038,8.65943729877e-06,333.875509862,1.23773876694,,,,,x,1,1.21722784941,2018_Nov_28_1540,59.9792631046,spanish_cond2,001,1062,
images/screw03c.jpg,screw,z,sounds/greatgatsby_spanish.wav,,,,,,,,,0,0,0,0,0,112,112,84,334.970672848,9.94233414531e-06,336.092699546,1.1220366403,,,,,z,1,1.10051449668,2018_Nov_28_1540,59.9792631046,spanish_cond2,001,1062,
images/bus.jpg,microphone,x,sounds/greatgatsby_spanish.wav,,,,,,,,,0,0,0,0,0,113,113,203,337.212871849,8.98027792573e-06,339.310179481,2.09731725301,,,,,x,1,2.08409755235,2018_Nov_28_1540,59.9792631046,spanish_cond2,001,1062,
images/comb02a.jpg,diploma,x,sounds/greatgatsby_spanish.wav,,,,,,,,,0,0,0,0,0,114,114,166,340.41640341,8.98027792573e-06,341.760765081,1.34437129227,,,,,x,1,1.33382702619,2018_Nov_28_1540,59.9792631046,spanish_cond2,001,1062,
images/antelope.jpg,antelope,z,sounds/greatgatsby_spanish.wav,,,,,,,,,0,0,0,0,0,115,115,12,342.867006329,8.98004509509e-06,343.561205299,0.694209232926,,,,,z,1,0.683765352005,2018_Nov_28_1540,59.9792631046,spanish_cond2,001,1062,
images/beachumbrella01.jpg,beach umbrella,z,sounds/greatgatsby_spanish.wav,,,,,,,,,0,0,0,0,0,116,116,92,344.668708254,8.98027792573e-06,345.995113211,1.32641489827,,,,,z,1,1.31724074227,2018_Nov_28_1540,59.9792631046,spanish_cond2,001,1062,
images/cauliflower01.jpg,glue stick,x,sounds/greatgatsby_spanish.wav,,,,,,,,,0,0,0,0,0,117,117,181,347.112692183,9.62149351835e-06,349.129210795,2.01652823389,,,,,x,1,2.00073989783,2018_Nov_28_1540,59.9792631046,spanish_cond2,001,1062,
images/sportshorts02.jpg,tape,x,sounds/greatgatsby_spanish.wav,,,,,,,,,0,0,0,0,0,118,118,230,350.238648646,9.621726349e-06,352.229965831,1.99132712721,,,,,x,1,1.96739959437,2018_Nov_28_1540,59.9792631046,spanish_cond2,001,1062,
images/straw.jpg,straw,z,sounds/greatgatsby_spanish.wav,,,,,,,,,0,0,0,0,0,119,119,109,353.322639399,8.65943729877e-06,354.280466504,0.957836727146,,,,,z,1,0.933815544471,2018_Nov_28_1540,59.9792631046,spanish_cond2,001,1062,
images/diaper01a.jpg,camera,x,sounds/greatgatsby_spanish.wav,,,,,,,,,0,0,0,0,0,120,120,143,355.402636884,8.98004509509e-06,356.864429996,1.46180241299,,,,,x,1,1.45060965396,2018_Nov_28_1540,59.9792631046,spanish_cond2,001,1062,
images/mushroom01.jpg,shower head,x,sounds/greatgatsby_spanish.wav,,,,,,,,,0,0,0,0,0,121,121,222,357.981838026,9.30088572204e-06,358.798244258,0.816416174872,,,,,x,1,0.800458178623,2018_Nov_28_1540,59.9792631046,spanish_cond2,001,1062,
images/globe.jpg,cloud,x,sounds/greatgatsby_spanish.wav,,,,,,,,,0,0,0,0,0,122,122,154,359.927239851,9.30088572204e-06,361.548912796,1.62168320827,,,,,x,1,1.6006568959,2018_Nov_28_1540,59.9792631046,spanish_cond2,001,1062,
images/lighter02b.jpg,stapler,x,sounds/greatgatsby_spanish.wav,,,,,,,,,0,0,0,0,0,123,123,227,362.652262766,9.62149351835e-06,363.449360776,0.797107951948,,,,,x,1,0.783752907999,2018_Nov_28_1540,59.9792631046,spanish_cond2,001,1062,
images/atm.jpg,atm,z,sounds/greatgatsby_spanish.wav,,,,,,,,,0,0,0,0,0,124,124,96,364.588514489,9.30088572204e-06,365.549873669,0.961369442986,,,,,z,1,0.950489705196,2018_Nov_28_1540,59.9792631046,spanish_cond2,001,1062,
images/baseball01a.jpg,baseball,z,sounds/greatgatsby_spanish.wav,,,,,,,,,0,0,0,0,0,125,125,74,366.683131933,9.30088572204e-06,369.384356244,2.70123617793,,,,,z,1,2.6844542555,2018_Nov_28_1540,59.9792631046,spanish_cond2,001,1062,
images/radish01.jpg,raisin,x,sounds/greatgatsby_spanish.wav,,,,,,,,,0,0,0,0,0,126,126,214,370.497332583,9.30088572204e-06,372.684966764,2.18764508492,,,,,z,0,2.16746354545,2018_Nov_28_1540,59.9792631046,spanish_cond2,001,1062,
images/swan.jpg,swan,z,sounds/greatgatsby_spanish.wav,,,,,,,,,0,0,0,0,0,127,127,54,373.778722116,9.30088572204e-06,374.668767588,0.890055413824,,,,,z,1,0.867138144327,2018_Nov_28_1540,59.9792631046,spanish_cond2,001,1062,
images/coffeepot03b.jpg,coffee pot,z,sounds/greatgatsby_spanish.wav,,,,,,,,,0,0,0,0,0,128,128,107,375.79184528,8.98004509509e-06,376.752609206,0.960773547646,,,,,z,1,0.950491308933,2018_Nov_28_1540,59.9792631046,spanish_cond2,001,1062,
images/cookingpot.jpg,grasshopper,x,sounds/greatgatsby_spanish.wav,,,,,,,,,0,0,0,0,0,129,129,183,377.867892154,8.98004509509e-06,379.119842604,1.25196039258,,,,,x,1,1.23387955991,2018_Nov_28_1540,59.9792631046,spanish_cond2,001,1062,
images/tulip02.jpg,sport shorts,x,sounds/greatgatsby_spanish.wav,,,,,,,,,0,0,0,0,0,130,130,225,380.216067489,8.65943729877e-06,381.403778322,1.18772045383,,,,,x,1,1.1672477019,2018_Nov_28_1540,59.9792631046,spanish_cond2,001,1062,
images/gps.jpg,gps,z,sounds/greatgatsby_spanish.wav,,,,,,,,,0,0,0,0,0,131,131,21,382.524238309,8.98027792573e-06,384.721227852,2.19699948491,,,,,z,1,2.18413514062,2018_Nov_28_1540,59.9792631046,spanish_cond2,001,1062,
images/gorilla.jpg,gorilla,z,sounds/greatgatsby_spanish.wav,,,,,,,,,0,0,0,0,0,132,132,80,385.834577828,8.98004509509e-06,386.738363527,0.903795320075,,,,,z,1,0.883797552204,2018_Nov_28_1540,59.9792631046,spanish_cond2,001,1062,
images/hairpin.jpg,hair pin,z,sounds/greatgatsby_spanish.wav,,,,,,,,,0,0,0,0,0,133,133,28,387.831005665,8.98027792573e-06,388.788863559,0.957868478494,,,,,z,1,0.933810733492,2018_Nov_28_1540,59.9792631046,spanish_cond2,001,1062,
images/corn01.jpg,corn,z,sounds/greatgatsby_spanish.wav,,,,,,,,,0,0,0,0,0,134,134,22,389.890354323,1.05837825686e-05,390.589293835,0.698950095568,,,,,z,1,0.683732638601,2018_Nov_28_1540,59.9792631046,spanish_cond2,001,1062,
images/saltshaker03c.jpg,salt shaker,z,sounds/greatgatsby_spanish.wav,,,,,,,,,0,0,0,0,0,135,135,63,391.70230834,8.98004509509e-06,392.773178495,1.07088073832,,,,,z,1,1.05051125749,2018_Nov_28_1540,59.9792631046,spanish_cond2,001,1062,
images/bracelet02a.jpg,chess knight,x,sounds/greatgatsby_spanish.wav,,,,,,,,,0,0,0,0,0,136,136,152,393.883649701,8.98004509509e-06,396.357370018,2.47373025888,,,,,x,1,2.45084570278,2018_Nov_28_1540,59.9792631046,spanish_cond2,001,1062,
images/barrel01.jpg,barrel,z,sounds/greatgatsby_spanish.wav,,,,,,,,,0,0,0,0,0,137,137,9,397.488993579,9.30088572204e-06,398.291177223,0.80219358718,,,,,z,1,0.783776320517,2018_Nov_28_1540,59.9792631046,spanish_cond2,001,1062,
images/banjo.jpg,knife,x,sounds/greatgatsby_spanish.wav,,,,,,,,,0,0,0,0,0,138,138,191,399.3896388,9.621726349e-06,400.258175278,0.868547382066,,,,,x,1,0.850305548636,2018_Nov_28_1540,59.9792631046,spanish_cond2,001,1062,
images/lychee02a.jpg,lychee,z,sounds/greatgatsby_spanish.wav,,,,,,,,,0,0,0,0,0,139,139,62,401.384196526,8.98004509509e-06,402.75893474,1.37474783487,,,,,z,1,1.35058104596,2018_Nov_28_1540,59.9792631046,spanish_cond2,001,1062,
images/icecube02 (2).jpg,aloe,x,sounds/greatgatsby_spanish.wav,,,,,,,,,0,0,0,0,0,140,140,122,403.871022368,9.30088572204e-06,405.009480763,1.13846865855,,,,,x,1,1.11716524512,2018_Nov_28_1540,59.9792631046,spanish_cond2,001,1062,
images/hat05.jpg,hat,z,sounds/greatgatsby_spanish.wav,,,,,,,,,0,0,0,0,0,141,141,15,406.114984038,8.98027792573e-06,406.876637188,0.761663092999,,,,,z,1,0.750465843827,2018_Nov_28_1540,59.9792631046,spanish_cond2,001,1062,
images/puma.jpg,puma,z,sounds/greatgatsby_spanish.wav,,,,,,,,,0,0,0,0,0,142,142,4,407.975529811,8.65943729877e-06,409.027123494,1.0516039459,,,,,z,1,1.03383485181,2018_Nov_28_1540,59.9792631046,spanish_cond2,001,1062,
images/ceilingfan02.jpg,paper clip,x,sounds/greatgatsby_spanish.wav,,,,,,,,,0,0,0,0,0,143,143,208,410.127001364,9.30088572204e-06,411.177664322,1.05067257909,,,,,x,1,1.03385281214,2018_Nov_28_1540,59.9792631046,spanish_cond2,001,1062,
images/pepper05a.jpg,lighter,x,sounds/greatgatsby_spanish.wav,,,,,,,,,0,0,0,0,0,144,144,198,412.299234316,9.62149351835e-06,413.328176606,1.02895287308,,,,,x,1,1.01714657922,2018_Nov_28_1540,59.9792631046,spanish_cond2,001,1062,
images/ladybug03.jpg,giraffe,x,sounds/greatgatsby_spanish.wav,,,,,,,,,0,0,0,0,0,145,145,178,414.431337352,9.30088572204e-06,415.528723559,1.09739711182,,,,,x,1,1.08382782782,2018_Nov_28_1540,59.9792631046,spanish_cond2,001,1062,
images/worldmap.jpg,scooter,x,sounds/greatgatsby_spanish.wav,,,,,,,,,0,0,0,0,0,146,146,220,416.66168131,9.30088572204e-06,418.07932558,1.41765485425,,,,,x,1,1.40052783862,2018_Nov_28_1540,59.9792631046,spanish_cond2,001,1062,
images/cola.jpg,comb,x,sounds/greatgatsby_spanish.wav,,,,,,,,,0,0,0,0,0,147,147,157,419.202316037,8.98027792573e-06,420.096509042,0.894203267759,,,,,x,1,0.883826096077,2018_Nov_28_1540,59.9792631046,spanish_cond2,001,1062,
images/glasses01b.jpg,calculator,x,sounds/greatgatsby_spanish.wav,,,,,,,,,0,0,0,0,0,148,148,142,421.191526422,8.98004509509e-06,422.163659502,0.972142701969,,,,,x,1,0.95048521529,2018_Nov_28_1540,59.9792631046,spanish_cond2,001,1062,
images/highheelshoe02a.jpg,high heel shoe,z,sounds/greatgatsby_spanish.wav,,,,,,,,,0,0,0,0,0,149,149,75,423.271894658,9.62149351835e-06,424.747613693,1.47572929808,,,,,z,1,1.4672578366,2018_Nov_28_1540,59.9792631046,spanish_cond2,001,1062,
images/flashlight05.jpg,flash light,z,sounds/greatgatsby_spanish.wav,,,,,,,,,0,0,0,0,0,150,150,8,425.851987718,9.30088572204e-06,427.665004917,1.81302810344,,,,,z,1,1.80070416979,2018_Nov_28_1540,59.9792631046,spanish_cond2,001,1062,
images/tissuebox03.jpg,tissue box,z,sounds/greatgatsby_spanish.wav,,,,,,,,,0,0,0,0,0,151,151,58,428.791986396,9.30088572204e-06,429.732157301,0.940180526115,,,,,z,1,0.917133686366,2018_Nov_28_1540,59.9792631046,spanish_cond2,001,1062,
images/scooter.jpg,pen,x,sounds/greatgatsby_spanish.wav,,,,,,,,,0,0,0,0,0,152,152,212,430.82625518,9.30088572204e-06,431.782665351,0.956420113333,,,,,x,1,0.933815223863,2018_Nov_28_1540,59.9792631046,spanish_cond2,001,1062,
images/candle08a.jpg,screw driver,x,sounds/greatgatsby_spanish.wav,,,,,,,,,0,0,0,0,0,153,153,221,432.899516292,9.30088572204e-06,433.783153485,0.883647455834,,,,,x,1,0.867131729843,2018_Nov_28_1540,59.9792631046,spanish_cond2,001,1062,
images/nametag01a.jpg,name tag,z,sounds/greatgatsby_spanish.wav,,,,,,,,,0,0,0,0,0,154,154,108,434.905681787,8.98004509509e-06,436.050385857,1.14471401204,,,,,z,1,1.13387500588,2018_Nov_28_1540,59.9792631046,spanish_cond2,001,1062,
images/radio03a.jpg,radio,z,sounds/greatgatsby_spanish.wav,,,,,,,,,0,0,0,0,0,155,155,37,437.165920889,1.3149343431e-05,438.917750428,1.75183948153,,,,,z,1,1.73402324179,2018_Nov_28_1540,59.9792631046,spanish_cond2,001,1062,
images/giraffe.jpg,lettuce,x,sounds/greatgatsby_spanish.wav,,,,,,,,,0,0,0,0,0,156,156,195,440.0210029,9.30088572204e-06,440.984908586,0.963915627915,,,,,x,1,0.950487139402,2018_Nov_28_1540,59.9792631046,spanish_cond2,001,1062,
images/dresser02.jpg,dresser,z,sounds/greatgatsby_spanish.wav,,,,,,,,,0,0,0,0,0,157,157,87,442.107306996,8.98027792573e-06,443.035403487,0.928106432548,,,,,z,1,0.917135610711,2018_Nov_28_1540,59.9792631046,spanish_cond2,001,1062,
images/flower01.jpg,bus,x,sounds/greatgatsby_spanish.wav,,,,,,,,,0,0,0,0,0,158,158,140,444.151222996,9.30088572204e-06,445.269293951,1.11808089679,,,,,x,1,1.10050872387,2018_Nov_28_1540,59.9792631046,spanish_cond2,001,1062,
images/lettuce.jpg,mushroom,x,sounds/greatgatsby_spanish.wav,,,,,,,,,0,0,0,0,0,159,159,205,446.448154232,9.62149351835e-06,447.319794625,0.871650655288,,,,,x,1,0.850452437764,2018_Nov_28_1540,59.9792631046,spanish_cond2,001,1062,
images/floorlamp.jpg,floor lamp,z,sounds/greatgatsby_spanish.wav,,,,,,,,,0,0,0,0,0,160,160,26,448.414223165,8.98027792573e-06,449.787063045,1.37284982228,,,,,z,1,1.35059002601,2018_Nov_28_1540,59.9792631046,spanish_cond2,001,1062,
images/fryingpan01.jpg,frying pan,z,sounds/greatgatsby_spanish.wav,,,,,,,,,0,0,0,0,0,161,161,45,450.88981712,9.62149351835e-06,451.687533154,0.797726297518,,,,,z,1,0.783795884345,2018_Nov_28_1540,59.9792631046,spanish_cond2,001,1062,
images/paintbrush03a.jpg,paint brush,z,sounds/greatgatsby_spanish.wav,,,,,,,,,0,0,0,0,0,162,162,0,452.789876068,9.30088572204e-06,453.48799454,0.69812841434,,,,,z,1,0.683790047187,2018_Nov_28_1540,59.9792631046,spanish_cond2,001,1062,
images/fireextinguisher02.jpg,fire extinguisher,z,sounds/greatgatsby_spanish.wav,,,,,,,,,0,0,0,0,0,163,163,175,454.600171328,9.3006528914e-06,455.638693162,1.03853145498,,,,,z,1,1.01738840109,2018_Nov_28_1540,59.9792631046,spanish_cond2,001,1062,
images/parkbench03.jpg,park bench,z,sounds/greatgatsby_spanish.wav,,,,,,,,,0,0,0,0,0,164,164,71,456.746087072,9.30088572204e-06,458.322455627,1.5763784966,,,,,z,1,1.56730023562,2018_Nov_28_1540,59.9792631046,spanish_cond2,001,1062,
images/handfan01b.jpg,handfan,z,sounds/greatgatsby_spanish.wav,,,,,,,,,0,0,0,0,0,165,165,69,459.438779627,9.30088572204e-06,460.18957998,0.750810616184,,,,,z,1,0.733768270584,2018_Nov_28_1540,59.9792631046,spanish_cond2,001,1062,
images/ashtray02b.jpg,ashtray,z,sounds/greatgatsby_spanish.wav,,,,,,,,,0,0,0,0,0,166,166,43,461.304964596,9.30088572204e-06,462.406802057,1.10184708261,,,,,z,1,1.08386246557,2018_Nov_28_1540,59.9792631046,spanish_cond2,001,1062,
images/tank.jpg,wallet,x,sounds/greatgatsby_spanish.wav,,,,,,,,,0,0,0,0,0,167,167,237,463.512959598,8.98004509509e-06,465.590889731,2.07793943421,,,,,x,1,2.0674166563,2018_Nov_28_1540,59.9792631046,spanish_cond2,001,1062,
images/marker01a.jpg,marker,z,sounds/greatgatsby_spanish.wav,,,,,,,,,0,0,0,0,0,168,168,95,466.691041495,9.30088572204e-06,467.591398712,0.900367800146,,,,,z,1,0.883730201283,2018_Nov_28_1540,59.9792631046,spanish_cond2,001,1062,
images/ear.jpg,bullet,x,sounds/greatgatsby_spanish.wav,,,,,,,,,0,0,0,0,0,169,169,139,468.697457471,8.98004509509e-06,470.025303416,1.32785588689,,,,,x,1,1.31721059489,2018_Nov_28_1540,59.9792631046,spanish_cond2,001,1062,
images/squirrel.jpg,binder,x,sounds/greatgatsby_spanish.wav,,,,,,,,,0,0,0,0,0,170,170,132,471.130062303,9.30088572204e-06,472.109156901,0.979104540776,,,,,x,1,0.967160658911,2018_Nov_28_1540,59.9792631046,spanish_cond2,001,1062,
images/rubberglove02a.jpg,lady bug,x,sounds/greatgatsby_spanish.wav,,,,,,,,,0,0,0,0,0,171,171,192,473.215386283,9.62149351835e-06,474.142983735,0.927607714897,,,,,x,1,0.917151326081,2018_Nov_28_1540,59.9792631046,spanish_cond2,001,1062,
images/graduationcap.jpg,graduation cap,z,sounds/greatgatsby_spanish.wav,,,,,,,,,0,0,0,0,0,172,172,35,475.247265393,8.65943729877e-06,476.21015857,0.962903119158,,,,,z,1,0.950496761128,2018_Nov_28_1540,59.9792631046,spanish_cond2,001,1062,
images/tie01.jpg,bench,x,sounds/greatgatsby_spanish.wav,,,,,,,,,0,0,0,0,0,173,173,130,477.310114054,9.62149351835e-06,478.47738132,1.16727752867,,,,,x,1,1.15054178983,2018_Nov_28_1540,59.9792631046,spanish_cond2,001,1062,
images/table02.jpg,table,z,sounds/greatgatsby_spanish.wav,,,,,,,,,0,0,0,0,0,174,174,49,479.593502946,9.30088572204e-06,480.677961949,1.0844692653,,,,,z,1,1.06724058185,2018_Nov_28_1540,59.9792631046,spanish_cond2,001,1062,
images/aloe02.jpg,broad sword,x,sounds/greatgatsby_spanish.wav,,,,,,,,,0,0,0,0,0,175,175,137,481.801151893,8.98004509509e-06,482.961789263,1.16064763349,,,,,x,1,1.15053954488,2018_Nov_28_1540,59.9792631046,spanish_cond2,001,1062,
images/toothbrush03a.jpg,parrot,x,sounds/greatgatsby_spanish.wav,,,,,,,,,0,0,0,0,0,176,176,210,484.056038201,9.30088572204e-06,484.995629888,0.939601949649,,,,,x,1,0.917150684632,2018_Nov_28_1540,59.9792631046,spanish_cond2,001,1062,
images/scissors04a.jpg,leek,x,sounds/greatgatsby_spanish.wav,,,,,,,,,0,0,0,0,0,177,177,194,486.092180944,9.62149351835e-06,486.796367092,0.704196731327,,,,,x,1,0.684006853029,2018_Nov_28_1540,59.9792631046,spanish_cond2,001,1062,
images/seagull.jpg,seagull,z,sounds/greatgatsby_spanish.wav,,,,,,,,,0,0,0,0,0,178,178,50,487.905541633,8.98004509509e-06,488.629851591,0.724319900153,,,,,z,1,0.700433419086,2018_Nov_28_1540,59.9792631046,spanish_cond2,001,1062,
images/leaf01a.jpg,leaf,z,sounds/greatgatsby_spanish.wav,,,,,,,,,0,0,0,0,0,179,179,68,489.735018753,9.30088572204e-06,491.313822523,1.57881403388,,,,,z,1,1.56727425754,2018_Nov_28_1540,59.9792631046,spanish_cond2,001,1062,
images/gluestick.jpg,squirrel,x,sounds/greatgatsby_spanish.wav,,,,,,,,,0,0,0,0,0,180,180,226,492.423171214,9.30088572204e-06,494.581303452,2.15814314177,,,,,x,1,2.13412227971,2018_Nov_28_1540,59.9792631046,spanish_cond2,001,1062,
images/hairband.jpg,hairband,z,sounds/greatgatsby_spanish.wav,,,,,,,,,0,0,0,0,0,181,181,66,495.692746756,9.62149351835e-06,496.515481729,0.82274523587,,,,,z,1,0.800832777983,2018_Nov_28_1540,59.9792631046,spanish_cond2,001,1062,
images/magnifyingglass01b.jpg,magnifying glass,z,sounds/greatgatsby_spanish.wav,,,,,,,,,0,0,0,0,0,182,182,64,497.624022209,9.30088572204e-06,499.64919413,2.0251821843,,,,,z,1,2.00075561297,2018_Nov_28_1540,59.9792631046,spanish_cond2,001,1062,
images/chameleon.jpg,50 dollar bill,x,sounds/greatgatsby_spanish.wav,,,,,,,,,0,0,0,0,0,183,183,120,500.763525826,8.98004509509e-06,501.499636946,0.73612138303,,,,,x,1,0.717088336824,2018_Nov_28_1540,59.9792631046,spanish_cond2,001,1062,
images/honeycomb.jpg,honey comb,z,sounds/greatgatsby_spanish.wav,,,,,,,,,0,0,0,0,0,184,184,59,502.613279418,9.3006528914e-06,503.600157216,0.986887739971,,,,,z,1,0.967164828209,2018_Nov_28_1540,59.9792631046,spanish_cond2,001,1062,
images/carrot02.jpg,corkscrew,x,sounds/greatgatsby_spanish.wav,,,,,,,,,0,0,0,0,0,185,185,161,504.703461003,8.98004509509e-06,505.934066346,1.23061496508,,,,,x,1,1.2172275288,2018_Nov_28_1540,59.9792631046,spanish_cond2,001,1062,
images/mirror02.jpg,8 ball,x,sounds/greatgatsby_spanish.wav,,,,,,,,,0,0,0,0,0,186,186,121,507.03952889,9.30088572204e-06,507.76783436,0.728315412765,,,,,z,0,0.717098920373,2018_Nov_28_1540,59.9792631046,spanish_cond2,001,1062,
images/puzzle.jpg,puzzle,z,sounds/greatgatsby_spanish.wav,,,,,,,,,0,0,0,0,0,187,187,57,508.890363304,9.30088572204e-06,509.634806693,0.744453652529,,,,,z,1,0.733618174214,2018_Nov_28_1540,59.9792631046,spanish_cond2,001,1062,
images/belt02a.jpg,snowman,x,sounds/greatgatsby_spanish.wav,,,,,,,,,0,0,0,0,0,188,188,224,510.739095407,8.98004509509e-06,511.41855447,0.679469005438,,,,,x,1,0.666916720336,2018_Nov_28_1540,59.9792631046,spanish_cond2,001,1062,
images/blackolive.jpg,tank,x,sounds/greatgatsby_spanish.wav,,,,,,,,,0,0,0,0,0,189,189,229,512.535951274,9.30088572204e-06,513.269170153,0.733229142614,,,,,x,1,0.717094430467,2018_Nov_28_1540,59.9792631046,spanish_cond2,001,1062,
images/lollipop03b.jpg,lollipop,z,sounds/greatgatsby_spanish.wav,,,,,,,,,0,0,0,0,0,190,190,42,514.364480991,9.30088572204e-06,515.219668518,0.855197469704,,,,,x,0,0.833812273107,2018_Nov_28_1540,59.9792631046,spanish_cond2,001,1062,
images/envelope02a.jpg,grand piano,x,sounds/greatgatsby_spanish.wav,,,,,,,,,0,0,0,0,0,191,191,182,516.344128508,8.98004509509e-06,517.120120988,0.776002421975,,,,,x,1,0.767129741609,2018_Nov_28_1540,59.9792631046,spanish_cond2,001,1062,
images/razor04a.jpg,razor,z,sounds/greatgatsby_spanish.wav,,,,,,,,,0,0,0,0,0,192,192,36,518.221996294,8.98004509509e-06,518.987232192,0.765245840419,,,,,z,1,0.75043826201,2018_Nov_28_1540,59.9792631046,spanish_cond2,001,1062,
images/shotglass.jpg,shot glass,z,sounds/greatgatsby_spanish.wav,,,,,,,,,0,0,0,0,0,193,193,86,520.098678383,9.30088572204e-06,520.937698485,0.839030364994,,,,,z,1,0.817115662154,2018_Nov_28_1540,59.9792631046,spanish_cond2,001,1062,
images/bowtie.jpg,bowtie,z,sounds/greatgatsby_spanish.wav,,,,,,,,,0,0,0,0,0,194,194,89,522.048987203,9.30088572204e-06,522.938218049,0.889241109369,,,,,z,1,0.867153538857,2018_Nov_28_1540,59.9792631046,spanish_cond2,001,1062,
images/lightswitch02a.jpg,fork,x,sounds/greatgatsby_spanish.wav,,,,,,,,,0,0,0,0,0,195,195,177,524.051577647,9.30088572204e-06,524.955342499,0.903774793958,,,,,x,1,0.883795948466,2018_Nov_28_1540,59.9792631046,spanish_cond2,001,1062,
images/lantern03.jpg,lantern,z,sounds/greatgatsby_spanish.wav,,,,,,,,,0,0,0,0,0,196,196,5,526.063885865,8.98004509509e-06,527.089217184,1.02534126048,,,,,z,1,1.0005134705,2018_Nov_28_1540,59.9792631046,spanish_cond2,001,1062,
images/hammer02a.jpg,flower,x,sounds/greatgatsby_spanish.wav,,,,,,,,,0,0,0,0,0,197,197,176,528.186323083,9.30088572204e-06,528.906305264,0.719991802471,,,,,x,1,0.700423156144,2018_Nov_28_1540,59.9792631046,spanish_cond2,001,1062,
images/fork01.jpg,cooking pot,x,sounds/greatgatsby_spanish.wav,,,,,,,,,0,0,0,0,0,198,198,160,530.002243427,9.30088572204e-06,531.30688987,1.30465702666,,,,,x,1,1.28382346616,2018_Nov_28_1540,59.9792631046,spanish_cond2,001,1062,
images/remotecontrol01c.jpg,remote control,z,sounds/greatgatsby_spanish.wav,,,,,,,,,0,0,0,0,0,199,199,85,532.418410467,9.30088572204e-06,533.224038951,0.805638425751,,,,,z,1,0.783708328148,2018_Nov_28_1540,59.9792631046,spanish_cond2,001,1062,
images/stapler03a.jpg,candy cane,x,sounds/greatgatsby_spanish.wav,,,,,,,,,0,0,0,0,0,200,200,145,534.337080075,9.30088572204e-06,535.14115628,0.804086468415,,,,,x,1,0.783772151219,2018_Nov_28_1540,59.9792631046,spanish_cond2,001,1062,
images/safe.jpg,safe,z,sounds/greatgatsby_spanish.wav,,,,,,,,,0,0,0,0,0,201,201,78,536.25386033,9.62149351835e-06,537.191671066,0.937820678577,,,,,z,1,0.917155174538,2018_Nov_28_1540,59.9792631046,spanish_cond2,001,1062,
images/pingpongpaddle01c (1).jpg,ping pong paddle,z,sounds/greatgatsby_spanish.wav,,,,,,,,,0,0,0,0,0,202,202,10,538.304570112,8.98004509509e-06,539.358855265,1.0542944544,,,,,z,1,1.03383870027,2018_Nov_28_1540,59.9792631046,spanish_cond2,001,1062,
images/showerhead01.jpg,skateboard,x,sounds/greatgatsby_spanish.wav,,,,,,,,,0,0,0,0,0,203,203,223,540.467867843,9.3006528914e-06,541.642750573,1.1748923508,,,,,x,1,1.15053473413,2018_Nov_28_1540,59.9792631046,spanish_cond2,001,1062,
images/masquerademask02b.jpg,mirror,x,sounds/greatgatsby_spanish.wav,,,,,,,,,0,0,0,0,0,204,204,204,542.748132295,9.3006528914e-06,543.676571313,0.928448959719,,,,,x,1,0.917141383747,2018_Nov_28_1540,59.9792631046,spanish_cond2,001,1062,
images/pouch01b.jpg,pouch,z,sounds/greatgatsby_spanish.wav,,,,,,,,,0,0,0,0,0,205,205,25,544.79113553,8.98004509509e-06,545.543702401,0.7525768138,,,,,z,1,0.733720804332,2018_Nov_28_1540,59.9792631046,spanish_cond2,001,1062,
images/cactus.jpg,cactus,z,sounds/greatgatsby_spanish.wav,,,,,,,,,0,0,0,0,0,206,206,70,546.657409338,9.3006528914e-06,547.427482635,0.770083239302,,,,,z,1,0.750433771871,2018_Nov_28_1540,59.9792631046,spanish_cond2,001,1062,
images/redfox.jpg,red fox,z,sounds/greatgatsby_spanish.wav,,,,,,,,,0,0,0,0,0,207,207,1,548.540502592,9.30088572204e-06,549.594692813,1.05419952166,,,,,z,1,1.03377423575,2018_Nov_28_1540,59.9792631046,spanish_cond2,001,1062,
images/lipstick04.jpg,lipstick,z,sounds/greatgatsby_spanish.wav,,,,,,,,,0,0,0,0,0,208,208,56,550.695924115,9.3006528914e-06,551.545154294,0.849240121199,,,,,z,1,0.833740432048,2018_Nov_28_1540,59.9792631046,spanish_cond2,001,1062,
images/eyedrops.jpg,bicycle,x,sounds/greatgatsby_spanish.wav,,,,,,,,,0,0,0,0,0,209,209,131,552.647789383,8.33859667182e-06,553.795703525,1.14792376384,,,,,x,1,1.13377013057,2018_Nov_28_1540,59.9792631046,spanish_cond2,001,1062,
images/dice05a.jpg,band aid,x,sounds/greatgatsby_spanish.wav,,,,,,,,,0,0,0,0,0,210,210,126,554.908877106,8.98004509509e-06,555.962908571,1.0540410867,,,,,x,1,1.03385056695,2018_Nov_28_1540,59.9792631046,spanish_cond2,001,1062,
images/handbag02a.jpg,candle,x,sounds/greatgatsby_spanish.wav,,,,,,,,,0,0,0,0,0,211,211,144,557.079341295,9.62149351835e-06,557.930048384,0.850717030466,,,,,x,1,0.833792388439,2018_Nov_28_1540,59.9792631046,spanish_cond2,001,1062,
images/dryingmachine01.jpg,drying machine,z,sounds/greatgatsby_spanish.wav,,,,,,,,,0,0,0,0,0,212,212,18,559.051879443,9.3006528914e-06,560.230844279,1.17897477793,,,,,z,1,1.16744301957,2018_Nov_28_1540,59.9792631046,spanish_cond2,001,1062,
images/licenseplate.jpg,license plate,z,sounds/greatgatsby_spanish.wav,,,,,,,,,0,0,0,0,0,213,213,40,561.349985792,9.30088572204e-06,562.264444044,0.914468835574,,,,,z,1,0.900485183112,2018_Nov_28_1540,59.9792631046,spanish_cond2,001,1062,
,,,sounds/greatgatsby_spanish.wav,,,,,,,,,0,0,0,0,,,,,,,,,,,,,,,,2018_Nov_28_1540,59.9792631046,spanish_cond2,001,1062,
images/tulip02.jpg,sport shorts,x,sounds/animalfarm_english.wav,,,,,,,,,0,1,1,1,0,0,0,225,583.38550153,9.94233414531e-06,584.286460094,0.900968506001,,,,573.267274706,x,1,0.883803966455,2018_Nov_28_1540,59.9792631046,spanish_cond2,001,1062,
images/chessknight02b (1).jpg,cockroach,x,sounds/animalfarm_english.wav,,,,,,,,,0,1,1,1,0,1,1,155,585.394808784,8.98004509509e-06,586.170266947,0.775467784144,,,,,x,1,0.767126854975,2018_Nov_28_1540,59.9792631046,spanish_cond2,001,1062,
images/hairdryer03a.jpg,hairdryer,z,sounds/animalfarm_english.wav,,,,,,,,,0,1,1,1,0,2,2,119,587.269024547,9.62149351835e-06,588.637349671,1.36833602842,,,,,z,1,1.35040561273,2018_Nov_28_1540,59.9792631046,spanish_cond2,001,1062,
images/coffeepot03b.jpg,coffee pot,z,sounds/animalfarm_english.wav,,,,,,,,,0,1,1,1,0,3,3,107,589.758342051,9.30088572204e-06,590.45462024,0.696288130945,,,,,z,1,0.683748353971,2018_Nov_28_1540,59.9792631046,spanish_cond2,001,1062,
images/banjo.jpg,knife,x,sounds/animalfarm_english.wav,,,,,,,,,0,1,1,1,0,4,4,191,591.551021842,9.62149351835e-06,592.371765473,0.820754214656,,,,,x,1,0.800453367643,2018_Nov_28_1540,59.9792631046,spanish_cond2,001,1062,
images/boxingglove02a.jpg,bracelet,x,sounds/animalfarm_english.wav,,,,,,,,,0,1,1,1,0,5,5,135,593.482194023,9.30088572204e-06,594.189072604,0.706904558698,,,,,x,1,0.683859643294,2018_Nov_28_1540,59.9792631046,spanish_cond2,001,1062,
images/hairband.jpg,hairband,z,sounds/animalfarm_english.wav,,,,,,,,,0,1,1,1,0,6,6,66,595.2979415,8.98004509509e-06,596.089343867,0.791411989368,,,,,z,1,0.767120440723,2018_Nov_28_1540,59.9792631046,spanish_cond2,001,1062,
images/tissuebox03.jpg,tissue box,z,sounds/animalfarm_english.wav,,,,,,,,,0,1,1,1,0,7,7,58,597.214187758,9.30088572204e-06,597.956478484,0.742300668499,,,,,z,1,0.733793607214,2018_Nov_28_1540,59.9792631046,spanish_cond2,001,1062,
images/lychee02a.jpg,lychee,z,sounds/animalfarm_english.wav,,,,,,,,,0,1,1,1,0,8,8,62,599.079992354,9.30088572204e-06,599.840235946,0.760253534419,,,,,z,1,0.750427036779,2018_Nov_28_1540,59.9792631046,spanish_cond2,001,1062,
images/barrel01.jpg,barrel,z,sounds/animalfarm_english.wav,,,,,,,,,0,1,1,1,0,9,9,9,600.969645907,8.98004509509e-06,601.924095205,0.954459560337,,,,,z,1,0.933822920779,2018_Nov_28_1540,59.9792631046,spanish_cond2,001,1062,
images/straw.jpg,straw,z,sounds/animalfarm_english.wav,,,,,,,,,0,1,1,1,0,10,10,109,603.014641125,9.3006528914e-06,603.674509733,0.65987822949,,,,,z,1,0.650406446774,2018_Nov_28_1540,59.9792631046,spanish_cond2,001,1062,
images/bullet (2).jpg,rubber glove,x,sounds/animalfarm_english.wav,,,,,,,,,0,1,1,1,0,11,11,217,604.778927697,8.98027792573e-06,606.108476978,1.32955890289,,,,,x,1,1.31728179427,2018_Nov_28_1540,59.9792631046,spanish_cond2,001,1062,
images/drink.jpg,drink,z,sounds/animalfarm_english.wav,,,,,,,,,0,1,1,1,0,12,12,117,607.209653759,1.05835497379e-05,608.142256666,0.932613811688,,,,,z,1,0.917137535056,2018_Nov_28_1540,59.9792631046,spanish_cond2,001,1062,
images/paintbrush03a.jpg,paint brush,z,sounds/animalfarm_english.wav,,,,,,,,,0,1,1,1,0,13,13,0,609.242175268,8.98004509509e-06,610.659546927,1.41738128127,,,,,z,1,1.40054804389,2018_Nov_28_1540,59.9792631046,spanish_cond2,001,1062,
images/radio03a.jpg,radio,z,sounds/animalfarm_english.wav,,,,,,,,,0,1,1,1,0,14,14,37,611.773199662,9.30088572204e-06,612.576679972,0.803494101157,,,,,z,1,0.783776961965,2018_Nov_28_1540,59.9792631046,spanish_cond2,001,1062,
images/computermouse02a.jpg,world map,x,sounds/animalfarm_english.wav,,,,,,,,,0,1,1,1,0,15,15,239,613.67832853,9.30088572204e-06,614.660523836,0.982205569046,,,,,x,1,0.967157772277,2018_Nov_28_1540,59.9792631046,spanish_cond2,001,1062,
images/parkingmeter.jpg,ear,x,sounds/animalfarm_english.wav,,,,,,,,,0,1,1,1,0,16,16,171,615.761966813,8.98004509509e-06,616.761031918,0.999074405991,,,,,x,1,0.983800823567,2018_Nov_28_1540,59.9792631046,spanish_cond2,001,1062,
images/hanger02a.jpg,hanger,z,sounds/animalfarm_english.wav,,,,,,,,,0,1,1,1,0,17,17,88,617.85434981,8.98027792573e-06,618.828204829,0.973864960717,,,,,z,1,0.950457312632,2018_Nov_28_1540,59.9792631046,spanish_cond2,001,1062,
images/snowman.jpg,globe,x,sounds/animalfarm_english.wav,,,,,,,,,0,1,1,1,0,18,18,180,619.93917379,9.62149351835e-06,621.378820961,1.43965775473,,,,,x,1,1.4172655018,2018_Nov_28_1540,59.9792631046,spanish_cond2,001,1062,
images/table02.jpg,table,z,sounds/animalfarm_english.wav,,,,,,,,,0,1,1,1,0,19,19,49,622.492724819,8.98004509509e-06,623.212612709,0.71989783179,,,,,z,1,0.700435343431,2018_Nov_28_1540,59.9792631046,spanish_cond2,001,1062,
images/headphones02b.jpg,headphones,z,sounds/animalfarm_english.wav,,,,,,,,,0,1,1,1,0,20,20,101,624.319861334,9.62149351835e-06,625.32978982,1.00993842841,,,,,z,1,1.00050481129,2018_Nov_28_1540,59.9792631046,spanish_cond2,001,1062,
images/broom02.jpg,broom,z,sounds/animalfarm_english.wav,,,,,,,,,0,1,1,1,0,21,21,116,626.422463388,9.30088572204e-06,627.046886496,0.624433049699,,,,,z,1,0.600409301231,2018_Nov_28_1540,59.9792631046,spanish_cond2,001,1062,
images/parkbench03.jpg,park bench,z,sounds/animalfarm_english.wav,,,,,,,,,0,1,1,1,0,22,22,71,628.152495608,9.30088572204e-06,628.763950137,0.611464471789,,,,,z,1,0.600398076,2018_Nov_28_1540,59.9792631046,spanish_cond2,001,1062,
images/nailpolish02b.jpg,nail polish,z,sounds/animalfarm_english.wav,,,,,,,,,0,1,1,1,0,23,23,94,629.871867782,9.30088572204e-06,630.431021444,0.559163604164,,,,,z,1,0.550383932423,2018_Nov_28_1540,59.9792631046,spanish_cond2,001,1062,
images/marker01a.jpg,marker,z,sounds/animalfarm_english.wav,,,,,,,,,0,1,1,1,0,24,24,95,631.529162623,8.98004509509e-06,632.148126458,0.618973777397,,,,,z,1,0.600412829081,2018_Nov_28_1540,59.9792631046,spanish_cond2,001,1062,
images/kiwi03.jpg,backpack,x,sounds/animalfarm_english.wav,,,,,,,,,0,1,1,1,0,25,25,125,633.274946616,8.98027792573e-06,633.948553848,0.673616532236,,,,,x,1,0.650420237565,2018_Nov_28_1540,59.9792631046,spanish_cond2,001,1062,
images/bed.jpg,bed,z,sounds/animalfarm_english.wav,,,,,,,,,0,1,1,1,0,26,26,103,635.067446483,8.98027792573e-06,635.799000833,0.731564933667,,,,,z,1,0.717096354812,2018_Nov_28_1540,59.9792631046,spanish_cond2,001,1062,
images/8ball.jpg,nail clipper,x,sounds/animalfarm_english.wav,,,,,,,,,0,1,1,1,0,27,27,206,636.915389939,9.62149351835e-06,637.699461321,0.784081003163,,,,,x,1,0.767111781286,2018_Nov_28_1540,59.9792631046,spanish_cond2,001,1062,
images/safe.jpg,safe,z,sounds/animalfarm_english.wav,,,,,,,,,0,1,1,1,0,28,28,78,638.810193913,8.98004509509e-06,639.616602063,0.806418092456,,,,,z,1,0.783789470093,2018_Nov_28_1540,59.9792631046,spanish_cond2,001,1062,
images/cheetah.jpg,cheetah,z,sounds/animalfarm_english.wav,,,,,,,,,0,1,1,1,0,29,29,82,640.718886927,9.3006528914e-06,641.583732254,0.864855269203,,,,,z,1,0.850455324166,2018_Nov_28_1540,59.9792631046,spanish_cond2,001,1062,
images/corn01.jpg,corn,z,sounds/animalfarm_english.wav,,,,,,,,,0,1,1,1,0,30,30,22,642.682191265,9.30088572204e-06,643.350831527,0.668650204549,,,,,z,1,0.650402598083,2018_Nov_28_1540,59.9792631046,spanish_cond2,001,1062,
images/gps.jpg,gps,z,sounds/animalfarm_english.wav,,,,,,,,,0,1,1,1,0,31,31,21,644.468818133,9.30088572204e-06,645.31799379,0.849185599247,,,,,z,1,0.833805538015,2018_Nov_28_1540,59.9792631046,spanish_cond2,001,1062,
images/spoon02b.jpg,spoon,z,sounds/animalfarm_english.wav,,,,,,,,,0,1,1,1,0,32,32,38,646.409076914,8.98004509509e-06,647.401841502,0.992774530314,,,,,z,1,0.983849252108,2018_Nov_28_1540,59.9792631046,spanish_cond2,001,1062,
images/flamingo.jpg,flamingo,z,sounds/animalfarm_english.wav,,,,,,,,,0,1,1,1,0,33,33,52,648.500627005,8.98004509509e-06,649.135610735,0.634993672138,,,,,z,1,0.617094687186,2018_Nov_28_1540,59.9792631046,spanish_cond2,001,1062,
images/hand01a.jpg,cupcake,x,sounds/animalfarm_english.wav,,,,,,,,,0,1,1,1,0,34,34,163,650.247103109,8.98027792573e-06,651.252776942,1.00568345468,,,,,x,1,0.98383995099,2018_Nov_28_1540,59.9792631046,spanish_cond2,001,1062,
images/swan.jpg,swan,z,sounds/animalfarm_english.wav,,,,,,,,,0,1,1,1,0,35,35,54,652.344773473,9.30088572204e-06,653.269922559,0.925158707658,,,,,z,1,0.900483579375,2018_Nov_28_1540,59.9792631046,spanish_cond2,001,1062,
images/cat.jpg,black olive,x,sounds/animalfarm_english.wav,,,,,,,,,0,1,1,1,0,36,36,133,654.401498333,9.30088572204e-06,655.220391738,0.81890334771,,,,,x,1,0.800448877737,2018_Nov_28_1540,59.9792631046,spanish_cond2,001,1062,
images/doll.jpg,carrot,x,sounds/animalfarm_english.wav,,,,,,,,,0,1,1,1,0,37,37,146,656.330960122,9.30088572204e-06,657.104194422,0.77324520424,,,,,x,1,0.750445959158,2018_Nov_28_1540,59.9792631046,spanish_cond2,001,1062,
images/orange.jpg,bat,x,sounds/animalfarm_english.wav,,,,,,,,,0,1,1,1,0,38,38,128,658.228481865,9.30088572204e-06,659.054667771,0.826195847476,,,,,x,1,0.817128811497,2018_Nov_28_1540,59.9792631046,spanish_cond2,001,1062,
images/mirror02.jpg,8 ball,x,sounds/animalfarm_english.wav,,,,,,,,,0,1,1,1,0,39,39,121,660.155470914,9.30088572204e-06,660.88827318,0.732813170645,,,,,z,0,0.716922845924,2018_Nov_28_1540,59.9792631046,spanish_cond2,001,1062,
images/aloe02.jpg,broad sword,x,sounds/animalfarm_english.wav,,,,,,,,,0,1,1,1,0,40,40,137,662.008934579,9.621726349e-06,662.672062009,0.663138013566,,,,,x,1,0.650263726944,2018_Nov_28_1540,59.9792631046,spanish_cond2,001,1062,
images/lamp04b.jpg,parking meter,x,sounds/animalfarm_english.wav,,,,,,,,,0,1,1,1,0,41,41,209,663.793887616,8.98027792573e-06,664.455980087,0.662102092523,,,,,x,1,0.650417992612,2018_Nov_28_1540,59.9792631046,spanish_cond2,001,1062,
images/squirrel.jpg,binder,x,sounds/animalfarm_english.wav,,,,,,,,,0,1,1,1,0,42,42,132,665.558776818,9.3006528914e-06,666.223068777,0.664302221965,,,,,x,1,0.650411578361,2018_Nov_28_1540,59.9792631046,spanish_cond2,001,1062,
images/dresser02.jpg,dresser,z,sounds/animalfarm_english.wav,,,,,,,,,0,1,1,1,0,43,43,87,667.346768022,9.30088572204e-06,668.140215292,0.793457853608,,,,,z,1,0.783792035654,2018_Nov_28_1540,59.9792631046,spanish_cond2,001,1062,
images/wallet01.jpg,lamp,x,sounds/animalfarm_english.wav,,,,,,,,,0,1,1,1,0,44,44,193,669.244901696,9.621726349e-06,670.124027661,0.87913654861,,,,,x,1,0.867127239937,2018_Nov_28_1540,59.9792631046,spanish_cond2,001,1062,
images/pouch01b.jpg,pouch,z,sounds/animalfarm_english.wav,,,,,,,,,0,1,1,1,0,45,45,25,671.235953647,8.98027792573e-06,672.608011294,1.37206758955,,,,,z,1,1.35061568348,2018_Nov_28_1540,59.9792631046,spanish_cond2,001,1062,
images/raisin.jpg,ruler,x,sounds/animalfarm_english.wav,,,,,,,,,0,1,1,1,0,46,46,218,673.714744525,8.98004509509e-06,674.908520467,1.19378588442,,,,,x,1,1.18387792422,2018_Nov_28_1540,59.9792631046,spanish_cond2,001,1062,
images/dryingmachine01.jpg,drying machine,z,sounds/animalfarm_english.wav,,,,,,,,,0,1,1,1,0,47,47,18,676.029519903,8.98004509509e-06,677.509164535,1.47965457314,,,,,z,1,1.46729343641,2018_Nov_28_1540,59.9792631046,spanish_cond2,001,1062,
images/dolphin01.jpg,dolphin,z,sounds/animalfarm_english.wav,,,,,,,,,0,1,1,1,0,48,48,99,678.609052988,8.98027792573e-06,681.076683821,2.46764141624,,,,,z,1,2.45084666507,2018_Nov_28_1540,59.9792631046,spanish_cond2,001,1062,
images/stapler03a.jpg,candy cane,x,sounds/animalfarm_english.wav,,,,,,,,,0,1,1,1,0,49,49,145,682.18726792,9.30088572204e-06,683.310562419,1.12330476171,,,,,x,1,1.10052540107,2018_Nov_28_1540,59.9792631046,spanish_cond2,001,1062,
images/ant.jpg,ant,z,sounds/animalfarm_english.wav,,,,,,,,,0,1,1,1,0,50,50,98,684.405217386,9.30088572204e-06,685.227699633,0.822491868166,,,,,z,1,0.800454650773,2018_Nov_28_1540,59.9792631046,spanish_cond2,001,1062,
images/graduationcap.jpg,graduation cap,z,sounds/animalfarm_english.wav,,,,,,,,,0,1,1,1,0,51,51,35,686.329658967,9.621726349e-06,687.161504914,0.831856531091,,,,,z,1,0.817125604255,2018_Nov_28_1540,59.9792631046,spanish_cond2,001,1062,
images/bicycle.jpg,hand bag,x,sounds/animalfarm_english.wav,,,,,,,,,0,1,1,1,0,52,52,186,688.272936994,8.98004509509e-06,689.628762751,1.35583537887,,,,,x,1,1.33390624356,2018_Nov_28_1540,59.9792631046,spanish_cond2,001,1062,
images/masquerademask02b.jpg,mirror,x,sounds/animalfarm_english.wav,,,,,,,,,0,1,1,1,0,53,53,204,690.733603421,9.94210131466e-06,692.546158785,1.81256626849,,,,,x,1,1.80069518951,2018_Nov_28_1540,59.9792631046,spanish_cond2,001,1062,
images/ruler02b.jpg,watermelon,x,sounds/animalfarm_english.wav,,,,,,,,,0,1,1,1,0,54,54,238,693.648215618,8.98027792573e-06,694.346598362,0.698392365826,,,,,x,1,0.683760220651,2018_Nov_28_1540,59.9792631046,spanish_cond2,001,1062,
images/computerkeyboard01a.jpg,computer keyboard,z,sounds/animalfarm_english.wav,,,,,,,,,0,1,1,1,0,55,55,61,695.463694974,9.30088572204e-06,696.280401078,0.816716046538,,,,,z,1,0.800458820071,2018_Nov_28_1540,59.9792631046,spanish_cond2,001,1062,
images/handbag02a.jpg,candle,x,sounds/animalfarm_english.wav,,,,,,,,,0,1,1,1,0,56,56,144,697.396718022,8.98027792573e-06,698.814351709,1.41764330841,,,,,z,0,1.40060545248,2018_Nov_28_1540,59.9792631046,spanish_cond2,001,1062,
images/ostrich.jpg,ostrich,z,sounds/animalfarm_english.wav,,,,,,,,,0,1,1,1,0,57,57,76,699.914489682,9.30088572204e-06,701.364970728,1.45049130893,,,,,z,1,1.43394062459,2018_Nov_28_1540,59.9792631046,spanish_cond2,001,1062,
images/butterfly.jpg,butterfly,z,sounds/animalfarm_english.wav,,,,,,,,,0,1,1,1,0,58,58,91,702.473542959,9.30088572204e-06,703.715530606,1.24199758936,,,,,z,1,1.21721758647,2018_Nov_28_1540,59.9792631046,spanish_cond2,001,1062,
images/screw03c.jpg,screw,z,sounds/animalfarm_english.wav,,,,,,,,,0,1,1,1,0,59,59,84,704.809976145,8.98027792573e-06,705.76603994,0.956074378686,,,,,z,1,0.93381618592,2018_Nov_28_1540,59.9792631046,spanish_cond2,001,1062,
images/triangleruler02.jpg,bottle of red wine,x,sounds/animalfarm_english.wav,,,,,,,,,0,1,1,1,0,60,60,134,706.877040332,9.30088572204e-06,707.899897627,1.02286691661,,,,,x,1,1.0005105841,2018_Nov_28_1540,59.9792631046,spanish_cond2,001,1062,
images/saltshaker03c.jpg,salt shaker,z,sounds/animalfarm_english.wav,,,,,,,,,0,1,1,1,0,61,61,63,709.0114163,9.30088572204e-06,710.067079902,1.05567386514,,,,,z,1,1.03384415247,2018_Nov_28_1540,59.9792631046,spanish_cond2,001,1062,
images/rubberglove02a.jpg,lady bug,x,sounds/animalfarm_english.wav,,,,,,,,,0,1,1,1,0,62,62,192,711.171918327,9.621726349e-06,712.284300695,1.11239263159,,,,,x,1,1.10054047499,2018_Nov_28_1540,59.9792631046,spanish_cond2,001,1062,
images/bat.jpg,hand,x,sounds/animalfarm_english.wav,,,,,,,,,0,1,1,1,0,63,63,185,713.381906916,9.621726349e-06,715.168315695,1.78641936276,,,,,x,1,1.76734558516,2018_Nov_28_1540,59.9792631046,spanish_cond2,001,1062,
images/watermelon01.jpg,orange,x,sounds/animalfarm_english.wav,,,,,,,,,0,1,1,1,0,64,64,207,716.298853303,9.3006528914e-06,716.918759088,0.619916048599,,,,,x,1,0.600413149688,2018_Nov_28_1540,59.9792631046,spanish_cond2,001,1062,
images/doorhandle.jpg,doll,x,sounds/animalfarm_english.wav,,,,,,,,,0,1,1,1,0,65,65,168,718.021660694,8.98004509509e-06,718.819221501,0.797570748953,,,,,x,1,0.783791394439,2018_Nov_28_1540,59.9792631046,spanish_cond2,001,1062,
images/bowtie.jpg,bowtie,z,sounds/animalfarm_english.wav,,,,,,,,,0,1,1,1,0,66,66,89,719.930445433,8.98004509509e-06,720.769689718,0.839254867984,,,,,z,1,0.817126245704,2018_Nov_28_1540,59.9792631046,spanish_cond2,001,1062,
images/cigar.jpg,crocodile,x,sounds/animalfarm_english.wav,,,,,,,,,0,1,1,1,0,67,67,162,721.867867459,9.62149351835e-06,722.736822153,0.868964636931,,,,,x,1,0.850446664961,2018_Nov_28_1540,59.9792631046,spanish_cond2,001,1062,
images/feather03b.jpg,feather,z,sounds/animalfarm_english.wav,,,,,,,,,0,1,1,1,0,68,68,114,723.837134277,9.621726349e-06,724.703989547,0.866864892188,,,,,z,1,0.850473284489,2018_Nov_28_1540,59.9792631046,spanish_cond2,001,1062,
images/fireextinguisher02.jpg,fire extinguisher,z,sounds/animalfarm_english.wav,,,,,,,,,0,1,1,1,0,69,69,175,725.814732723,9.30088572204e-06,726.621100142,0.806377682136,,,,,z,1,0.783768302528,2018_Nov_28_1540,59.9792631046,spanish_cond2,001,1062,
images/fryingpan01.jpg,frying pan,z,sounds/animalfarm_english.wav,,,,,,,,,0,1,1,1,0,70,70,45,727.72204825,9.30088572204e-06,728.621593407,0.899554778356,,,,,z,1,0.883802362951,2018_Nov_28_1540,59.9792631046,spanish_cond2,001,1062,
images/lightswitch02a.jpg,fork,x,sounds/animalfarm_english.wav,,,,,,,,,0,1,1,1,0,71,71,177,729.73364319,9.3006528914e-06,731.03886372,1.30523047154,,,,,x,1,1.28390909825,2018_Nov_28_1540,59.9792631046,spanish_cond2,001,1062,
images/honeycomb.jpg,honey comb,z,sounds/animalfarm_english.wav,,,,,,,,,0,1,1,1,0,72,72,59,732.152386563,8.98004509509e-06,734.172943664,2.02056608116,,,,,z,1,2.00073669059,2018_Nov_28_1540,59.9792631046,spanish_cond2,001,1062,
images/axe01.jpg,axe,z,sounds/animalfarm_english.wav,,,,,,,,,0,1,1,1,0,73,73,104,735.27636291,9.30088572204e-06,736.056755328,0.780403002165,,,,,z,1,0.767098311102,2018_Nov_28_1540,59.9792631046,spanish_cond2,001,1062,
images/chameleon.jpg,50 dollar bill,x,sounds/animalfarm_english.wav,,,,,,,,,0,1,1,1,0,74,74,120,737.166405174,9.30088572204e-06,737.940529468,0.774133915314,,,,,x,1,0.750435054768,2018_Nov_28_1540,59.9792631046,spanish_cond2,001,1062,
images/candy.jpg,candy,z,sounds/animalfarm_english.wav,,,,,,,,,0,1,1,1,0,75,75,31,739.042294767,8.98004509509e-06,740.007701416,0.965416590916,,,,,z,1,0.950491308933,2018_Nov_28_1540,59.9792631046,spanish_cond2,001,1062,
images/electricguitar02.jpg,electric guitar,z,sounds/animalfarm_english.wav,,,,,,,,,0,1,1,1,0,76,76,100,741.109985959,8.98004509509e-06,741.858319665,0.748343648622,,,,,z,1,0.733929591952,2018_Nov_28_1540,59.9792631046,spanish_cond2,001,1062,
images/showerhead01.jpg,skateboard,x,sounds/animalfarm_english.wav,,,,,,,,,0,1,1,1,0,77,77,223,742.965550331,9.62149351835e-06,743.825298798,0.859758408973,,,,,x,1,0.850463662762,2018_Nov_28_1540,59.9792631046,spanish_cond2,001,1062,
images/nametag01a.jpg,name tag,z,sounds/animalfarm_english.wav,,,,,,,,,0,1,1,1,0,78,78,108,744.945297592,9.30088572204e-06,745.67576663,0.730479622027,,,,,z,1,0.717093789019,2018_Nov_28_1540,59.9792631046,spanish_cond2,001,1062,
images/baseball01a.jpg,baseball,z,sounds/animalfarm_english.wav,,,,,,,,,0,1,1,1,0,79,79,74,746.80833599,8.98004509509e-06,747.692920906,0.884594537783,,,,,z,1,0.867133012973,2018_Nov_28_1540,59.9792631046,spanish_cond2,001,1062,
images/skateboard.jpg,key,x,sounds/animalfarm_english.wav,,,,,,,,,0,1,1,1,0,80,80,189,748.784131677,8.98004509509e-06,749.810089679,1.02596794488,,,,,x,1,1.01717672683,2018_Nov_28_1540,59.9792631046,spanish_cond2,001,1062,
images/ladybug03.jpg,giraffe,x,sounds/animalfarm_english.wav,,,,,,,,,0,1,1,1,0,81,81,178,750.913156455,8.98004509509e-06,751.627212397,0.714065884473,,,,,z,0,0.700441116234,2018_Nov_28_1540,59.9792631046,spanish_cond2,001,1062,
images/envelope02a.jpg,grand piano,x,sounds/animalfarm_english.wav,,,,,,,,,0,1,1,1,0,82,82,182,752.750598942,9.94233414531e-06,753.360971046,0.610382367158,,,,,x,1,0.600426299265,2018_Nov_28_1540,59.9792631046,spanish_cond2,001,1062,
images/bowl02b (1).jpg,bowl,z,sounds/animalfarm_english.wav,,,,,,,,,0,1,1,1,0,83,83,24,754.478325836,9.62149351835e-06,755.344761607,0.866445712978,,,,,z,1,0.850462379865,2018_Nov_28_1540,59.9792631046,spanish_cond2,001,1062,
images/corkscrew02a.jpg,masquerade mask,x,sounds/animalfarm_english.wav,,,,,,,,,0,1,1,1,0,84,84,201,756.448481365,8.65920446813e-06,757.211898789,0.763427045196,,,,,x,1,0.750447562663,2018_Nov_28_1540,59.9792631046,spanish_cond2,001,1062,
images/aquarium.jpg,computer mouse,x,sounds/animalfarm_english.wav,,,,,,,,,0,1,1,1,0,85,85,159,758.347255194,8.98004509509e-06,759.412424254,1.06517836126,,,,,x,1,1.05051286123,2018_Nov_28_1540,59.9792631046,spanish_cond2,001,1062,
images/medal01.jpg,medal,z,sounds/animalfarm_english.wav,,,,,,,,,0,1,1,1,0,86,86,115,760.513215852,8.98027792573e-06,761.312949206,0.799743617652,,,,,z,1,0.78383148415,2018_Nov_28_1540,59.9792631046,spanish_cond2,001,1062,
images/glasses01b.jpg,calculator,x,sounds/animalfarm_english.wav,,,,,,,,,0,1,1,1,0,87,87,142,762.406172486,9.3006528914e-06,763.180003964,0.773841419956,,,,,x,1,0.750433130423,2018_Nov_28_1540,59.9792631046,spanish_cond2,001,1062,
images/leaf01a.jpg,leaf,z,sounds/animalfarm_english.wav,,,,,,,,,0,1,1,1,0,88,88,68,764.282696782,9.3006528914e-06,765.380561501,1.09787498252,,,,,z,1,1.08381435787,2018_Nov_28_1540,59.9792631046,spanish_cond2,001,1062,
images/fork01.jpg,cooking pot,x,sounds/animalfarm_english.wav,,,,,,,,,0,1,1,1,0,89,89,160,766.474186,9.62149351835e-06,767.381046107,0.906871011481,,,,,x,1,0.883810701547,2018_Nov_28_1540,59.9792631046,spanish_cond2,001,1062,
images/toothbrush03a.jpg,parrot,x,sounds/animalfarm_english.wav,,,,,,,,,0,1,1,1,0,90,90,210,768.4733021,8.65943729877e-06,769.231482188,0.758189389482,,,,,x,1,0.733770194929,2018_Nov_28_1540,59.9792631046,spanish_cond2,001,1062,
images/lip.jpg,boxing glove,x,sounds/animalfarm_english.wav,,,,,,,,,0,1,1,1,0,91,91,136,770.335369683,9.62149351835e-06,771.181955216,0.846595154842,,,,,x,1,0.833775390638,2018_Nov_28_1540,59.9792631046,spanish_cond2,001,1062,
images/backpack01b.jpg,swallow,x,sounds/animalfarm_english.wav,,,,,,,,,0,1,1,1,0,92,92,228,772.312864216,9.30088572204e-06,773.282475165,0.96962057054,,,,,x,1,0.950490346644,2018_Nov_28_1540,59.9792631046,spanish_cond2,001,1062,
images/handfan01b.jpg,handfan,z,sounds/animalfarm_english.wav,,,,,,,,,0,1,1,1,0,93,93,69,774.397651634,9.30088572204e-06,775.382998001,0.985356629593,,,,,z,1,0.9671757326,2018_Nov_28_1540,59.9792631046,spanish_cond2,001,1062,
images/swallow.jpg,mattress,x,sounds/animalfarm_english.wav,,,,,,,,,0,1,1,1,0,94,94,202,776.484389342,8.98027792573e-06,777.583511599,1.09913284099,,,,,x,1,1.08385027829,2018_Nov_28_1540,59.9792631046,spanish_cond2,001,1062,
images/apricot.jpg,apricot,z,sounds/animalfarm_english.wav,,,,,,,,,0,1,1,1,0,95,95,32,778.700215972,8.98004509509e-06,780.25083467,1.55062864046,,,,,z,1,1.53394838609,2018_Nov_28_1540,59.9792631046,spanish_cond2,001,1062,
images/floorlamp.jpg,floor lamp,z,sounds/animalfarm_english.wav,,,,,,,,,0,1,1,1,0,96,96,26,781.344100926,9.30088572204e-06,782.284656693,0.940565709025,,,,,z,1,0.9171436287,2018_Nov_28_1540,59.9792631046,spanish_cond2,001,1062,
images/basketball01.jpg,basket ball,z,sounds/animalfarm_english.wav,,,,,,,,,0,1,1,1,0,97,97,33,783.425081094,3.23925632983e-05,784.185119747,0.760063669179,,,,,z,1,0.750436017057,2018_Nov_28_1540,59.9792631046,spanish_cond2,001,1062,
images/knife04.jpg,tooth brush,x,sounds/animalfarm_english.wav,,,,,,,,,0,1,1,1,0,98,98,233,785.281835973,9.30088572204e-06,786.71905819,1.43723215978,,,,,x,1,1.41725459741,2018_Nov_28_1540,59.9792631046,spanish_cond2,001,1062,
images/highheelshoe02a.jpg,high heel shoe,z,sounds/animalfarm_english.wav,,,,,,,,,0,1,1,1,0,99,99,75,787.825464288,9.62149351835e-06,789.102983068,1.27752904268,,,,,z,1,1.26719645085,2018_Nov_28_1540,59.9792631046,spanish_cond2,001,1062,
images/pipe.jpg,icecube,x,sounds/animalfarm_english.wav,,,,,,,,,0,1,1,1,0,100,100,188,790.21265825,9.621726349e-06,791.970348602,1.7577006144,,,,,x,1,1.73401169595,2018_Nov_28_1540,59.9792631046,spanish_cond2,001,1062,
images/highlighter03b.jpg,coin,x,sounds/animalfarm_english.wav,,,,,,,,,0,1,1,1,0,101,101,156,793.072316275,9.30088572204e-06,794.637667503,1.56536085019,,,,,x,1,1.55063024419,2018_Nov_28_1540,59.9792631046,spanish_cond2,001,1062,
images/ashtray02b.jpg,ashtray,z,sounds/animalfarm_english.wav,,,,,,,,,0,1,1,1,0,102,102,43,795.750724022,9.30088572204e-06,796.554808566,0.804094807012,,,,,z,1,0.78378722514,2018_Nov_28_1540,59.9792631046,spanish_cond2,001,1062,
images/battery03b.jpg,battery,z,sounds/animalfarm_english.wav,,,,,,,,,0,1,1,1,0,103,103,34,797.663754435,9.94233414531e-06,798.455268092,0.791523920139,,,,,z,1,0.767114988528,2018_Nov_28_1540,59.9792631046,spanish_cond2,001,1062,
images/radish01.jpg,raisin,x,sounds/animalfarm_english.wav,,,,,,,,,0,1,1,1,0,104,104,214,799.566145328,9.62149351835e-06,800.98921744,1.4230823752,,,,,x,1,1.40060000052,2018_Nov_28_1540,59.9792631046,spanish_cond2,001,1062,
images/pepper05a.jpg,lighter,x,sounds/animalfarm_english.wav,,,,,,,,,0,1,1,1,0,105,105,198,802.110051386,8.98004509509e-06,802.906347599,0.796306155389,,,,,x,1,0.783782735001,2018_Nov_28_1540,59.9792631046,spanish_cond2,001,1062,
images/cookingpot.jpg,grasshopper,x,sounds/animalfarm_english.wav,,,,,,,,,0,1,1,1,0,106,106,183,804.020067684,9.30088572204e-06,804.873490297,0.853432234377,,,,,x,1,0.833784691291,2018_Nov_28_1540,59.9792631046,spanish_cond2,001,1062,
images/egg01b (1).jpg,egg,z,sounds/animalfarm_english.wav,,,,,,,,,0,1,1,1,0,107,107,19,805.988062853,8.98004509509e-06,806.757284001,0.769230448408,,,,,z,1,0.750434413319,2018_Nov_28_1540,59.9792631046,spanish_cond2,001,1062,
images/tent.jpg,tent,z,sounds/animalfarm_english.wav,,,,,,,,,0,1,1,1,0,108,108,11,807.885212883,8.98004509509e-06,808.557723578,0.672520636581,,,,,z,1,0.650416389108,2018_Nov_28_1540,59.9792631046,spanish_cond2,001,1062,
images/bottleofredwine02.jpg,pipe,x,sounds/animalfarm_english.wav,,,,,,,,,0,1,1,1,0,109,109,213,809.656181948,9.30088572204e-06,810.491519879,0.835347873857,,,,,x,1,0.817080703797,2018_Nov_28_1540,59.9792631046,spanish_cond2,001,1062,
images/puzzle.jpg,puzzle,z,sounds/animalfarm_english.wav,,,,,,,,,0,1,1,1,0,110,110,57,811.612221368,9.94233414531e-06,812.575364705,0.96315360046,,,,,z,1,0.950480724918,2018_Nov_28_1540,59.9792631046,spanish_cond2,001,1062,
images/nailclipper03a.jpg,aquarium,x,sounds/animalfarm_english.wav,,,,,,,,,0,1,1,1,0,111,111,123,813.674870221,9.62149351835e-06,814.442480079,0.76762012043,,,,,x,1,0.750427999068,2018_Nov_28_1540,59.9792631046,spanish_cond2,001,1062,
images/parrot01.jpg,chameleon,x,sounds/animalfarm_english.wav,,,,,,,,,0,1,1,1,0,112,112,150,815.556441345,9.30088572204e-06,816.343156089,0.786730780499,,,,,x,1,0.767285931623,2018_Nov_28_1540,59.9792631046,spanish_cond2,001,1062,
images/lily.jpg,kiwi,x,sounds/animalfarm_english.wav,,,,,,,,,0,1,1,1,0,113,113,190,817.442754293,9.30088572204e-06,818.176734559,0.733989887172,,,,,x,1,0.717101165559,2018_Nov_28_1540,59.9792631046,spanish_cond2,001,1062,
images/bandaid01.jpg,door handle,x,sounds/animalfarm_english.wav,,,,,,,,,0,1,1,1,0,114,114,170,819.284065288,9.62149351835e-06,820.01051027,0.726455565309,,,,,x,1,0.717067169491,2018_Nov_28_1540,59.9792631046,spanish_cond2,001,1062,
images/sportshorts02.jpg,tape,x,sounds/animalfarm_english.wav,,,,,,,,,0,1,1,1,0,115,115,230,821.118027658,8.98004509509e-06,822.377747837,1.25972980098,,,,,x,1,1.25055596582,2018_Nov_28_1540,59.9792631046,spanish_cond2,001,1062,
images/lollipop03b.jpg,lollipop,z,sounds/animalfarm_english.wav,,,,,,,,,0,1,1,1,0,116,116,42,823.470974003,8.98004509509e-06,824.444917861,0.97395347897,,,,,z,1,0.95048040431,2018_Nov_28_1540,59.9792631046,spanish_cond2,001,1062,
images/lightbulb03b.jpg,treadmill,x,sounds/animalfarm_english.wav,,,,,,,,,0,1,1,1,0,117,117,234,825.54743717,9.621726349e-06,826.32872311,0.781295883004,,,,,x,1,0.767124610022,2018_Nov_28_1540,59.9792631046,spanish_cond2,001,1062,
images/scissors04a.jpg,leek,x,sounds/animalfarm_english.wav,,,,,,,,,0,1,1,1,0,118,118,194,827.423165441,8.98004509509e-06,828.245848779,0.822693600086,,,,,x,1,0.800452084979,2018_Nov_28_1540,59.9792631046,spanish_cond2,001,1062,
images/gorilla.jpg,gorilla,z,sounds/animalfarm_english.wav,,,,,,,,,0,1,1,1,0,119,119,80,829.357212545,8.65943729877e-06,830.296340472,0.93913754914,,,,,z,1,0.917136573,2018_Nov_28_1540,59.9792631046,spanish_cond2,001,1062,
images/thumbtack02a.jpg,thumb tack,z,sounds/animalfarm_english.wav,,,,,,,,,0,1,1,1,0,120,120,60,831.40657563,8.98004509509e-06,832.063442953,0.656877265545,,,,,z,1,0.633744473103,2018_Nov_28_1540,59.9792631046,spanish_cond2,001,1062,
images/puma.jpg,puma,z,sounds/animalfarm_english.wav,,,,,,,,,0,1,1,1,0,121,121,4,833.16234199,7.24822748452e-05,833.797191339,0.634905474493,,,,,z,1,0.617062935838,2018_Nov_28_1540,59.9792631046,spanish_cond2,001,1062,
images/plant01.jpg,plant,z,sounds/animalfarm_english.wav,,,,,,,,,0,1,1,1,0,122,122,47,834.908800775,9.62149351835e-06,835.814359086,0.90556825255,,,,,z,1,0.883810060099,2018_Nov_28_1540,59.9792631046,spanish_cond2,001,1062,
images/cola.jpg,comb,x,sounds/animalfarm_english.wav,,,,,,,,,0,1,1,1,0,123,123,157,836.935142999,9.30088572204e-06,837.748167254,0.813034197083,,,,,x,1,0.800459140912,2018_Nov_28_1540,59.9792631046,spanish_cond2,001,1062,
images/lion.jpg,lion,z,sounds/animalfarm_english.wav,,,,,,,,,0,1,1,1,0,124,124,44,838.860696832,8.98027792573e-06,839.748642879,0.887956310529,,,,,z,1,0.867086187936,2018_Nov_28_1540,59.9792631046,spanish_cond2,001,1062,
images/electrictoothbrush01a.jpg,banjo,x,sounds/animalfarm_english.wav,,,,,,,,,0,1,1,1,0,125,125,127,840.84401786,8.65920446813e-06,841.615771723,0.77176925703,,,,,x,1,0.750435054768,2018_Nov_28_1540,59.9792631046,spanish_cond2,001,1062,
images/redfox.jpg,red fox,z,sounds/animalfarm_english.wav,,,,,,,,,0,1,1,1,0,126,126,1,842.728315092,9.62149351835e-06,843.499571199,0.771266370313,,,,,z,1,0.750447242055,2018_Nov_28_1540,59.9792631046,spanish_cond2,001,1062,
images/eraser.jpg,eraser,z,sounds/animalfarm_english.wav,,,,,,,,,0,1,1,1,0,127,127,110,844.606812448,9.62149351835e-06,845.266683301,0.659881436732,,,,,z,1,0.650435311487,2018_Nov_28_1540,59.9792631046,spanish_cond2,001,1062,
images/teapot.jpg,light switch,x,sounds/animalfarm_english.wav,,,,,,,,,0,1,1,1,0,128,128,197,846.384502812,8.98004509509e-06,847.183781067,0.799288517796,,,,,x,1,0.783774075564,2018_Nov_28_1540,59.9792631046,spanish_cond2,001,1062,
images/blackolive.jpg,tank,x,sounds/animalfarm_english.wav,,,,,,,,,0,1,1,1,0,129,129,229,848.298604746,8.98027792573e-06,849.134255057,0.835659933044,,,,,x,1,0.817107965006,2018_Nov_28_1540,59.9792631046,spanish_cond2,001,1062,
images/grandpiano.jpg,tulip,x,sounds/animalfarm_english.wav,,,,,,,,,0,1,1,1,0,130,130,236,850.248762507,8.98027792573e-06,851.184776578,0.936024333583,,,,,z,0,0.917159023229,2018_Nov_28_1540,59.9792631046,spanish_cond2,001,1062,
images/cockroach02.jpg,belt,x,sounds/animalfarm_english.wav,,,,,,,,,0,1,1,1,0,131,131,129,852.283786583,9.30088572204e-06,853.101892304,0.818115341943,,,,,x,1,0.800443425542,2018_Nov_28_1540,59.9792631046,spanish_cond2,001,1062,
images/birthdaycandle.jpg,birthday candle,z,sounds/animalfarm_english.wav,,,,,,,,,0,1,1,1,0,132,132,55,854.199941116,9.30088572204e-06,855.052374633,0.852443458978,,,,,z,1,0.833793671336,2018_Nov_28_1540,59.9792631046,spanish_cond2,001,1062,
images/diaper01a.jpg,camera,x,sounds/animalfarm_english.wav,,,,,,,,,0,1,1,1,0,133,133,143,856.172839752,9.62149351835e-06,856.852807795,0.679978306638,,,,,x,1,0.667085097637,2018_Nov_28_1540,59.9792631046,spanish_cond2,001,1062,
images/desktopcomputer.jpg,desktop computer,z,sounds/animalfarm_english.wav,,,,,,,,,0,1,1,1,0,134,134,16,857.987943546,9.3006528914e-06,858.720138692,0.732215671567,,,,,z,1,0.717262807768,2018_Nov_28_1540,59.9792631046,spanish_cond2,001,1062,
images/broadsword.jpg,teapot,x,sounds/animalfarm_english.wav,,,,,,,,,0,1,1,1,0,135,135,231,859.814725346,9.30088572204e-06,860.403666391,0.588950987207,,,,,x,1,0.567036604974,2018_Nov_28_1540,59.9792631046,spanish_cond2,001,1062,
images/bench02.jpg,electric toothbrush,x,sounds/animalfarm_english.wav,,,,,,,,,0,1,1,1,0,136,136,172,861.512589168,9.30088572204e-06,862.154148591,0.641570007429,,,,,x,1,0.61711874092,2018_Nov_28_1540,59.9792631046,spanish_cond2,001,1062,
images/50dollarbill.jpg,cherry,x,sounds/animalfarm_english.wav,,,,,,,,,0,1,1,1,0,137,137,151,863.274457521,9.30088572204e-06,863.937870069,0.663422170328,,,,,x,1,0.650414143922,2018_Nov_28_1540,59.9792631046,spanish_cond2,001,1062,
images/blueberry02.jpg,blueberry,z,sounds/animalfarm_english.wav,,,,,,,,,0,1,1,1,0,138,138,46,865.051305998,9.30088572204e-06,865.788340788,0.737045052694,,,,,z,1,0.717118163593,2018_Nov_28_1540,59.9792631046,spanish_cond2,001,1062,
images/gluestick.jpg,squirrel,x,sounds/animalfarm_english.wav,,,,,,,,,0,1,1,1,0,139,139,226,866.896245604,8.98004509509e-06,867.472053542,0.575817559846,,,,,x,1,0.567051678663,2018_Nov_28_1540,59.9792631046,spanish_cond2,001,1062,
images/gamecontroller01.jpg,game controller,z,sounds/animalfarm_english.wav,,,,,,,,,0,1,1,1,0,140,140,112,868.592358302,8.98004509509e-06,869.272498571,0.680150211789,,,,,z,1,0.667060081381,2018_Nov_28_1540,59.9792631046,spanish_cond2,001,1062,
images/tank.jpg,wallet,x,sounds/animalfarm_english.wav,,,,,,,,,0,1,1,1,0,141,141,237,870.37727606,8.65943729877e-06,871.022934268,0.645667829318,,,,,x,1,0.633751529036,2018_Nov_28_1540,59.9792631046,spanish_cond2,001,1062,
images/candle08a.jpg,screw driver,x,sounds/animalfarm_english.wav,,,,,,,,,0,1,1,1,0,142,142,221,872.13660849,9.30088572204e-06,872.87339344,0.736794892233,,,,,x,1,0.717108862707,2018_Nov_28_1540,59.9792631046,spanish_cond2,001,1062,
images/candycane01a.jpg,lip,x,sounds/animalfarm_english.wav,,,,,,,,,0,1,1,1,0,143,143,200,873.967520184,9.30088572204e-06,874.79051077,0.823000848759,,,,,x,1,0.800438935403,2018_Nov_28_1540,59.9792631046,spanish_cond2,001,1062,
images/acousticguitar02.jpg,acoustic guitar,z,sounds/animalfarm_english.wav,,,,,,,,,0,1,1,1,0,144,144,97,875.904225083,8.98004509509e-06,876.824336962,0.920121180359,,,,,z,1,0.900475241011,2018_Nov_28_1540,59.9792631046,spanish_cond2,001,1062,
images/banana04a.jpg,banana,z,sounds/animalfarm_english.wav,,,,,,,,,0,1,1,1,0,145,145,118,877.930147806,9.30088572204e-06,878.591429821,0.661291957367,,,,,z,1,0.650406446774,2018_Nov_28_1540,59.9792631046,spanish_cond2,001,1062,
images/comb02a.jpg,diploma,x,sounds/animalfarm_english.wav,,,,,,,,,0,1,1,1,0,146,146,166,879.696060742,8.65943729877e-06,880.575262396,0.879211596679,,,,,x,1,0.867132371524,2018_Nov_28_1540,59.9792631046,spanish_cond2,001,1062,
images/sunglasses03a.jpg,sun glasses,z,sounds/animalfarm_english.wav,,,,,,,,,0,1,1,1,0,147,147,17,881.685515193,9.30088572204e-06,882.54239868,0.856893750373,,,,,z,1,0.833748129429,2018_Nov_28_1540,59.9792631046,spanish_cond2,001,1062,
images/treadmill.jpg,lily,x,sounds/animalfarm_english.wav,,,,,,,,,0,1,1,1,0,148,148,199,883.649812155,9.62149351835e-06,884.442862375,0.793060482945,,,,,x,1,0.783755473793,2018_Nov_28_1540,59.9792631046,spanish_cond2,001,1062,
images/worldmap.jpg,scooter,x,sounds/animalfarm_english.wav,,,,,,,,,0,1,1,1,0,149,149,220,885.573767847,9.62149351835e-06,886.326646778,0.752889193594,,,,,x,1,0.733762497781,2018_Nov_28_1540,59.9792631046,spanish_cond2,001,1062,
images/calculator02b.jpg,dice,x,sounds/animalfarm_english.wav,,,,,,,,,0,1,1,1,0,150,150,165,887.429028178,9.3006528914e-06,888.060399975,0.631382059772,,,,,x,1,0.617064860184,2018_Nov_28_1540,59.9792631046,spanish_cond2,001,1062,
images/cauliflower01.jpg,glue stick,x,sounds/animalfarm_english.wav,,,,,,,,,0,1,1,1,0,151,151,181,889.176410954,9.30088572204e-06,889.910856582,0.734455570579,,,,,x,1,0.717094109626,2018_Nov_28_1540,59.9792631046,spanish_cond2,001,1062,
images/dice05a.jpg,band aid,x,sounds/animalfarm_english.wav,,,,,,,,,0,1,1,1,0,152,152,126,891.023517334,8.98027792573e-06,891.644610099,0.621103028301,,,,,x,1,0.60040160385,2018_Nov_28_1540,59.9792631046,spanish_cond2,001,1062,
images/weight01.jpg,weight,z,sounds/animalfarm_english.wav,,,,,,,,,0,1,1,1,0,153,153,67,892.749927678,8.98004509509e-06,893.428390589,0.678472532658,,,,,z,1,0.667088946095,2018_Nov_28_1540,59.9792631046,spanish_cond2,001,1062,
images/parkfountain.jpg,park fountain,z,sounds/animalfarm_english.wav,,,,,,,,,0,1,1,1,0,154,154,93,894.548971487,8.98027792573e-06,895.278850083,0.729888537666,,,,,z,1,0.717114314903,2018_Nov_28_1540,59.9792631046,spanish_cond2,001,1062,
images/plate01b.jpg,plate,z,sounds/animalfarm_english.wav,,,,,,,,,0,1,1,1,0,155,155,3,896.378664451,9.62149351835e-06,897.062600104,0.683945916593,,,,,z,1,0.667090229224,2018_Nov_28_1540,59.9792631046,spanish_cond2,001,1062,
images/grasshopper.jpg,cauliflower,x,sounds/animalfarm_english.wav,,,,,,,,,0,1,1,1,0,156,156,148,898.156139933,9.30088572204e-06,898.696337842,0.540207209997,,,,,x,1,0.517056136625,2018_Nov_28_1540,59.9792631046,spanish_cond2,001,1062,
images/pictureframe04.jpg,picture frame,z,sounds/animalfarm_english.wav,,,,,,,,,0,1,1,1,0,157,157,41,899.818637151,9.30088572204e-06,900.446755899,0.628128690179,,,,,z,1,0.617073840229,2018_Nov_28_1540,59.9792631046,spanish_cond2,001,1062,
images/giraffe.jpg,lettuce,x,sounds/animalfarm_english.wav,,,,,,,,,0,1,1,1,0,158,158,195,901.549043329,8.98004509509e-06,902.063655269,0.514621561626,,,,,x,1,0.500213277992,2018_Nov_28_1540,59.9792631046,spanish_cond2,001,1062,
images/arrow02.jpg,hammer,x,sounds/animalfarm_english.wav,,,,,,,,,0,1,1,1,0,159,159,184,903.161142823,9.30088572204e-06,903.797591596,0.636458714958,,,,,x,1,0.617088593543,2018_Nov_28_1540,59.9792631046,spanish_cond2,001,1062,
images/bracelet02a.jpg,chess knight,x,sounds/animalfarm_english.wav,,,,,,,,,0,1,1,1,0,160,160,152,904.906449587,9.30088572204e-06,905.514653954,0.608214630047,,,,,x,1,0.583730008919,2018_Nov_28_1540,59.9792631046,spanish_cond2,001,1062,
images/paperclip04.jpg,eye drops,x,sounds/animalfarm_english.wav,,,,,,,,,0,1,1,1,0,161,161,174,906.620286158,9.62149351835e-06,907.265097989,0.644821773516,,,,,x,1,0.633759226417,2018_Nov_28_1540,59.9792631046,spanish_cond2,001,1062,
images/tie01.jpg,bench,x,sounds/animalfarm_english.wav,,,,,,,,,0,1,1,1,0,162,162,130,908.363344685,9.30088572204e-06,908.948832873,0.585498130647,,,,,x,1,0.567061620997,2018_Nov_28_1540,59.9792631046,spanish_cond2,001,1062,
images/cherry01.jpg,highlighter,x,sounds/animalfarm_english.wav,,,,,,,,,0,1,1,1,0,163,163,187,910.057743142,9.30088572204e-06,910.699246119,0.641513240291,,,,,x,1,0.617069671163,2018_Nov_28_1540,59.9792631046,spanish_cond2,001,1062,
images/lighter02b.jpg,stapler,x,sounds/animalfarm_english.wav,,,,,,,,,0,1,1,1,0,164,164,227,911.801063375,9.30088572204e-06,912.633054287,0.832000212977,,,,,x,1,0.81712015206,2018_Nov_28_1540,59.9792631046,spanish_cond2,001,1062,
images/bull.jpg,button,x,sounds/animalfarm_english.wav,,,,,,,,,0,1,1,1,0,165,165,141,913.739590276,9.30088572204e-06,914.483503517,0.743923504837,,,,,x,1,0.733764101285,2018_Nov_28_1540,59.9792631046,spanish_cond2,001,1062,
images/beermug01b.jpg,beer mug,z,sounds/animalfarm_english.wav,,,,,,,,,0,1,1,1,0,166,166,111,915.601155934,9.621726349e-06,916.367299466,0.766153794946,,,,,z,1,0.750403624494,2018_Nov_28_1540,59.9792631046,spanish_cond2,001,1062,
images/mushroom01.jpg,shower head,x,sounds/animalfarm_english.wav,,,,,,,,,0,1,1,1,0,167,167,222,917.484141747,8.98027792573e-06,918.551188936,1.06705681025,,,,,x,1,1.0505401222,2018_Nov_28_1540,59.9792631046,spanish_cond2,001,1062,
images/hairpin.jpg,hair pin,z,sounds/animalfarm_english.wav,,,,,,,,,0,1,1,1,0,168,168,28,919.642612984,8.98004509509e-06,920.384936424,0.742332740454,,,,,z,1,0.733758969698,2018_Nov_28_1540,59.9792631046,spanish_cond2,001,1062,
images/flipflop01b.jpg,flip flop,z,sounds/animalfarm_english.wav,,,,,,,,,0,1,1,1,0,169,169,27,921.501962157,9.30088572204e-06,922.802210264,1.30025837105,,,,,z,1,1.28391166381,2018_Nov_28_1540,59.9792631046,spanish_cond2,001,1062,
images/sock03.jpg,sock,z,sounds/animalfarm_english.wav,,,,,,,,,0,1,1,1,0,170,170,90,923.909544201,8.65943729877e-06,924.702668187,0.793133606901,,,,,z,1,0.783781452104,2018_Nov_28_1540,59.9792631046,spanish_cond2,001,1062,
images/licenseplate.jpg,license plate,z,sounds/animalfarm_english.wav,,,,,,,,,0,1,1,1,0,171,171,40,925.819554406,8.98004509509e-06,926.636503615,0.816958830459,,,,,z,1,0.800451122923,2018_Nov_28_1540,59.9792631046,spanish_cond2,001,1062,
images/ceilingfan02.jpg,paper clip,x,sounds/animalfarm_english.wav,,,,,,,,,0,1,1,1,0,172,172,208,927.735732672,9.30088572204e-06,928.720324067,0.984602299286,,,,,x,1,0.967168356059,2018_Nov_28_1540,59.9792631046,spanish_cond2,001,1062,
images/dreamcatcher.jpg,dream catcher,z,sounds/animalfarm_english.wav,,,,,,,,,0,1,1,1,0,173,173,48,929.819408479,9.62149351835e-06,930.637444283,0.818045745837,,,,,z,1,0.800451122923,2018_Nov_28_1540,59.9792631046,spanish_cond2,001,1062,
images/djmixer01.jpg,light bulb,x,sounds/animalfarm_english.wav,,,,,,,,,0,1,1,1,0,174,174,196,931.761033522,9.30088572204e-06,932.621272688,0.860249429243,,,,,x,1,0.850483868038,2018_Nov_28_1540,59.9792631046,spanish_cond2,001,1062,
images/rhinoceros01.jpg,envelope,x,sounds/animalfarm_english.wav,,,,,,,,,0,1,1,1,0,175,175,173,933.733440496,9.621726349e-06,935.055478227,1.32204863522,,,,,x,1,1.30085426616,2018_Nov_28_1540,59.9792631046,spanish_cond2,001,1062,
images/peach01.jpg,peach,z,sounds/animalfarm_english.wav,,,,,,,,,0,1,1,1,0,176,176,106,936.184399413,9.30088572204e-06,936.722261528,0.537872057641,,,,,x,0,0.517043949338,2018_Nov_28_1540,59.9792631046,spanish_cond2,001,1062,
images/binder03b.jpg,dj mixer,x,sounds/animalfarm_english.wav,,,,,,,,,0,1,1,1,0,177,177,167,937.835798804,8.98004509509e-06,938.472677981,0.636889119167,,,,,x,1,0.617033429677,2018_Nov_28_1540,59.9792631046,spanish_cond2,001,1062,
images/eyedrops.jpg,bicycle,x,sounds/animalfarm_english.wav,,,,,,,,,0,1,1,1,0,178,178,131,939.573247,9.30088572204e-06,941.240026453,1.66679163999,,,,,x,1,1.65065853158,2018_Nov_28_1540,59.9792631046,spanish_cond2,001,1062,
images/bus.jpg,microphone,x,sounds/animalfarm_english.wav,,,,,,,,,0,1,1,1,0,179,179,203,942.358947312,8.98004509509e-06,943.040460257,0.681522566592,,,,,x,1,0.66709087044,2018_Nov_28_1540,59.9792631046,spanish_cond2,001,1062,
images/scooter.jpg,pen,x,sounds/animalfarm_english.wav,,,,,,,,,0,1,1,1,0,180,180,212,944.133499765,9.3006528914e-06,944.974332889,0.840850443114,,,,,x,1,0.817123038694,2018_Nov_28_1540,59.9792631046,spanish_cond2,001,1062,
images/flower01.jpg,bus,x,sounds/animalfarm_english.wav,,,,,,,,,0,1,1,1,0,181,181,140,946.088807305,9.621726349e-06,946.708020339,0.619223296642,,,,,x,1,0.600404810859,2018_Nov_28_1540,59.9792631046,spanish_cond2,001,1062,
images/crocodile.jpg,triangle ruler,x,sounds/animalfarm_english.wav,,,,,,,,,0,1,1,1,0,182,182,235,947.805861004,9.30088572204e-06,948.541797333,0.735946912086,,,,,x,1,0.717042153468,2018_Nov_28_1540,59.9792631046,spanish_cond2,001,1062,
images/button07.jpg,radish,x,sounds/animalfarm_english.wav,,,,,,,,,0,1,1,1,0,183,183,215,949.655449747,9.30088572204e-06,950.225539272,0.570099147037,,,,,x,1,0.550377197098,2018_Nov_28_1540,59.9792631046,spanish_cond2,001,1062,
images/daisy.jpg,daisy,z,sounds/animalfarm_english.wav,,,,,,,,,0,1,1,1,0,184,184,6,951.32800887,8.98027792573e-06,951.925945751,0.597946182126,,,,,z,1,0.583721349481,2018_Nov_28_1540,59.9792631046,spanish_cond2,001,1062,
images/key03b.jpg,cigar,x,sounds/animalfarm_english.wav,,,,,,,,,0,1,1,1,0,185,185,153,953.027415669,9.62149351835e-06,953.726395591,0.698989864439,,,,,x,1,0.683759578969,2018_Nov_28_1540,59.9792631046,spanish_cond2,001,1062,
images/lettuce.jpg,mushroom,x,sounds/animalfarm_english.wav,,,,,,,,,0,1,1,1,0,186,186,205,954.850622739,9.30088572204e-06,955.62686538,0.776252903277,,,,,x,1,0.767120120116,2018_Nov_28_1540,59.9792631046,spanish_cond2,001,1062,
images/toucan.jpg,toucan,z,sounds/animalfarm_english.wav,,,,,,,,,0,1,1,1,0,187,187,81,956.728922533,9.621726349e-06,957.360615049,0.631702778628,,,,,x,0,0.616994302021,2018_Nov_28_1540,59.9792631046,spanish_cond2,001,1062,
images/cloud.jpg,ceiling fan,x,sounds/animalfarm_english.wav,,,,,,,,,0,1,1,1,0,188,188,149,958.466556425,9.30088572204e-06,959.194393646,0.727846842958,,,,,x,1,0.717102769297,2018_Nov_28_1540,59.9792631046,spanish_cond2,001,1062,
images/elbow.jpg,elbow,z,sounds/animalfarm_english.wav,,,,,,,,,0,1,1,1,0,189,189,105,960.306444071,9.62149351835e-06,961.128213039,0.821779552149,,,,,z,1,0.800469083246,2018_Nov_28_1540,59.9792631046,spanish_cond2,001,1062,
images/ear.jpg,bullet,x,sounds/animalfarm_english.wav,,,,,,,,,0,1,1,1,0,190,190,139,962.232078404,9.94233414531e-06,962.911956967,0.679888826096,,,,,x,1,0.667074513854,2018_Nov_28_1540,59.9792631046,spanish_cond2,001,1062,
images/pineapple01a.jpg,pineapple,z,sounds/animalfarm_english.wav,,,,,,,,,0,1,1,1,0,191,191,51,964.025183467,9.94233414531e-06,964.879109287,0.853935762774,,,,,z,1,0.833790785167,2018_Nov_28_1540,59.9792631046,spanish_cond2,001,1062,
images/clothespin02a.jpg,clothes pin,z,sounds/animalfarm_english.wav,,,,,,,,,0,1,1,1,0,192,192,79,965.98404938,9.30088572204e-06,967.663405814,1.67936637555,,,,,z,1,1.66761075542,2018_Nov_28_1540,59.9792631046,spanish_cond2,001,1062,
images/diploma01.jpg,glasses,x,sounds/animalfarm_english.wav,,,,,,,,,0,1,1,1,0,193,193,179,968.796203205,9.621726349e-06,969.813643883,1.01745062065,,,,,x,1,1.00048332289,2018_Nov_28_1540,59.9792631046,spanish_cond2,001,1062,
images/coin01b.jpg,arrow,x,sounds/animalfarm_english.wav,,,,,,,,,0,1,1,1,0,194,194,124,970.916833814,9.62149351835e-06,971.730803868,0.813979996135,,,,,x,1,0.800465875771,2018_Nov_28_1540,59.9792631046,spanish_cond2,001,1062,
images/seagull.jpg,seagull,z,sounds/animalfarm_english.wav,,,,,,,,,0,1,1,1,0,195,195,50,972.838753585,9.3006528914e-06,973.531246973,0.692503651371,,,,,z,1,0.683782991488,2018_Nov_28_1540,59.9792631046,spanish_cond2,001,1062,
images/mattress.jpg,cat,x,sounds/animalfarm_english.wav,,,,,,,,,0,1,1,1,0,196,196,147,974.635859933,9.30088572204e-06,975.515028233,0.879177921219,,,,,x,1,0.867124994984,2018_Nov_28_1540,59.9792631046,spanish_cond2,001,1062,
images/beachumbrella01.jpg,beach umbrella,z,sounds/animalfarm_english.wav,,,,,,,,,0,1,1,1,0,197,197,92,976.620748955,8.98027792573e-06,977.415490966,0.794751953101,,,,,z,1,0.783760925988,2018_Nov_28_1540,59.9792631046,spanish_cond2,001,1062,
images/cupcake.jpg,scissors,x,sounds/animalfarm_english.wav,,,,,,,,,0,1,1,1,0,198,198,219,978.535160061,8.65920446813e-06,979.249264111,0.714113350958,,,,,x,1,0.700419948902,2018_Nov_28_1540,59.9792631046,spanish_cond2,001,1062,
images/mailbox01.jpg,mail box,z,sounds/animalfarm_english.wav,,,,,,,,,0,1,1,1,0,199,199,73,980.36918048,9.62149351835e-06,981.116396483,0.747225944186,,,,,z,1,0.733732991386,2018_Nov_28_1540,59.9792631046,spanish_cond2,001,1062,
images/magnifyingglass01b.jpg,magnifying glass,z,sounds/animalfarm_english.wav,,,,,,,,,0,1,1,1,0,200,200,64,982.223238758,8.98004509509e-06,983.183555281,0.960326786619,,,,,x,0,0.95044352184,2018_Nov_28_1540,59.9792631046,spanish_cond2,001,1062,
images/bowlingball.jpg,bowling ball,z,sounds/animalfarm_english.wav,,,,,,,,,0,1,1,1,0,201,201,20,984.315376726,9.62149351835e-06,985.017341897,0.701975113479,,,,,z,1,0.683754126774,2018_Nov_28_1540,59.9792631046,spanish_cond2,001,1062,
images/razor04a.jpg,razor,z,sounds/animalfarm_english.wav,,,,,,,,,0,1,1,1,0,202,202,36,986.117331377,9.30088572204e-06,987.734670773,1.61734965839,,,,,z,1,1.60064150137,2018_Nov_28_1540,59.9792631046,spanish_cond2,001,1062,
images/carrot02.jpg,corkscrew,x,sounds/animalfarm_english.wav,,,,,,,,,0,1,1,1,0,203,203,161,988.837193609,8.98004509509e-06,990.151937557,1.31475356943,,,,,x,1,1.30056433659,2018_Nov_28_1540,59.9792631046,spanish_cond2,001,1062,
images/hammer02a.jpg,flower,x,sounds/animalfarm_english.wav,,,,,,,,,0,1,1,1,0,204,204,176,991.247318632,8.98004509509e-06,992.119069672,0.871760982322,,,,,x,1,0.850452437764,2018_Nov_28_1540,59.9792631046,spanish_cond2,001,1062,
images/leek.jpg,donut,x,sounds/animalfarm_english.wav,,,,,,,,,0,1,1,1,0,205,205,169,993.220035099,9.62149351835e-06,993.869506972,0.649482135661,,,,,x,1,0.633745114552,2018_Nov_28_1540,59.9792631046,spanish_cond2,001,1062,
images/screwdriver02b.jpg,cola,x,sounds/animalfarm_english.wav,,,,,,,,,0,1,1,1,0,206,206,158,994.963050329,8.98027792573e-06,995.919990327,0.956949940417,,,,,x,1,0.933809129987,2018_Nov_28_1540,59.9792631046,spanish_cond2,001,1062,
images/pen03c.jpg,pepper,x,sounds/animalfarm_english.wav,,,,,,,,,0,1,1,1,0,207,207,211,997.015702383,9.62149351835e-06,997.753778546,0.738086425932,,,,,x,1,0.717086412478,2018_Nov_28_1540,59.9792631046,spanish_cond2,001,1062,
images/volleyball.jpg,volley ball,z,sounds/animalfarm_english.wav,,,,,,,,,0,1,1,1,0,208,208,2,998.886596784,8.98027792573e-06,999.770951424,0.88436426199,,,,,z,1,0.867150331847,2018_Nov_28_1540,59.9792631046,spanish_cond2,001,1062,
images/remotecontrol01c.jpg,remote control,z,sounds/animalfarm_english.wav,,,,,,,,,0,1,1,1,0,209,209,85,1000.88127799,9.30088572204e-06,1001.55473063,0.673462587409,,,,,z,1,0.650438518496,2018_Nov_28_1540,59.9792631046,spanish_cond2,001,1062,
images/atm.jpg,atm,z,sounds/animalfarm_english.wav,,,,,,,,,0,1,1,1,0,210,210,96,1002.69264765,9.30088572204e-06,1003.30513233,0.612494299188,,,,,z,1,0.600401924457,2018_Nov_28_1540,59.9792631046,spanish_cond2,001,1062,
images/cocktailshrimp01.jpg,cocktail shrimp,z,sounds/animalfarm_english.wav,,,,,,,,,0,1,1,1,0,211,211,30,1004.4209079,9.94210131466e-06,1005.37229915,0.951401187573,,,,,z,1,0.933820034377,2018_Nov_28_1540,59.9792631046,spanish_cond2,001,1062,
images/charcoalbarbecue.jpg,charcoal barbecue,z,sounds/animalfarm_english.wav,,,,,,,,,0,1,1,1,0,212,212,77,1006.48921872,9.621726349e-06,1007.63970567,1.1505039453,,,,,z,1,1.13396416535,2018_Nov_28_1540,59.9792631046,spanish_cond2,001,1062,
images/tape01a.jpg,tie,x,sounds/animalfarm_english.wav,,,,,,,,,0,1,1,1,0,213,213,232,1008.76533628,9.30088572204e-06,1009.57331756,0.807991538197,,,,,x,1,0.783770868322,2018_Nov_28_1540,59.9792631046,spanish_cond2,001,1062,
images/notebook02b.jpg,notebook,z,sounds/animalfarm_english.wav,,,,,,,,,0,1,1,1,0,214,214,7,1010.68000557,9.3006528914e-06,1011.9238861,1.24389047059,,,,,z,1,1.23384620505,2018_Nov_28_1540,59.9792631046,spanish_cond2,001,1062,
images/icecube02 (2).jpg,aloe,x,sounds/animalfarm_english.wav,,,,,,,,,0,1,1,1,0,215,215,122,1013.03455775,9.30088572204e-06,1014.1244385,1.08989133406,,,,,x,1,1.06718124892,2018_Nov_28_1540,59.9792631046,spanish_cond2,001,1062,
images/dragonfly02.jpg,dragon fly,z,sounds/animalfarm_english.wav,,,,,,,,,0,1,1,1,0,216,216,29,1015.22195043,8.65943729877e-06,1015.99155388,0.769612745149,,,,,z,1,0.750443393365,2018_Nov_28_1540,59.9792631046,spanish_cond2,001,1062,
images/lantern03.jpg,lantern,z,sounds/animalfarm_english.wav,,,,,,,,,0,1,1,1,0,217,217,5,1017.0987018,8.98027792573e-06,1017.90868019,0.809988011606,,,,,z,1,0.800443425542,2018_Nov_28_1540,59.9792631046,spanish_cond2,001,1062,
