images,name,corrAns,sounds,trials_3.thisRepN,trials_3.thisTrialN,trials_3.thisN,trials_3.thisIndex,trials_4.thisRepN,trials_4.thisTrialN,trials_4.thisN,trials_4.thisIndex,trials_2.thisRepN,trials_2.thisTrialN,trials_2.thisN,trials_2.thisIndex,trials.thisRepN,trials.thisTrialN,trials.thisN,trials.thisIndex,begin_global,begin_routine,end_global,end_routine,key_resp_2.keys,key_resp_2.corr,key_resp_2.rt,begin_book,key_resp_1.keys,key_resp_1.corr,key_resp_1.rt,date,frameRate,expName,session,participant,
images/volleyball.jpg,volley ball,z,,0,0,0,0,,,,,,,,,,,,,,,,,,,,,,,,2018_Nov_28_1540,59.9865326904,chinese_cond1,001,1063,
images/puma.jpg,puma,z,,,,,,0,0,0,0,,,,,,,,,48.1802962699,1.02631747723e-05,49.737099611,1.55681456649,z,1,1.53398591653,,,,,2018_Nov_28_1540,59.9865326904,chinese_cond1,001,1063,
images/lychee02a.jpg,lychee,z,sounds/greatgatsby_english.wav,,,,,,,,,0,0,0,0,0,0,0,62,91.9388675573,9.30088572204e-06,93.2981105002,1.35925320582,,,,81.7335456938,z,1,1.35059019201,2018_Nov_28_1540,59.9865326904,chinese_cond1,001,1063,
images/cat.jpg,black olive,x,sounds/greatgatsby_english.wav,,,,,,,,,0,0,0,0,0,1,1,133,94.434819408,9.30088572204e-06,95.4486527764,1.01384427305,,,,,x,1,1.00049743941,2018_Nov_28_1540,59.9865326904,chinese_cond1,001,1063,
images/bottleofredwine02.jpg,pipe,x,sounds/greatgatsby_english.wav,,,,,,,,,0,0,0,0,0,2,2,213,96.5491717681,9.94233414531e-06,97.3824744192,0.833313234616,,,,,x,1,0.817122882698,2018_Nov_28_1540,59.9865326904,chinese_cond1,001,1063,
images/ant.jpg,ant,z,sounds/greatgatsby_english.wav,,,,,,,,,0,0,0,0,0,3,3,98,98.4793666902,9.621726349e-06,99.366355588,0.887017762987,,,,,z,1,0.867135904031,2018_Nov_28_1540,59.9865326904,chinese_cond1,001,1063,
images/cupcake.jpg,scissors,x,sounds/greatgatsby_english.wav,,,,,,,,,0,0,0,0,0,4,4,219,100.487917131,9.94233414531e-06,101.233494058,0.745587190147,,,,,x,1,0.733815741492,2018_Nov_28_1540,59.9865326904,chinese_cond1,001,1063,
images/battery03b.jpg,battery,z,sounds/greatgatsby_english.wav,,,,,,,,,0,0,0,0,0,5,5,34,102.344797958,9.94233414531e-06,103.200611424,0.85582437017,,,,,z,1,0.833789185854,2018_Nov_28_1540,59.9865326904,chinese_cond1,001,1063,
images/dreamcatcher.jpg,dream catcher,z,sounds/greatgatsby_english.wav,,,,,,,,,0,0,0,0,0,6,6,48,104.301536449,9.62149351835e-06,105.284298941,0.982772754505,,,,,z,1,0.966979455668,2018_Nov_28_1540,59.9865326904,chinese_cond1,001,1063,
images/rubberglove02a.jpg,lady bug,x,sounds/greatgatsby_english.wav,,,,,,,,,0,0,0,0,0,7,7,192,106.390763151,9.621726349e-06,107.051588727,0.660835839342,,,,,x,1,0.650413987692,2018_Nov_28_1540,59.9865326904,chinese_cond1,001,1063,
images/axe01.jpg,axe,z,sounds/greatgatsby_english.wav,,,,,,,,,0,0,0,0,0,8,8,104,108.155956059,9.30088572204e-06,108.918722707,0.762776911259,,,,,z,1,0.750440350967,2018_Nov_28_1540,59.9865326904,chinese_cond1,001,1063,
images/puma.jpg,puma,z,sounds/greatgatsby_english.wav,,,,,,,,,0,0,0,0,0,9,9,4,110.017984469,9.62149351835e-06,110.652498037,0.634523830842,,,,,z,1,0.617022689199,2018_Nov_28_1540,59.9865326904,chinese_cond1,001,1063,
images/key03b.jpg,cigar,x,sounds/greatgatsby_english.wav,,,,,,,,,0,0,0,0,0,10,10,153,111.754837445,9.30111855268e-06,112.486293637,0.731466134544,,,,,x,1,0.717096839799,2018_Nov_28_1540,59.9865326904,chinese_cond1,001,1063,
images/elbow.jpg,elbow,z,sounds/greatgatsby_english.wav,,,,,,,,,0,0,0,0,0,11,11,105,113.59893623,8.98027792573e-06,114.503478548,0.904552580556,,,,,z,1,0.883808942279,2018_Nov_28_1540,59.9865326904,chinese_cond1,001,1063,
images/thumbtack02a.jpg,thumb tack,z,sounds/greatgatsby_english.wav,,,,,,,,,0,0,0,0,0,12,12,60,115.615879637,9.30088572204e-06,116.604020311,0.988150936784,,,,,z,1,0.967176378937,2018_Nov_28_1540,59.9865326904,chinese_cond1,001,1063,
images/table02.jpg,table,z,sounds/greatgatsby_english.wav,,,,,,,,,0,0,0,0,0,13,13,49,117.720966347,9.30088572204e-06,118.504481765,0.78352536005,,,,,z,1,0.767109219683,2018_Nov_28_1540,59.9865326904,chinese_cond1,001,1063,
images/seagull.jpg,seagull,z,sounds/greatgatsby_english.wav,,,,,,,,,0,0,0,0,0,14,14,50,119.612016865,9.621726349e-06,120.304950532,0.692943609552,,,,,z,1,0.683764554327,2018_Nov_28_1540,59.9865326904,chinese_cond1,001,1063,
images/diaper01a.jpg,camera,x,sounds/greatgatsby_english.wav,,,,,,,,,0,0,0,0,0,15,15,143,121.425872235,9.30088572204e-06,122.155663881,0.729801909532,,,,,x,1,0.71735630394,2018_Nov_28_1540,59.9865326904,chinese_cond1,001,1063,
images/dice05a.jpg,band aid,x,sounds/greatgatsby_english.wav,,,,,,,,,0,0,0,0,0,16,16,126,123.269603152,9.30088572204e-06,123.972526338,0.702933448832,,,,,x,1,0.683750442462,2018_Nov_28_1540,59.9865326904,chinese_cond1,001,1063,
images/lettuce.jpg,mushroom,x,sounds/greatgatsby_english.wav,,,,,,,,,0,0,0,0,0,17,17,205,125.09668765,9.30111855268e-06,126.056395383,0.959717675112,,,,,x,1,0.950484738685,2018_Nov_28_1540,59.9865326904,chinese_cond1,001,1063,
images/antelope.jpg,antelope,z,sounds/greatgatsby_english.wav,,,,,,,,,0,0,0,0,0,18,18,12,127.161431099,9.30088572204e-06,127.840171548,0.678750711959,,,,,z,1,0.667075800709,2018_Nov_28_1540,59.9865326904,chinese_cond1,001,1063,
images/hairband.jpg,hairband,z,sounds/greatgatsby_english.wav,,,,,,,,,0,0,0,0,0,19,19,66,128.950478004,9.621726349e-06,129.790668153,0.840200091945,,,,,z,1,0.817118392559,2018_Nov_28_1540,59.9865326904,chinese_cond1,001,1063,
images/electrictoothbrush01a.jpg,banjo,x,sounds/greatgatsby_english.wav,,,,,,,,,0,0,0,0,0,20,20,127,130.88740776,8.98027792573e-06,131.657813999,0.770416181302,,,,,x,1,0.750441954471,2018_Nov_28_1540,59.9865326904,chinese_cond1,001,1063,
images/ladybug03.jpg,giraffe,x,sounds/greatgatsby_english.wav,,,,,,,,,0,0,0,0,0,21,21,178,132.761423786,9.30088572204e-06,133.808355634,1.04694146966,,,,,x,1,1.03380919877,2018_Nov_28_1540,59.9865326904,chinese_cond1,001,1063,
images/leek.jpg,donut,x,sounds/greatgatsby_english.wav,,,,,,,,,0,0,0,0,0,22,22,169,134.909668091,8.65943729877e-06,135.625487176,0.71582838567,,,,,x,1,0.70041995286,2018_Nov_28_1540,59.9865326904,chinese_cond1,001,1063,
images/toucan.jpg,toucan,z,sounds/greatgatsby_english.wav,,,,,,,,,0,0,0,0,0,23,23,81,136.726378205,8.98004509509e-06,137.442612945,0.716244361596,,,,,z,1,0.700422839494,2018_Nov_28_1540,59.9865326904,chinese_cond1,001,1063,
images/button07.jpg,radish,x,sounds/greatgatsby_english.wav,,,,,,,,,0,0,0,0,0,24,24,215,138.55630943,8.98004509509e-06,139.559811069,1.00351190264,,,,,x,1,0.983830173966,2018_Nov_28_1540,59.9865326904,chinese_cond1,001,1063,
images/magnifyingglass01b.jpg,magnifying glass,z,sounds/greatgatsby_english.wav,,,,,,,,,0,0,0,0,0,25,25,64,140.667185808,9.30088572204e-06,141.410292216,0.743116670987,,,,,z,1,0.733783348463,2018_Nov_28_1540,59.9865326904,chinese_cond1,001,1063,
images/treadmill.jpg,lily,x,sounds/greatgatsby_english.wav,,,,,,,,,0,0,0,0,0,26,26,199,142.517774076,9.621726349e-06,143.344125405,0.826361591928,,,,,x,1,0.817143729422,2018_Nov_28_1540,59.9865326904,chinese_cond1,001,1063,
images/beachumbrella01.jpg,beach umbrella,z,sounds/greatgatsby_english.wav,,,,,,,,,0,0,0,0,0,27,27,92,144.450711489,9.621726349e-06,145.211243027,0.760541801574,,,,,z,1,0.750437464332,2018_Nov_28_1540,59.9865326904,chinese_cond1,001,1063,
images/bowl02b (1).jpg,bowl,z,sounds/greatgatsby_english.wav,,,,,,,,,0,0,0,0,0,28,28,24,146.329156681,8.65943729877e-06,147.311771,0.982623939635,,,,,z,1,0.967158097774,2018_Nov_28_1540,59.9865326904,chinese_cond1,001,1063,
images/binder03b.jpg,dj mixer,x,sounds/greatgatsby_english.wav,,,,,,,,,0,0,0,0,0,29,29,167,148.425011418,9.94233414531e-06,149.062212954,0.637211799389,,,,,x,1,0.617069514468,2018_Nov_28_1540,59.9865326904,chinese_cond1,001,1063,
images/basketball01.jpg,basket ball,z,sounds/greatgatsby_english.wav,,,,,,,,,0,0,0,0,0,30,30,33,150.201386929,9.621726349e-06,150.812658757,0.611282091355,,,,,z,1,0.600401286967,2018_Nov_28_1540,59.9865326904,chinese_cond1,001,1063,
images/hammer02a.jpg,flower,x,sounds/greatgatsby_english.wav,,,,,,,,,0,0,0,0,0,31,31,176,151.908119326,9.621726349e-06,152.563100712,0.654991006944,,,,,x,1,0.633740628371,2018_Nov_28_1540,59.9865326904,chinese_cond1,001,1063,
images/fork01.jpg,cooking pot,x,sounds/greatgatsby_english.wav,,,,,,,,,0,0,0,0,0,32,32,160,153.657598154,9.30111855268e-06,154.73033976,1.07275186921,,,,,x,1,1.05054060859,2018_Nov_28_1540,59.9865326904,chinese_cond1,001,1063,
images/ruler02b.jpg,watermelon,x,sounds/greatgatsby_english.wav,,,,,,,,,0,0,0,0,0,33,33,238,155.832949216,9.30111855268e-06,156.580794286,0.747855013469,,,,,x,1,0.733772444073,2018_Nov_28_1540,59.9865326904,chinese_cond1,001,1063,
images/ostrich.jpg,ostrich,z,sounds/greatgatsby_english.wav,,,,,,,,,0,0,0,0,0,34,34,76,157.681160935,8.98004509509e-06,158.314564165,0.633413813077,,,,,z,1,0.617075287504,2018_Nov_28_1540,59.9865326904,chinese_cond1,001,1063,
images/nailclipper03a.jpg,aquarium,x,sounds/greatgatsby_english.wav,,,,,,,,,0,0,0,0,0,35,35,123,159.41610658,9.621726349e-06,160.381750871,0.965654233936,,,,,x,1,0.950483455788,2018_Nov_28_1540,59.9865326904,chinese_cond1,001,1063,
images/cocktailshrimp01.jpg,cocktail shrimp,z,sounds/greatgatsby_english.wav,,,,,,,,,0,0,0,0,0,36,36,30,161.497332558,9.621726349e-06,162.5489726,1.05165094719,,,,,z,1,1.03385057184,2018_Nov_28_1540,59.9865326904,chinese_cond1,001,1063,
images/flower01.jpg,bus,x,sounds/greatgatsby_english.wav,,,,,,,,,0,0,0,0,0,37,37,140,163.663284549,9.30088572204e-06,164.266073609,0.602799323155,,,,,x,1,0.583740436239,2018_Nov_28_1540,59.9865326904,chinese_cond1,001,1063,
images/parkfountain.jpg,park fountain,z,sounds/greatgatsby_english.wav,,,,,,,,,0,0,0,0,0,38,38,93,165.386822443,8.98027792573e-06,166.183241457,0.796428314876,,,,,z,1,0.783802142832,2018_Nov_28_1540,59.9865326904,chinese_cond1,001,1063,
images/coffeepot03b.jpg,coffee pot,z,sounds/greatgatsby_english.wav,,,,,,,,,0,0,0,0,0,39,39,107,167.306079152,8.98027792573e-06,168.033690211,0.727620681282,,,,,z,1,0.717106461525,2018_Nov_28_1540,59.9865326904,chinese_cond1,001,1063,
images/coin01b.jpg,arrow,x,sounds/greatgatsby_english.wav,,,,,,,,,0,0,0,0,0,40,40,124,169.137150862,9.30111855268e-06,169.734111447,0.596970847808,,,,,x,1,0.583724399796,2018_Nov_28_1540,59.9865326904,chinese_cond1,001,1063,
images/arrow02.jpg,hammer,x,sounds/greatgatsby_english.wav,,,,,,,,,0,0,0,0,0,41,41,184,170.832189747,9.621726349e-06,171.651265824,0.819086661562,,,,,x,1,0.800439901883,2018_Nov_28_1540,59.9865326904,chinese_cond1,001,1063,
images/peach01.jpg,peach,z,sounds/greatgatsby_english.wav,,,,,,,,,0,0,0,0,0,42,42,106,172.781798274,9.30088572204e-06,173.568409939,0.786620965926,,,,,z,1,0.767097994685,2018_Nov_28_1540,59.9865326904,chinese_cond1,001,1063,
images/cauliflower01.jpg,glue stick,x,sounds/greatgatsby_english.wav,,,,,,,,,0,0,0,0,0,43,43,181,174.684599393,9.621726349e-06,175.268845607,0.584256477421,,,,,x,1,0.567044626456,2018_Nov_28_1540,59.9865326904,chinese_cond1,001,1063,
images/candycane01a.jpg,lip,x,sounds/greatgatsby_english.wav,,,,,,,,,0,0,0,0,0,44,44,200,176.363061455,8.65943729877e-06,177.21933644,0.856284926645,,,,,x,1,0.833790789358,2018_Nov_28_1540,59.9865326904,chinese_cond1,001,1063,
images/marker01a.jpg,marker,z,sounds/greatgatsby_english.wav,,,,,,,,,0,0,0,0,0,45,45,95,178.318007754,9.621726349e-06,179.036467019,0.718469528947,,,,,z,1,0.700421877205,2018_Nov_28_1540,59.9865326904,chinese_cond1,001,1063,
images/lion.jpg,lion,z,sounds/greatgatsby_english.wav,,,,,,,,,0,0,0,0,0,46,46,44,180.149400828,9.94233414531e-06,180.920105979,0.770715414546,,,,,z,1,0.750267802738,2018_Nov_28_1540,59.9865326904,chinese_cond1,001,1063,
images/ladder.jpg,ladder,z,sounds/greatgatsby_english.wav,,,,,,,,,0,0,0,0,0,47,47,113,182.01331412,9.30088572204e-06,182.954130703,0.940826846054,,,,,z,1,0.917157263961,2018_Nov_28_1540,59.9865326904,chinese_cond1,001,1063,
images/lightswitch02a.jpg,fork,x,sounds/greatgatsby_english.wav,,,,,,,,,0,0,0,0,0,48,48,177,184.066533075,9.30088572204e-06,184.671490856,0.604967722436,,,,,x,1,0.583994126879,2018_Nov_28_1540,59.9865326904,chinese_cond1,001,1063,
images/bed.jpg,bed,z,sounds/greatgatsby_english.wav,,,,,,,,,0,0,0,0,0,49,49,103,185.790989516,9.30088572204e-06,186.505027954,0.714048380265,,,,,z,1,0.700421877205,2018_Nov_28_1540,59.9865326904,chinese_cond1,001,1063,
images/nailpolish02b.jpg,nail polish,z,sounds/greatgatsby_english.wav,,,,,,,,,0,0,0,0,0,50,50,94,187.614393733,9.30088572204e-06,188.505539184,0.891155393329,,,,,z,1,0.867144242628,2018_Nov_28_1540,59.9865326904,chinese_cond1,001,1063,
images/drink.jpg,drink,z,sounds/greatgatsby_english.wav,,,,,,,,,0,0,0,0,0,51,51,117,189.606146375,9.94233414531e-06,190.322656615,0.716520503163,,,,,z,1,0.700429253979,2018_Nov_28_1540,59.9865326904,chinese_cond1,001,1063,
images/licenseplate.jpg,license plate,z,sounds/greatgatsby_english.wav,,,,,,,,,0,0,0,0,0,52,52,40,191.439975009,9.62149351835e-06,192.22314084,0.783176094061,,,,,z,1,0.767110181972,2018_Nov_28_1540,59.9865326904,chinese_cond1,001,1063,
images/masquerademask02b.jpg,mirror,x,sounds/greatgatsby_english.wav,,,,,,,,,0,0,0,0,0,53,53,204,193.330146429,9.30088572204e-06,193.923598318,0.593462473014,,,,,x,1,0.58375037834,2018_Nov_28_1540,59.9865326904,chinese_cond1,001,1063,
images/cookingpot.jpg,grasshopper,x,sounds/greatgatsby_english.wav,,,,,,,,,0,0,0,0,0,54,54,183,195.040351601,9.30088572204e-06,195.774051241,0.733709582593,,,,,x,1,0.717110951664,2018_Nov_28_1540,59.9865326904,chinese_cond1,001,1063,
images/bowtie.jpg,bowtie,z,sounds/greatgatsby_english.wav,,,,,,,,,0,0,0,0,0,55,55,89,196.884663024,9.30088572204e-06,197.541168479,0.656515717739,,,,,z,1,0.633759230375,2018_Nov_28_1540,59.9865326904,chinese_cond1,001,1063,
images/lock02a.jpg,lock,z,sounds/greatgatsby_english.wav,,,,,,,,,0,0,0,0,0,56,56,65,198.651977827,8.98027792573e-06,199.374781268,0.722813704284,,,,,z,1,0.700258629862,2018_Nov_28_1540,59.9865326904,chinese_cond1,001,1063,
images/showerhead01.jpg,skateboard,x,sounds/greatgatsby_english.wav,,,,,,,,,0,0,0,0,0,57,57,223,200.483262176,9.94233414531e-06,201.042037635,0.558785722125,,,,,x,1,0.550386662129,2018_Nov_28_1540,59.9865326904,chinese_cond1,001,1063,
images/eraser.jpg,eraser,z,sounds/greatgatsby_english.wav,,,,,,,,,0,0,0,0,0,58,58,110,202.15069045,9.30088572204e-06,202.925846898,0.775166390464,,,,,z,1,0.7671156344,2018_Nov_28_1540,59.9865326904,chinese_cond1,001,1063,
images/hairpin.jpg,hair pin,z,sounds/greatgatsby_english.wav,,,,,,,,,0,0,0,0,0,59,59,28,204.017028077,9.621726349e-06,204.642954642,0.625936828088,,,,,z,1,0.617072080262,2018_Nov_28_1540,59.9865326904,chinese_cond1,001,1063,
images/swallow.jpg,mattress,x,sounds/greatgatsby_english.wav,,,,,,,,,0,0,0,0,0,60,60,202,205.744868132,8.98027792573e-06,206.543444641,0.798586771823,,,,,x,1,0.783795728581,2018_Nov_28_1540,59.9865326904,chinese_cond1,001,1063,
images/mitten01.jpg,mitten,z,sounds/greatgatsby_english.wav,,,,,,,,,0,0,0,0,0,61,61,102,207.664026379,8.98027792573e-06,208.410584714,0.746568277944,,,,,z,1,0.733784631593,2018_Nov_28_1540,59.9865326904,chinese_cond1,001,1063,
images/lantern03.jpg,lantern,z,sounds/greatgatsby_english.wav,,,,,,,,,0,0,0,0,0,62,62,5,209.518885056,8.98004509509e-06,210.377726134,0.858851020923,,,,,z,1,0.85045196116,2018_Nov_28_1540,59.9865326904,chinese_cond1,001,1063,
images/leaf01a.jpg,leaf,z,sounds/greatgatsby_english.wav,,,,,,,,,0,0,0,0,0,63,63,68,211.48220636,8.98027792573e-06,212.294899114,0.812702696072,,,,,z,1,0.800457862206,2018_Nov_28_1540,59.9865326904,chinese_cond1,001,1063,
images/flamingo.jpg,flamingo,z,sounds/greatgatsby_english.wav,,,,,,,,,0,0,0,0,0,64,64,52,213.393799423,9.621726349e-06,214.045330164,0.651541324332,,,,,z,1,0.633750570705,2018_Nov_28_1540,59.9865326904,chinese_cond1,001,1063,
images/handfan01b.jpg,handfan,z,sounds/greatgatsby_english.wav,,,,,,,,,0,0,0,0,0,65,65,69,215.161652076,9.30088572204e-06,216.095862113,0.934219978983,,,,,z,1,0.917157263961,2018_Nov_28_1540,59.9865326904,chinese_cond1,001,1063,
images/comb02a.jpg,diploma,x,sounds/greatgatsby_english.wav,,,,,,,,,0,0,0,0,0,66,66,166,217.201190006,9.30088572204e-06,217.896313561,0.695133817848,,,,,x,1,0.683762630215,2018_Nov_28_1540,59.9865326904,chinese_cond1,001,1063,
images/tape01a.jpg,tie,x,sounds/greatgatsby_english.wav,,,,,,,,,0,0,0,0,0,67,67,232,219.022546736,9.621726349e-06,219.880143093,0.857606620761,,,,,x,1,0.833794958889,2018_Nov_28_1540,59.9865326904,chinese_cond1,001,1063,
images/pineapple01a.jpg,pineapple,z,sounds/greatgatsby_english.wav,,,,,,,,,0,0,0,0,0,68,68,51,220.993632712,8.98004509509e-06,221.763944659,0.770321889082,,,,,z,1,0.750438747229,2018_Nov_28_1540,59.9865326904,chinese_cond1,001,1063,
images/broom02.jpg,broom,z,sounds/greatgatsby_english.wav,,,,,,,,,0,0,0,0,0,69,69,116,222.859631016,9.621726349e-06,223.697769509,0.838148755953,,,,,z,1,0.817122882698,2018_Nov_28_1540,59.9865326904,chinese_cond1,001,1063,
images/honeycomb.jpg,honey comb,z,sounds/greatgatsby_english.wav,,,,,,,,,0,0,0,0,0,70,70,59,224.811571511,9.30088572204e-06,225.614915547,0.80335429986,,,,,z,1,0.783771995222,2018_Nov_28_1540,59.9865326904,chinese_cond1,001,1063,
images/beermug01b.jpg,beer mug,z,sounds/greatgatsby_english.wav,,,,,,,,,0,0,0,0,0,71,71,111,226.731840417,9.30088572204e-06,228.03221425,1.30038345489,,,,,x,0,1.28390124603,2018_Nov_28_1540,59.9865326904,chinese_cond1,001,1063,
images/grasshopper.jpg,cauliflower,x,sounds/greatgatsby_english.wav,,,,,,,,,0,0,0,0,0,72,72,148,229.127571867,9.62149351835e-06,230.049397877,0.921836593421,,,,,x,1,0.900464020204,2018_Nov_28_1540,59.9865326904,chinese_cond1,001,1063,
images/bicycle.jpg,hand bag,x,sounds/greatgatsby_english.wav,,,,,,,,,0,0,0,0,0,73,73,186,231.161718465,9.621726349e-06,232.116558925,0.954851364717,,,,,x,1,0.933811379829,2018_Nov_28_1540,59.9865326904,chinese_cond1,001,1063,
images/umbrella01.jpg,umbrella,z,sounds/greatgatsby_english.wav,,,,,,,,,0,0,0,0,0,74,74,53,233.231420271,9.30088572204e-06,233.96703013,0.735619480256,,,,,z,1,0.717090425547,2018_Nov_28_1540,59.9865326904,chinese_cond1,001,1063,
images/lemon02.jpg,lemon,z,sounds/greatgatsby_english.wav,,,,,,,,,0,0,0,0,0,75,75,14,235.079479969,9.30088572204e-06,235.700821176,0.621351149166,,,,,z,1,0.60040866374,2018_Nov_28_1540,59.9865326904,chinese_cond1,001,1063,
images/chessknight02b (1).jpg,cockroach,x,sounds/greatgatsby_english.wav,,,,,,,,,0,0,0,0,0,76,76,155,236.810356296,9.30088572204e-06,237.384569053,0.574223019416,,,,,x,1,0.550390831428,2018_Nov_28_1540,59.9865326904,chinese_cond1,001,1063,
images/computerkeyboard01a.jpg,computer keyboard,z,sounds/greatgatsby_english.wav,,,,,,,,,0,0,0,0,0,77,77,61,238.503945198,9.30088572204e-06,239.301721185,0.797786250478,,,,,z,1,0.783691173187,2018_Nov_28_1540,59.9865326904,chinese_cond1,001,1063,
images/hanger02a.jpg,hanger,z,sounds/greatgatsby_english.wav,,,,,,,,,0,0,0,0,0,78,78,88,240.395867757,9.621726349e-06,241.452259613,1.05640179757,,,,,z,1,1.03383325296,2018_Nov_28_1540,59.9865326904,chinese_cond1,001,1063,
images/8ball.jpg,nail clipper,x,sounds/greatgatsby_english.wav,,,,,,,,,0,0,0,0,0,79,79,206,242.56980155,8.98027792573e-06,243.202713113,0.632921184646,,,,,x,1,0.617080098484,2018_Nov_28_1540,59.9865326904,chinese_cond1,001,1063,
images/donut.jpg,rhinoceros,x,sounds/greatgatsby_english.wav,,,,,,,,,0,0,0,0,0,80,80,216,244.329255464,9.30088572204e-06,245.003166485,0.673921284499,,,,,x,1,0.650416874094,2018_Nov_28_1540,59.9865326904,chinese_cond1,001,1063,
images/candy.jpg,candy,z,sounds/greatgatsby_english.wav,,,,,,,,,0,0,0,0,0,81,81,31,246.10563771,8.98004509509e-06,246.77026897,0.664641843643,,,,,z,1,0.650405969704,2018_Nov_28_1540,59.9865326904,chinese_cond1,001,1063,
images/cigar.jpg,crocodile,x,sounds/greatgatsby_english.wav,,,,,,,,,0,0,0,0,0,82,82,162,247.869323226,8.98027792573e-06,248.470707525,0.601394562051,,,,,x,1,0.583730493905,2018_Nov_28_1540,59.9865326904,chinese_cond1,001,1063,
images/blueberry02.jpg,blueberry,z,sounds/greatgatsby_english.wav,,,,,,,,,0,0,0,0,0,83,83,46,249.583553134,8.98027792573e-06,250.237824763,0.654281570576,,,,,z,1,0.63374992949,2018_Nov_28_1540,59.9865326904,chinese_cond1,001,1063,
images/aloe02.jpg,broad sword,x,sounds/greatgatsby_english.wav,,,,,,,,,0,0,0,0,0,84,84,137,251.360531923,8.98027792573e-06,252.054935779,0.694413156249,,,,,x,1,0.683749480406,2018_Nov_28_1540,59.9865326904,chinese_cond1,001,1063,
images/pingpongpaddle01c (1).jpg,ping pong paddle,z,sounds/greatgatsby_english.wav,,,,,,,,,0,0,0,0,0,85,85,10,253.166809602,8.98027792573e-06,253.938898988,0.772099649534,,,,,z,1,0.750558055704,2018_Nov_28_1540,59.9865326904,chinese_cond1,001,1063,
images/knife04.jpg,tooth brush,x,sounds/greatgatsby_english.wav,,,,,,,,,0,0,0,0,0,86,86,233,255.037574471,8.98027792573e-06,255.639202519,0.601637348533,,,,,x,1,0.583744605538,2018_Nov_28_1540,59.9865326904,chinese_cond1,001,1063,
images/50dollarbill.jpg,cherry,x,sounds/greatgatsby_english.wav,,,,,,,,,0,0,0,0,0,87,87,151,256.760548216,8.98027792573e-06,257.656368186,0.895829270827,,,,,x,1,0.88381535653,2018_Nov_28_1540,59.9865326904,chinese_cond1,001,1063,
images/remotecontrol01c.jpg,remote control,z,sounds/greatgatsby_english.wav,,,,,,,,,0,0,0,0,0,88,88,85,258.765968413,9.621726349e-06,259.390145762,0.624187611975,,,,,z,1,0.600409625797,2018_Nov_28_1540,59.9865326904,chinese_cond1,001,1063,
images/apple06.jpg,apple,z,sounds/greatgatsby_english.wav,,,,,,,,,0,0,0,0,0,89,89,13,260.519239453,9.30088572204e-06,261.123897679,0.604668168351,,,,,z,1,0.583711891901,2018_Nov_28_1540,59.9865326904,chinese_cond1,001,1063,
images/daisy.jpg,daisy,z,sounds/greatgatsby_english.wav,,,,,,,,,0,0,0,0,0,90,90,6,262.226139588,8.98004509509e-06,262.991047374,0.764917087043,,,,,z,1,0.750431691296,2018_Nov_28_1540,59.9865326904,chinese_cond1,001,1063,
images/saltshaker03c.jpg,salt shaker,z,sounds/greatgatsby_english.wav,,,,,,,,,0,0,0,0,0,91,91,63,264.104687732,8.98027792573e-06,264.85817975,0.753501639469,,,,,z,1,0.7337580116,2018_Nov_28_1540,59.9865326904,chinese_cond1,001,1063,
images/bench02.jpg,electric toothbrush,x,sounds/greatgatsby_english.wav,,,,,,,,,0,0,0,0,0,92,92,172,265.967347003,9.621726349e-06,266.675333743,0.707997323945,,,,,x,1,0.683772251708,2018_Nov_28_1540,59.9865326904,chinese_cond1,001,1063,
images/headphones02b.jpg,headphones,z,sounds/greatgatsby_english.wav,,,,,,,,,0,0,0,0,0,93,93,101,267.783492967,8.98027792573e-06,268.475876276,0.692400948377,,,,,z,1,0.683765837457,2018_Nov_28_1540,59.9865326904,chinese_cond1,001,1063,
images/backpack01b.jpg,swallow,x,sounds/greatgatsby_english.wav,,,,,,,,,0,0,0,0,0,94,94,228,269.608851021,9.62149351835e-06,270.392929305,0.784088226501,,,,,x,1,0.767109861132,2018_Nov_28_1540,59.9865326904,chinese_cond1,001,1063,
images/globe.jpg,cloud,x,sounds/greatgatsby_english.wav,,,,,,,,,0,0,0,0,0,95,95,154,271.521539349,9.30088572204e-06,272.343413082,0.821883354802,,,,,x,1,0.800453692907,2018_Nov_28_1540,59.9865326904,chinese_cond1,001,1063,
images/spoon02b.jpg,spoon,z,sounds/greatgatsby_english.wav,,,,,,,,,0,0,0,0,0,96,96,38,273.437221293,9.30088572204e-06,274.143878321,0.706667291,,,,,z,1,0.683764554327,2018_Nov_28_1540,59.9865326904,chinese_cond1,001,1063,
images/feather03b.jpg,feather,z,sounds/greatgatsby_english.wav,,,,,,,,,0,0,0,0,0,97,97,114,275.246879698,8.98027792573e-06,275.977668148,0.730798391858,,,,,z,1,0.717099405825,2018_Nov_28_1540,59.9865326904,chinese_cond1,001,1063,
images/djmixer01.jpg,light bulb,x,sounds/greatgatsby_english.wav,,,,,,,,,0,0,0,0,0,98,98,196,277.099929505,9.30111855268e-06,277.711430329,0.611511086812,,,,,x,1,0.600392306689,2018_Nov_28_1540,59.9865326904,chinese_cond1,001,1063,
images/atm.jpg,atm,z,sounds/greatgatsby_english.wav,,,,,,,,,0,0,0,0,0,99,99,96,278.850675825,9.30088572204e-06,279.595267495,0.744602253661,,,,,z,1,0.733782707248,2018_Nov_28_1540,59.9865326904,chinese_cond1,001,1063,
images/screw03c.jpg,screw,z,sounds/greatgatsby_english.wav,,,,,,,,,0,0,0,0,0,100,100,84,280.689653325,9.30088572204e-06,281.479054307,0.789411244681,,,,,z,1,0.767109861365,2018_Nov_28_1540,59.9865326904,chinese_cond1,001,1063,
images/belt02a.jpg,snowman,x,sounds/greatgatsby_english.wav,,,,,,,,,0,0,0,0,0,101,101,224,282.58285364,8.98004509509e-06,283.212834769,0.629991391674,,,,,x,1,0.617057327181,2018_Nov_28_1540,59.9865326904,chinese_cond1,001,1063,
images/lily.jpg,kiwi,x,sounds/greatgatsby_english.wav,,,,,,,,,0,0,0,0,0,102,102,190,284.313341574,8.98027792573e-06,284.946612345,0.633280713577,,,,,x,1,0.617080098251,2018_Nov_28_1540,59.9865326904,chinese_cond1,001,1063,
images/parkingmeter.jpg,ear,x,sounds/greatgatsby_english.wav,,,,,,,,,0,0,0,0,0,103,103,171,286.050592245,9.30111855268e-06,286.763723681,0.713142020861,,,,,x,1,0.700422839494,2018_Nov_28_1540,59.9865326904,chinese_cond1,001,1063,
images/wallet01.jpg,lamp,x,sounds/greatgatsby_english.wav,,,,,,,,,0,0,0,0,0,104,104,193,287.870201041,9.30088572204e-06,288.564182506,0.693991727894,,,,,x,1,0.683736972278,2018_Nov_28_1540,59.9865326904,chinese_cond1,001,1063,
images/paperclip04.jpg,eye drops,x,sounds/greatgatsby_english.wav,,,,,,,,,0,0,0,0,0,105,105,174,289.671324401,9.621726349e-06,290.398000236,0.726685456699,,,,,x,1,0.717115762411,2018_Nov_28_1540,59.9865326904,chinese_cond1,001,1063,
images/computermouse02a.jpg,world map,x,sounds/greatgatsby_english.wav,,,,,,,,,0,0,0,0,0,106,106,239,291.500184415,9.30088572204e-06,292.281800198,0.78162604617,,,,,x,1,0.767116275849,2018_Nov_28_1540,59.9865326904,chinese_cond1,001,1063,
images/skateboard.jpg,key,x,sounds/greatgatsby_english.wav,,,,,,,,,0,0,0,0,0,107,107,189,293.375618031,9.621726349e-06,294.098936551,0.72332910425,,,,,x,1,0.700440158369,2018_Nov_28_1540,59.9865326904,chinese_cond1,001,1063,
images/tulip02.jpg,sport shorts,x,sounds/greatgatsby_english.wav,,,,,,,,,0,0,0,0,0,108,108,225,295.195261786,9.30088572204e-06,295.916058151,0.720806307159,,,,,x,1,0.70042829169,2018_Nov_28_1540,59.9865326904,chinese_cond1,001,1063,
images/tent.jpg,tent,z,sounds/greatgatsby_english.wav,,,,,,,,,0,0,0,0,0,109,109,11,297.045048249,9.30111855268e-06,297.933225421,0.888187755598,,,,,z,1,0.86713205534,2018_Nov_28_1540,59.9865326904,chinese_cond1,001,1063,
images/cake.jpg,cake,z,sounds/greatgatsby_english.wav,,,,,,,,,0,0,0,0,0,110,110,23,299.049253232,8.98027792573e-06,299.85037146,0.801128491294,,,,,z,1,0.783778088866,2018_Nov_28_1540,59.9865326904,chinese_cond1,001,1063,
images/croissant02b.jpg,croissant,z,sounds/greatgatsby_english.wav,,,,,,,,,0,0,0,0,0,111,111,39,300.965863344,8.98027792573e-06,301.617506017,0.651652614819,,,,,z,1,0.63367135264,2018_Nov_28_1540,59.9865326904,chinese_cond1,001,1063,
images/orange.jpg,bat,x,sounds/greatgatsby_english.wav,,,,,,,,,0,0,0,0,0,112,112,128,302.744632081,8.65967012942e-06,303.367936746,0.623314607656,,,,,x,1,0.600388778839,2018_Nov_28_1540,59.9865326904,chinese_cond1,001,1063,
images/razor04a.jpg,razor,z,sounds/greatgatsby_english.wav,,,,,,,,,0,0,0,0,0,113,113,36,304.469716816,8.98004509509e-06,305.135055267,0.665348072769,,,,,x,0,0.650410138769,2018_Nov_28_1540,59.9865326904,chinese_cond1,001,1063,
images/eyedrops.jpg,bicycle,x,sounds/greatgatsby_english.wav,,,,,,,,,0,0,0,0,0,114,114,131,306.237385695,8.98004509509e-06,306.968666773,0.731291661737,,,,,x,1,0.716918518767,2018_Nov_28_1540,59.9865326904,chinese_cond1,001,1063,
images/calculator02b.jpg,dice,x,sounds/greatgatsby_english.wav,,,,,,,,,0,0,0,0,0,115,115,165,308.072541796,9.621726349e-06,308.769304881,0.696773668053,,,,,x,1,0.683762629982,2018_Nov_28_1540,59.9865326904,chinese_cond1,001,1063,
images/chameleon.jpg,50 dollar bill,x,sounds/greatgatsby_english.wav,,,,,,,,,0,0,0,0,0,116,116,120,309.883264677,9.30088572204e-06,310.519737855,0.636482799193,,,,,x,1,0.617064382881,2018_Nov_28_1540,59.9865326904,chinese_cond1,001,1063,
images/hand01a.jpg,cupcake,x,sounds/greatgatsby_english.wav,,,,,,,,,0,0,0,0,0,117,117,163,311.633267564,3.78452241421e-05,312.336899545,0.70366341155,,,,,x,1,0.683778024744,2018_Nov_28_1540,59.9865326904,chinese_cond1,001,1063,
images/ceilingfan02.jpg,paper clip,x,sounds/greatgatsby_english.wav,,,,,,,,,0,0,0,0,0,118,118,208,313.43584668,9.30088572204e-06,314.087398909,0.651562812738,,,,,x,1,0.633823374752,2018_Nov_28_1540,59.9865326904,chinese_cond1,001,1063,
images/hat05.jpg,hat,z,sounds/greatgatsby_english.wav,,,,,,,,,0,0,0,0,0,119,119,15,315.191390675,9.30088572204e-06,315.904449629,0.713068575365,,,,,z,1,0.700414500665,2018_Nov_28_1540,59.9865326904,chinese_cond1,001,1063,
images/birthdaycandle.jpg,birthday candle,z,sounds/greatgatsby_english.wav,,,,,,,,,0,0,0,0,0,120,120,55,317.000928169,9.94233414531e-06,317.738240097,0.737322191941,,,,,z,1,0.717104537413,2018_Nov_28_1540,59.9865326904,chinese_cond1,001,1063,
images/graduationcap.jpg,graduation cap,z,sounds/greatgatsby_english.wav,,,,,,,,,0,0,0,0,0,121,121,35,318.840801124,9.94256697595e-06,319.638723361,0.797932499787,,,,,z,1,0.783788993256,2018_Nov_28_1540,59.9865326904,chinese_cond1,001,1063,
images/worldmap.jpg,scooter,x,sounds/greatgatsby_english.wav,,,,,,,,,0,0,0,0,0,122,122,220,320.770359413,9.621726349e-06,321.8226146,1.05226737424,,,,,x,1,1.03386019357,2018_Nov_28_1540,59.9865326904,chinese_cond1,001,1063,
images/flipflop01b.jpg,flip flop,z,sounds/greatgatsby_english.wav,,,,,,,,,0,0,0,0,0,123,123,27,322.940080206,9.30088572204e-06,323.60638435,0.666314086644,,,,,z,1,0.650413025403,2018_Nov_28_1540,59.9865326904,chinese_cond1,001,1063,
images/cheetah.jpg,cheetah,z,sounds/greatgatsby_english.wav,,,,,,,,,0,0,0,0,0,124,124,82,324.709189767,9.94233414531e-06,325.756927268,1.04774808465,,,,,z,1,1.03380695381,2018_Nov_28_1540,59.9865326904,chinese_cond1,001,1063,
images/cockroach02.jpg,belt,x,sounds/greatgatsby_english.wav,,,,,,,,,0,0,0,0,0,125,125,129,326.856808665,9.621726349e-06,327.490711258,0.633913176833,,,,,x,1,0.617068231571,2018_Nov_28_1540,59.9865326904,chinese_cond1,001,1063,
images/hairdryer03a.jpg,hairdryer,z,sounds/greatgatsby_english.wav,,,,,,,,,0,0,0,0,0,126,126,119,328.590596504,9.30088572204e-06,329.324488898,0.733904902125,,,,,z,1,0.717081124661,2018_Nov_28_1540,59.9865326904,chinese_cond1,001,1063,
images/stapler03a.jpg,candy cane,x,sounds/greatgatsby_english.wav,,,,,,,,,0,0,0,0,0,127,127,145,330.436195946,8.98027792573e-06,331.458375775,1.02218977246,,,,,x,1,1.0005054574,2018_Nov_28_1540,59.9865326904,chinese_cond1,001,1063,
images/icecube02 (2).jpg,aloe,x,sounds/greatgatsby_english.wav,,,,,,,,,0,0,0,0,0,128,128,122,332.570418619,9.621726349e-06,333.275502507,0.705093830358,,,,,x,1,0.683753649937,2018_Nov_28_1540,59.9865326904,chinese_cond1,001,1063,
images/crocodile.jpg,triangle ruler,x,sounds/greatgatsby_english.wav,,,,,,,,,0,0,0,0,0,129,129,235,334.373304665,9.30088572204e-06,335.12595992,0.752665197244,,,,,x,1,0.733752559172,2018_Nov_28_1540,59.9865326904,chinese_cond1,001,1063,
images/volleyball.jpg,volley ball,z,sounds/greatgatsby_english.wav,,,,,,,,,0,0,0,0,0,130,130,2,336.257764672,9.621726349e-06,337.19316619,0.935412101913,,,,,z,1,0.917160150362,2018_Nov_28_1540,59.9865326904,chinese_cond1,001,1063,
images/mattress.jpg,cat,x,sounds/greatgatsby_english.wav,,,,,,,,,0,0,0,0,0,131,131,147,338.298962016,9.30088572204e-06,339.31035341,1.01140133571,,,,,x,1,1.00049840147,2018_Nov_28_1540,59.9865326904,chinese_cond1,001,1063,
images/toothbrush03a.jpg,parrot,x,sounds/greatgatsby_english.wav,,,,,,,,,0,0,0,0,0,132,132,210,340.403725439,9.30088572204e-06,341.227515484,0.823799987556,,,,,x,1,0.800456579542,2018_Nov_28_1540,59.9865326904,chinese_cond1,001,1063,
images/sportshorts02.jpg,tape,x,sounds/greatgatsby_english.wav,,,,,,,,,0,0,0,0,0,133,133,230,342.335669256,8.65943729877e-06,343.161336807,0.825677492423,,,,,x,1,0.817126410548,2018_Nov_28_1540,59.9865326904,chinese_cond1,001,1063,
images/squirrel.jpg,binder,x,sounds/greatgatsby_english.wav,,,,,,,,,0,0,0,0,0,134,134,132,344.265457503,8.98004509509e-06,344.845093984,0.579646423459,,,,,x,1,0.567064831965,2018_Nov_28_1540,59.9865326904,chinese_cond1,001,1063,
images/bat.jpg,hand,x,sounds/greatgatsby_english.wav,,,,,,,,,0,0,0,0,0,135,135,185,345.942931101,9.30111855268e-06,346.512183255,0.569262096426,,,,,x,1,0.550385379232,2018_Nov_28_1540,59.9865326904,chinese_cond1,001,1063,
images/parrot01.jpg,chameleon,x,sounds/greatgatsby_english.wav,,,,,,,,,0,0,0,0,0,136,136,150,347.627676422,9.30088572204e-06,348.229287151,0.601620991481,,,,,x,1,0.583727607271,2018_Nov_28_1540,59.9865326904,chinese_cond1,001,1063,
images/diploma01.jpg,glasses,x,sounds/greatgatsby_english.wav,,,,,,,,,0,0,0,0,0,137,137,179,349.361273432,3.01478430629e-05,350.046411958,0.685162580106,,,,,x,1,0.667082856642,2018_Nov_28_1540,59.9865326904,chinese_cond1,001,1063,
images/glasses01b.jpg,calculator,x,sounds/greatgatsby_english.wav,,,,,,,,,0,0,0,0,0,138,138,142,351.139905541,8.98027792573e-06,351.93022539,0.790329470998,,,,,x,1,0.767113389215,2018_Nov_28_1540,59.9865326904,chinese_cond1,001,1063,
images/parkbench03.jpg,park bench,z,sounds/greatgatsby_english.wav,,,,,,,,,0,0,0,0,0,139,139,71,353.036000369,8.98004509509e-06,353.663993986,0.62800387945,,,,,x,0,0.617019161116,2018_Nov_28_1540,59.9865326904,chinese_cond1,001,1063,
images/scooter.jpg,pen,x,sounds/greatgatsby_english.wav,,,,,,,,,0,0,0,0,0,140,140,212,354.758682898,1.02629419416e-05,355.447776565,0.689104249934,,,,,x,1,0.667081573745,2018_Nov_28_1540,59.9865326904,chinese_cond1,001,1063,
images/bullet (2).jpg,rubber glove,x,sounds/greatgatsby_english.wav,,,,,,,,,0,0,0,0,0,141,141,217,356.552794961,8.98027792573e-06,357.364935111,0.812150092563,,,,,x,1,0.800457541598,2018_Nov_28_1540,59.9865326904,chinese_cond1,001,1063,
images/microphone01.jpg,diaper,x,sounds/greatgatsby_english.wav,,,,,,,,,0,0,0,0,0,142,142,164,358.46563018,9.621726349e-06,359.182059277,0.716439039912,,,,,x,1,0.700430536876,2018_Nov_28_1540,59.9865326904,chinese_cond1,001,1063,
images/corn01.jpg,corn,z,sounds/greatgatsby_english.wav,,,,,,,,,0,0,0,0,0,143,143,22,360.281762674,9.621726349e-06,360.849144058,0.567391647492,,,,,x,0,0.550382492831,2018_Nov_28_1540,59.9865326904,chinese_cond1,001,1063,
images/bull.jpg,button,x,sounds/greatgatsby_english.wav,,,,,,,,,0,0,0,0,0,144,144,141,361.955496015,8.98027792573e-06,362.616255523,0.660769450013,,,,,x,1,0.650412704563,2018_Nov_28_1540,59.9865326904,chinese_cond1,001,1063,
images/highheelshoe02a.jpg,high heel shoe,z,sounds/greatgatsby_english.wav,,,,,,,,,0,0,0,0,0,145,145,75,363.722969575,9.30111855268e-06,364.583461087,0.86050113407,,,,,z,1,0.850487240357,2018_Nov_28_1540,59.9865326904,chinese_cond1,001,1063,
images/pepper05a.jpg,lighter,x,sounds/greatgatsby_english.wav,,,,,,,,,0,0,0,0,0,146,146,198,365.704562715,9.62149351835e-06,366.383889123,0.679335708264,,,,,x,1,0.667098572012,2018_Nov_28_1540,59.9865326904,chinese_cond1,001,1063,
images/safe.jpg,safe,z,sounds/greatgatsby_english.wav,,,,,,,,,0,0,0,0,0,147,147,78,367.49535595,9.62149351835e-06,368.184338325,0.688992638607,,,,,z,1,0.667097288882,2018_Nov_28_1540,59.9865326904,chinese_cond1,001,1063,
images/lollipop03b.jpg,lollipop,z,sounds/greatgatsby_english.wav,,,,,,,,,0,0,0,0,0,148,148,42,369.279602292,9.30088572204e-06,370.084655134,0.805062784348,,,,,z,1,0.78360778559,2018_Nov_28_1540,59.9865326904,chinese_cond1,001,1063,
images/pictureframe04.jpg,picture frame,z,sounds/greatgatsby_english.wav,,,,,,,,,0,0,0,0,0,149,149,41,371.208901118,8.98027792573e-06,372.235365789,1.026474935,,,,,z,1,1.01718491013,2018_Nov_28_1540,59.9865326904,chinese_cond1,001,1063,
images/shotglass.jpg,shot glass,z,sounds/greatgatsby_english.wav,,,,,,,,,0,0,0,0,0,150,150,86,373.34414112,9.62149351835e-06,374.052477447,0.708346589701,,,,,z,1,0.68375236704,2018_Nov_28_1540,59.9865326904,chinese_cond1,001,1063,
images/pen03c.jpg,pepper,x,sounds/greatgatsby_english.wav,,,,,,,,,0,0,0,0,0,151,151,211,375.146940571,9.30088572204e-06,376.10303794,0.956107952399,,,,,x,1,0.933848262765,2018_Nov_28_1540,59.9865326904,chinese_cond1,001,1063,
images/sock03.jpg,sock,z,sounds/greatgatsby_english.wav,,,,,,,,,0,0,0,0,0,152,152,90,377.209468154,8.98027792573e-06,378.053494135,0.84403560264,,,,,z,1,0.83379014791,2018_Nov_28_1540,59.9865326904,chinese_cond1,001,1063,
images/mirror02.jpg,8 ball,x,sounds/greatgatsby_english.wav,,,,,,,,,0,0,0,0,0,153,153,121,379.157850562,8.98027792573e-06,379.903958283,0.746117663803,,,,,x,1,0.733733315952,2018_Nov_28_1540,59.9865326904,chinese_cond1,001,1063,
images/butterfly.jpg,butterfly,z,sounds/greatgatsby_english.wav,,,,,,,,,0,0,0,0,0,154,154,91,381.011921867,8.98027792573e-06,381.654408897,0.642496972345,,,,,x,0,0.633720102254,2018_Nov_28_1540,59.9865326904,chinese_cond1,001,1063,
images/gamecontroller01.jpg,game controller,z,sounds/greatgatsby_english.wav,,,,,,,,,0,0,0,0,0,155,155,112,382.774737906,8.98004509509e-06,383.521545442,0.746817157837,,,,,z,1,0.733762822347,2018_Nov_28_1540,59.9865326904,chinese_cond1,001,1063,
images/triangleruler02.jpg,bottle of red wine,x,sounds/greatgatsby_english.wav,,,,,,,,,0,0,0,0,0,156,156,134,384.686497424,9.30088572204e-06,385.271990604,0.585503122536,,,,,x,1,0.567058738321,2018_Nov_28_1540,59.9865326904,chinese_cond1,001,1063,
images/teapot.jpg,light switch,x,sounds/greatgatsby_english.wav,,,,,,,,,0,0,0,0,0,157,157,197,386.389119452,8.98004509509e-06,387.155626357,0.766516525997,,,,,x,1,0.750268443953,2018_Nov_28_1540,59.9865326904,chinese_cond1,001,1063,
images/cloud.jpg,ceiling fan,x,sounds/greatgatsby_english.wav,,,,,,,,,0,0,0,0,0,158,158,149,388.261034109,8.98027792573e-06,389.056275754,0.7952512661,,,,,x,1,0.783775523072,2018_Nov_28_1540,59.9865326904,chinese_cond1,001,1063,
images/cherry01.jpg,highlighter,x,sounds/greatgatsby_english.wav,,,,,,,,,0,0,0,0,0,159,159,187,390.166639298,8.98027792573e-06,390.756715271,0.590085594216,,,,,x,1,0.567059379769,2018_Nov_28_1540,59.9865326904,chinese_cond1,001,1063,
images/blackolive.jpg,tank,x,sounds/greatgatsby_english.wav,,,,,,,,,0,0,0,0,0,160,160,229,391.872060906,8.98027792573e-06,392.607172363,0.735120758181,,,,,x,1,0.717079841765,2018_Nov_28_1540,59.9865326904,chinese_cond1,001,1063,
images/bracelet02a.jpg,chess knight,x,sounds/greatgatsby_english.wav,,,,,,,,,0,0,0,0,0,161,161,152,393.719350551,8.98027792573e-06,394.357622015,0.638281085528,,,,,x,1,0.617072080262,2018_Nov_28_1540,59.9865326904,chinese_cond1,001,1063,
images/redfox.jpg,red fox,z,sounds/greatgatsby_english.wav,,,,,,,,,0,0,0,0,0,162,162,1,395.471428507,9.621726349e-06,396.15807635,0.68665810558,,,,,z,1,0.667082856642,2018_Nov_28_1540,59.9865326904,chinese_cond1,001,1063,
images/mushroom01.jpg,shower head,x,sounds/greatgatsby_english.wav,,,,,,,,,0,0,0,0,0,163,163,222,397.274268049,8.98004509509e-06,397.891856812,0.617598705227,,,,,x,1,0.600402890472,2018_Nov_28_1540,59.9865326904,chinese_cond1,001,1063,
images/tank.jpg,wallet,x,sounds/greatgatsby_english.wav,,,,,,,,,0,0,0,0,0,164,164,237,398.997652317,9.30111855268e-06,399.642293955,0.644651260227,,,,,x,1,0.633727478795,2018_Nov_28_1540,59.9865326904,chinese_cond1,001,1063,
images/aquarium.jpg,computer mouse,x,sounds/greatgatsby_english.wav,,,,,,,,,0,0,0,0,0,165,165,159,400.779584011,9.62149351835e-06,401.442750214,0.663176786853,,,,,x,1,0.650412383955,2018_Nov_28_1540,59.9865326904,chinese_cond1,001,1063,
images/carrot02.jpg,corkscrew,x,sounds/greatgatsby_english.wav,,,,,,,,,0,0,0,0,0,166,166,161,402.546885343,9.30088572204e-06,403.126519259,0.579644178506,,,,,x,1,0.567066114862,2018_Nov_28_1540,59.9865326904,chinese_cond1,001,1063,
images/raisin.jpg,ruler,x,sounds/greatgatsby_english.wav,,,,,,,,,0,0,0,0,0,167,167,218,404.232155365,9.62149351835e-06,404.843613854,0.611468110001,,,,,x,1,0.600403211545,2018_Nov_28_1540,59.9865326904,chinese_cond1,001,1063,
images/bus.jpg,microphone,x,sounds/greatgatsby_english.wav,,,,,,,,,0,0,0,0,0,168,168,203,405.96275074,8.65943729877e-06,406.610552449,0.647811010247,,,,,x,1,0.633571928833,2018_Nov_28_1540,59.9865326904,chinese_cond1,001,1063,
images/lighter02b.jpg,stapler,x,sounds/greatgatsby_english.wav,,,,,,,,,0,0,0,0,0,169,169,227,407.712655806,8.98004509509e-06,408.444523484,0.731878261548,,,,,x,1,0.717098764144,2018_Nov_28_1540,59.9865326904,chinese_cond1,001,1063,
images/desktopcomputer.jpg,desktop computer,z,sounds/greatgatsby_english.wav,,,,,,,,,0,0,0,0,0,170,170,16,409.581287877,8.98004509509e-06,410.22831793,0.647039995296,,,,,z,1,0.633752815891,2018_Nov_28_1540,59.9865326904,chinese_cond1,001,1063,
images/giraffe.jpg,lettuce,x,sounds/greatgatsby_english.wav,,,,,,,,,0,0,0,0,0,171,171,195,411.331408148,9.30088572204e-06,411.9120626,0.580664714798,,,,,x,1,0.567057134584,2018_Nov_28_1540,59.9865326904,chinese_cond1,001,1063,
images/fireextinguisher02.jpg,fire extinguisher,z,sounds/greatgatsby_english.wav,,,,,,,,,0,0,0,0,0,172,172,175,413.023055079,9.62149351835e-06,413.862561771,0.839516954497,,,,,z,1,0.817122882465,2018_Nov_28_1540,59.9865326904,chinese_cond1,001,1063,
images/pipe.jpg,icecube,x,sounds/greatgatsby_english.wav,,,,,,,,,0,0,0,0,0,173,173,188,414.972179638,9.94256697595e-06,415.529643986,0.557474611793,,,,,x,1,0.533711699303,2018_Nov_28_1540,59.9865326904,chinese_cond1,001,1063,
images/handbag02a.jpg,candle,x,sounds/greatgatsby_english.wav,,,,,,,,,0,0,0,0,0,174,174,144,416.647262255,8.98027792573e-06,417.280091393,0.632839079713,,,,,x,1,0.617072080262,2018_Nov_28_1540,59.9865326904,chinese_cond1,001,1063,
images/gorilla.jpg,gorilla,z,sounds/greatgatsby_english.wav,,,,,,,,,0,0,0,0,0,175,175,80,418.394596737,9.621726349e-06,418.947188361,0.552602528362,,,,,x,0,0.533730301075,2018_Nov_28_1540,59.9865326904,chinese_cond1,001,1063,
images/baseball01a.jpg,baseball,z,sounds/greatgatsby_english.wav,,,,,,,,,0,0,0,0,0,176,176,74,420.080627511,9.621726349e-06,420.764304829,0.683687260374,,,,,z,1,0.667067141039,2018_Nov_28_1540,59.9865326904,chinese_cond1,001,1063,
images/weight01.jpg,weight,z,sounds/greatgatsby_english.wav,,,,,,,,,0,0,0,0,0,177,177,67,421.868955679,8.98004509509e-06,422.448071629,0.579125892138,,,,,z,1,0.567063228227,2018_Nov_28_1540,59.9865326904,chinese_cond1,001,1063,
images/clothespin02a.jpg,clothes pin,z,sounds/greatgatsby_english.wav,,,,,,,,,0,0,0,0,0,178,178,79,423.553152245,8.98027792573e-06,424.26520285,0.71206022636,,,,,z,1,0.700431819772,2018_Nov_28_1540,59.9865326904,chinese_cond1,001,1063,
images/apricot.jpg,apricot,z,sounds/greatgatsby_english.wav,,,,,,,,,0,0,0,0,0,179,179,32,425.382309248,9.94233414531e-06,426.215680854,0.833382189972,,,,,z,1,0.817114864709,2018_Nov_28_1540,59.9865326904,chinese_cond1,001,1063,
images/banjo.jpg,knife,x,sounds/greatgatsby_english.wav,,,,,,,,,0,0,0,0,0,180,180,191,427.312167412,8.98004509509e-06,427.932791805,0.620634336025,,,,,x,1,0.600403532153,2018_Nov_28_1540,59.9865326904,chinese_cond1,001,1063,
images/straw.jpg,straw,z,sounds/greatgatsby_english.wav,,,,,,,,,0,0,0,0,0,181,181,109,429.024348229,9.62149351835e-06,429.799926747,0.775588460034,,,,,z,1,0.767112106318,2018_Nov_28_1540,59.9865326904,chinese_cond1,001,1063,
images/screwdriver02b.jpg,cola,x,sounds/greatgatsby_english.wav,,,,,,,,,0,0,0,0,0,182,182,158,430.893603783,8.98027792573e-06,431.78377424,0.890180078801,,,,,x,1,0.867138148984,2018_Nov_28_1540,59.9865326904,chinese_cond1,001,1063,
images/printer03a.jpg,printer,z,sounds/greatgatsby_english.wav,,,,,,,,,0,0,0,0,0,183,183,72,432.893148679,9.30088572204e-06,433.784278415,0.891139678191,,,,,z,1,0.867141997674,2018_Nov_28_1540,59.9865326904,chinese_cond1,001,1063,
images/doll.jpg,carrot,x,sounds/greatgatsby_english.wav,,,,,,,,,0,0,0,0,0,184,184,146,434.895272819,9.30111855268e-06,435.768103457,0.872840260155,,,,,x,1,0.850462224102,2018_Nov_28_1540,59.9865326904,chinese_cond1,001,1063,
images/medal01.jpg,medal,z,sounds/greatgatsby_english.wav,,,,,,,,,0,0,0,0,0,185,185,115,436.869007636,9.30111855268e-06,437.53522294,0.666225888301,,,,,z,1,0.650405328255,2018_Nov_28_1540,59.9865326904,chinese_cond1,001,1063,
images/bandaid01.jpg,door handle,x,sounds/greatgatsby_english.wav,,,,,,,,,0,0,0,0,0,186,186,170,438.642637448,9.30111855268e-06,439.369011164,0.72638365766,,,,,x,1,0.717088180594,2018_Nov_28_1540,59.9865326904,chinese_cond1,001,1063,
images/dragonfly02.jpg,dragon fly,z,sounds/greatgatsby_english.wav,,,,,,,,,0,0,0,0,0,187,187,29,440.466818774,8.98004509509e-06,441.152797912,0.685988759389,,,,,z,1,0.667071951786,2018_Nov_28_1540,59.9865326904,chinese_cond1,001,1063,
images/ear.jpg,bullet,x,sounds/greatgatsby_english.wav,,,,,,,,,0,0,0,0,0,188,188,139,442.256413472,9.30111855268e-06,442.953294261,0.696890410734,,,,,x,1,0.683788287686,2018_Nov_28_1540,59.9865326904,chinese_cond1,001,1063,
images/pouch01b.jpg,pouch,z,sounds/greatgatsby_english.wav,,,,,,,,,0,0,0,0,0,189,189,25,444.065649808,4.36182599515e-05,445.15380594,1.08818884613,,,,,z,1,1.06716874568,2018_Nov_28_1540,59.9865326904,chinese_cond1,001,1063,
images/lipstick04.jpg,lipstick,z,sounds/greatgatsby_english.wav,,,,,,,,,0,0,0,0,0,190,190,56,446.254077656,9.30111855268e-06,447.35436669,1.1002992976,,,,,z,1,1.08385076444,2018_Nov_28_1540,59.9865326904,chinese_cond1,001,1063,
images/gluestick.jpg,squirrel,x,sounds/greatgatsby_english.wav,,,,,,,,,0,0,0,0,0,191,191,226,448.463053822,9.621726349e-06,449.204834687,0.741791448789,,,,,x,1,0.717090746388,2018_Nov_28_1540,59.9865326904,chinese_cond1,001,1063,
images/mailbox01.jpg,mail box,z,sounds/greatgatsby_english.wav,,,,,,,,,0,0,0,0,0,192,192,73,450.324441431,9.621726349e-06,451.071804457,0.747373610036,,,,,z,1,0.733564295573,2018_Nov_28_1540,59.9865326904,chinese_cond1,001,1063,
images/lip.jpg,boxing glove,x,sounds/greatgatsby_english.wav,,,,,,,,,0,0,0,0,0,193,193,136,452.177224397,8.98004509509e-06,453.022472328,0.845258193789,,,,,x,1,0.833795920946,2018_Nov_28_1540,59.9865326904,chinese_cond1,001,1063,
images/lightbulb03b.jpg,treadmill,x,sounds/greatgatsby_english.wav,,,,,,,,,0,0,0,0,0,194,194,234,454.124850544,9.30088572204e-06,454.756252149,0.63141154754,,,,,x,1,0.617077532457,2018_Nov_28_1540,59.9865326904,chinese_cond1,001,1063,
images/swan.jpg,swan,z,sounds/greatgatsby_english.wav,,,,,,,,,0,0,0,0,0,195,195,54,455.848141482,8.98027792573e-06,456.823434686,0.975303787505,,,,,x,0,0.96714815544,2018_Nov_28_1540,59.9865326904,chinese_cond1,001,1063,
images/lamp04b.jpg,parking meter,x,sounds/greatgatsby_english.wav,,,,,,,,,0,0,0,0,0,196,196,209,457.945804768,8.65943729877e-06,458.823938219,0.878143393435,,,,,x,1,0.867135904031,2018_Nov_28_1540,59.9865326904,chinese_cond1,001,1063,
images/broadsword.jpg,teapot,x,sounds/greatgatsby_english.wav,,,,,,,,,0,0,0,0,0,197,197,231,459.916688048,9.30088572204e-06,460.524360417,0.607682310976,,,,,x,1,0.583715419751,2018_Nov_28_1540,59.9865326904,chinese_cond1,001,1063,
images/plate01b.jpg,plate,z,sounds/greatgatsby_english.wav,,,,,,,,,0,0,0,0,0,198,198,3,461.626107773,9.621726349e-06,462.424859075,0.798761886079,,,,,z,1,0.783786427695,2018_Nov_28_1540,59.9865326904,chinese_cond1,001,1063,
images/scissors04a.jpg,leek,x,sounds/greatgatsby_english.wav,,,,,,,,,0,0,0,0,0,199,199,194,463.519248434,8.98027792573e-06,464.191972143,0.672733973013,,,,,x,1,0.650407893816,2018_Nov_28_1540,59.9865326904,chinese_cond1,001,1063,
images/puzzle.jpg,puzzle,z,sounds/greatgatsby_english.wav,,,,,,,,,0,0,0,0,0,200,200,57,465.312558371,9.30088572204e-06,466.292496267,0.979947837768,,,,,z,1,0.967138213105,2018_Nov_28_1540,59.9865326904,chinese_cond1,001,1063,
images/cola.jpg,comb,x,sounds/greatgatsby_english.wav,,,,,,,,,0,0,0,0,0,201,201,157,467.413932407,9.30111855268e-06,468.076290712,0.662368247518,,,,,x,1,0.650416232413,2018_Nov_28_1540,59.9865326904,chinese_cond1,001,1063,
images/radish01.jpg,raisin,x,sounds/greatgatsby_english.wav,,,,,,,,,0,0,0,0,0,202,202,214,469.187347016,8.98004509509e-06,469.826732988,0.639395914273,,,,,x,1,0.61708458839,2018_Nov_28_1540,59.9865326904,chinese_cond1,001,1063,
images/flashlight05.jpg,flash light,z,sounds/greatgatsby_english.wav,,,,,,,,,0,0,0,0,0,203,203,8,470.929757778,9.30111855268e-06,471.627175135,0.697427298874,,,,,z,1,0.683748838957,2018_Nov_28_1540,59.9865326904,chinese_cond1,001,1063,
images/notebook02b.jpg,notebook,z,sounds/greatgatsby_english.wav,,,,,,,,,0,0,0,0,0,204,204,7,472.733996629,8.98004509509e-06,473.510993378,0.777007012162,,,,,z,1,0.76711884141,2018_Nov_28_1540,59.9865326904,chinese_cond1,001,1063,
images/floorlamp.jpg,floor lamp,z,sounds/greatgatsby_english.wav,,,,,,,,,0,0,0,0,0,205,205,26,474.604087021,8.98027792573e-06,475.31143328,0.707356522093,,,,,z,1,0.683742103865,2018_Nov_28_1540,59.9865326904,chinese_cond1,001,1063,
images/paintbrush03a.jpg,paint brush,z,sounds/greatgatsby_english.wav,,,,,,,,,0,0,0,0,0,206,206,0,476.412526363,9.30088572204e-06,477.428641667,1.01612492488,,,,,z,1,1.00050096726,2018_Nov_28_1540,59.9865326904,chinese_cond1,001,1063,
images/sunglasses03a.jpg,sun glasses,z,sounds/greatgatsby_english.wav,,,,,,,,,0,0,0,0,0,207,207,17,478.53738268,9.30088572204e-06,479.212422963,0.675050545717,,,,,z,1,0.667079007952,2018_Nov_28_1540,59.9865326904,chinese_cond1,001,1063,
images/doorhandle.jpg,doll,x,sounds/greatgatsby_english.wav,,,,,,,,,0,0,0,0,0,208,208,168,480.315586305,8.65943729877e-06,481.029558033,0.713981349487,,,,,x,1,0.70043181954,2018_Nov_28_1540,59.9865326904,chinese_cond1,001,1063,
images/electricguitar02.jpg,electric guitar,z,sounds/greatgatsby_english.wav,,,,,,,,,0,0,0,0,0,209,209,100,482.132178714,9.30088572204e-06,482.863355557,0.731187106576,,,,,z,1,0.717095557135,2018_Nov_28_1540,59.9865326904,chinese_cond1,001,1063,
images/barrel01.jpg,barrel,z,sounds/greatgatsby_english.wav,,,,,,,,,0,0,0,0,0,210,210,9,483.994646513,9.30088572204e-06,484.580459774,0.585823844187,,,,,z,1,0.567055210238,2018_Nov_28_1540,59.9865326904,chinese_cond1,001,1063,
images/corkscrew02a.jpg,masquerade mask,x,sounds/greatgatsby_english.wav,,,,,,,,,0,0,0,0,0,211,211,201,485.68474019,9.94233414531e-06,486.364243956,0.67951435037,,,,,x,1,0.667091516079,2018_Nov_28_1540,59.9865326904,chinese_cond1,001,1063,
images/kiwi03.jpg,backpack,x,sounds/greatgatsby_english.wav,,,,,,,,,0,0,0,0,0,212,212,125,487.493056696,8.98027792573e-06,488.314730619,0.821683865972,,,,,x,1,0.800430600997,2018_Nov_28_1540,59.9865326904,chinese_cond1,001,1063,
images/charcoalbarbecue.jpg,charcoal barbecue,z,sounds/greatgatsby_english.wav,,,,,,,,,0,0,0,0,0,213,213,77,489.431989681,8.98004509509e-06,490.4152711,0.983292002929,,,,,z,1,0.967160022119,2018_Nov_28_1540,59.9865326904,chinese_cond1,001,1063,
images/watermelon01.jpg,orange,x,sounds/greatgatsby_english.wav,,,,,,,,,0,0,0,0,0,214,214,207,491.546443709,9.30088572204e-06,492.182395073,0.635960984742,,,,,x,1,0.617085871287,2018_Nov_28_1540,59.9865326904,chinese_cond1,001,1063,
images/egg01b (1).jpg,egg,z,sounds/greatgatsby_english.wav,,,,,,,,,0,0,0,0,0,215,215,19,493.295051457,8.98027792573e-06,493.949322443,0.65428060852,,,,,z,1,0.63357353257,2018_Nov_28_1540,59.9865326904,chinese_cond1,001,1063,
images/highlighter03b.jpg,coin,x,sounds/greatgatsby_english.wav,,,,,,,,,0,0,0,0,0,216,216,156,495.05142548,9.30111855268e-06,495.716615437,0.66519957874,,,,,x,1,0.650414628908,2018_Nov_28_1540,59.9865326904,chinese_cond1,001,1063,
images/dryingmachine01.jpg,drying machine,z,sounds/greatgatsby_english.wav,,,,,,,,,0,0,0,0,0,217,217,18,496.838769032,8.98027792573e-06,497.533753072,0.694993662648,,,,,z,1,0.683775779558,2018_Nov_28_1540,59.9865326904,chinese_cond1,001,1063,
images/envelope02a.jpg,grand piano,x,sounds/greatgatsby_english.wav,,,,,,,,,0,0,0,0,0,218,218,182,498.657030155,8.98027792573e-06,499.334184636,0.67716410174,,,,,x,1,0.667080611456,2018_Nov_28_1540,59.9865326904,chinese_cond1,001,1063,
images/dolphin01.jpg,dolphin,z,sounds/greatgatsby_english.wav,,,,,,,,,0,0,0,0,0,219,219,99,500.43449131,9.30088572204e-06,501.201321181,0.766840454889,,,,,z,1,0.7504304084,2018_Nov_28_1540,59.9865326904,chinese_cond1,001,1063,
images/grandpiano.jpg,tulip,x,sounds/greatgatsby_english.wav,,,,,,,,,0,0,0,0,0,220,220,236,502.316585353,9.30088572204e-06,503.035123195,0.718548105564,,,,,x,1,0.700423480943,2018_Nov_28_1540,59.9865326904,chinese_cond1,001,1063,
images/fryingpan01.jpg,frying pan,z,sounds/greatgatsby_english.wav,,,,,,,,,0,0,0,0,0,221,221,45,504.135768552,9.30111855268e-06,504.752335816,0.616577206878,,,,,z,1,0.600464148447,2018_Nov_28_1540,59.9865326904,chinese_cond1,001,1063,
images/ashtray02b.jpg,ashtray,z,sounds/greatgatsby_english.wav,,,,,,,,,0,0,0,0,0,222,222,43,505.866880609,9.30088572204e-06,506.519339198,0.652468530694,,,,,z,1,0.633726196131,2018_Nov_28_1540,59.9865326904,chinese_cond1,001,1063,
images/candle08a.jpg,screw driver,x,sounds/greatgatsby_english.wav,,,,,,,,,0,0,0,0,0,223,223,221,507.633604642,9.30088572204e-06,508.253107152,0.619513093261,,,,,x,1,0.600377874449,2018_Nov_28_1540,59.9865326904,chinese_cond1,001,1063,
images/cactus.jpg,cactus,z,sounds/greatgatsby_english.wav,,,,,,,,,0,0,0,0,0,224,224,70,509.36503197,8.65943729877e-06,510.036900315,0.671878287336,,,,,z,1,0.650418156991,2018_Nov_28_1540,59.9865326904,chinese_cond1,001,1063,
images/tissuebox03.jpg,tissue box,z,sounds/greatgatsby_english.wav,,,,,,,,,0,0,0,0,0,225,225,58,511.16308025,9.621726349e-06,511.737357792,0.574287164025,,,,,z,1,0.550413923571,2018_Nov_28_1540,59.9865326904,chinese_cond1,001,1063,
images/bowlingball.jpg,bowling ball,z,sounds/greatgatsby_english.wav,,,,,,,,,0,0,0,0,0,226,226,20,512.870993224,9.30088572204e-06,513.487774409,0.616791769397,,,,,z,1,0.600361838238,2018_Nov_28_1540,59.9865326904,chinese_cond1,001,1063,
images/nametag01a.jpg,name tag,z,sounds/greatgatsby_english.wav,,,,,,,,,0,0,0,0,0,227,227,108,514.609292655,8.98027792573e-06,515.438263638,0.828980925959,,,,,z,1,0.817110053729,2018_Nov_28_1540,59.9865326904,chinese_cond1,001,1063,
images/boxingglove02a.jpg,bracelet,x,sounds/greatgatsby_english.wav,,,,,,,,,0,0,0,0,0,228,228,135,516.549237837,9.30111855268e-06,517.272065332,0.722837758483,,,,,x,1,0.700426688185,2018_Nov_28_1540,59.9865326904,chinese_cond1,001,1063,
images/acousticguitar02.jpg,acoustic guitar,z,sounds/greatgatsby_english.wav,,,,,,,,,0,0,0,0,0,229,229,97,518.3866345,9.30088572204e-06,519.039173269,0.652548711281,,,,,z,1,0.633743515005,2018_Nov_28_1540,59.9865326904,chinese_cond1,001,1063,
images/plant01.jpg,plant,z,sounds/greatgatsby_english.wav,,,,,,,,,0,0,0,0,0,230,230,47,520.152257817,9.621726349e-06,520.789625487,0.637377933366,,,,,z,1,0.617082343204,2018_Nov_28_1540,59.9865326904,chinese_cond1,001,1063,
images/radio03a.jpg,radio,z,sounds/greatgatsby_english.wav,,,,,,,,,0,0,0,0,0,231,231,37,521.903912099,8.98027792573e-06,522.590077255,0.686175098643,,,,,z,1,0.6670867051,2018_Nov_28_1540,59.9865326904,chinese_cond1,001,1063,
images/tie01.jpg,bench,x,sounds/greatgatsby_english.wav,,,,,,,,,0,0,0,0,0,232,232,130,523.689137284,9.30088572204e-06,524.823970932,1.13484294899,,,,,x,1,1.11719010584,2018_Nov_28_1540,59.9865326904,chinese_cond1,001,1063,
images/snowman.jpg,globe,x,sounds/greatgatsby_english.wav,,,,,,,,,0,0,0,0,0,233,233,180,525.935136281,9.30111855268e-06,526.841171237,0.906044898555,,,,,x,1,0.883824337041,2018_Nov_28_1540,59.9865326904,chinese_cond1,001,1063,
images/gps.jpg,gps,z,sounds/greatgatsby_english.wav,,,,,,,,,0,0,0,0,0,234,234,21,527.959429988,8.98027792573e-06,528.708295916,0.748876511818,,,,,z,1,0.733771482017,2018_Nov_28_1540,59.9865326904,chinese_cond1,001,1063,
images/rhinoceros01.jpg,envelope,x,sounds/greatgatsby_english.wav,,,,,,,,,0,0,0,0,0,235,235,173,529.822097597,9.62149351835e-06,530.625434578,0.80334724416,,,,,x,1,0.783763977233,2018_Nov_28_1540,59.9865326904,chinese_cond1,001,1063,
images/panda.jpg,panda,z,sounds/greatgatsby_english.wav,,,,,,,,,0,0,0,0,0,236,236,83,531.734874123,9.30088572204e-06,532.459229857,0.724366317969,,,,,z,1,0.70041642501,2018_Nov_28_1540,59.9865326904,chinese_cond1,001,1063,
images/banana04a.jpg,banana,z,sounds/greatgatsby_english.wav,,,,,,,,,0,0,0,0,0,237,237,118,533.566590164,8.98027792573e-06,534.493091975,0.926511753816,,,,,z,1,0.917150528869,2018_Nov_28_1540,59.9865326904,chinese_cond1,001,1063,
images/camera01a.jpg,bull,x,sounds/greatgatsby_english.wav,,,,,,,,,0,0,0,0,0,238,238,138,535.603834933,8.98004509509e-06,536.226853836,0.62302916497,,,,,x,1,0.600396796828,2018_Nov_28_1540,59.9865326904,chinese_cond1,001,1063,
images/dresser02.jpg,dresser,z,sounds/greatgatsby_english.wav,,,,,,,,,0,0,0,0,0,239,239,87,537.350592758,9.30088572204e-06,538.560804024,1.21022152901,,,,,z,1,1.2005065477,2018_Nov_28_1540,59.9865326904,chinese_cond1,001,1063,
images/computerkeyboard01a.jpg,computer keyboard,z,sounds/greatgatsby_english.wav,,,,,,,,,0,0,0,0,1,0,240,61,539.676830551,9.621726349e-06,540.44459693,0.767776962603,,,,,z,1,0.750441954704,2018_Nov_28_1540,59.9865326904,chinese_cond1,001,1063,
images/atm.jpg,atm,z,sounds/greatgatsby_english.wav,,,,,,,,,0,0,0,0,1,1,241,96,541.582527146,9.621726349e-06,542.645161528,1.06264432473,,,,,x,0,1.0505114228,2018_Nov_28_1540,59.9865326904,chinese_cond1,001,1063,
images/elbow.jpg,elbow,z,sounds/greatgatsby_english.wav,,,,,,,,,0,0,0,0,1,2,242,105,543.756166516,9.94233414531e-06,544.428936089,0.672780156834,,,,,z,1,0.650417194702,2018_Nov_28_1540,59.9865326904,chinese_cond1,001,1063,
images/hammer02a.jpg,flower,x,sounds/greatgatsby_english.wav,,,,,,,,,0,0,0,0,1,3,243,176,545.52472187,9.30088572204e-06,546.162706929,0.63799500186,,,,,x,1,0.617070797365,2018_Nov_28_1540,59.9865326904,chinese_cond1,001,1063,
images/screw03c.jpg,screw,z,sounds/greatgatsby_english.wav,,,,,,,,,0,0,0,0,1,4,244,84,547.255575747,9.30088572204e-06,548.330165672,1.07459986769,,,,,z,1,1.05075228494,2018_Nov_28_1540,59.9865326904,chinese_cond1,001,1063,
images/arrow02.jpg,hammer,x,sounds/greatgatsby_english.wav,,,,,,,,,0,0,0,0,1,5,245,184,549.427309068,8.98004509509e-06,550.147056673,0.719758188585,,,,,x,1,0.700432461221,2018_Nov_28_1540,59.9865326904,chinese_cond1,001,1063,
images/envelope02a.jpg,grand piano,x,sounds/greatgatsby_english.wav,,,,,,,,,0,0,0,0,1,6,246,182,551.269198401,9.621726349e-06,552.030866577,0.761678439332,,,,,x,1,0.750440671574,2018_Nov_28_1540,59.9865326904,chinese_cond1,001,1063,
images/table02.jpg,table,z,sounds/greatgatsby_english.wav,,,,,,,,,0,0,0,0,1,7,247,49,553.145985783,9.30111855268e-06,553.797971628,0.651995787164,,,,,z,1,0.633733572671,2018_Nov_28_1540,59.9865326904,chinese_cond1,001,1063,
images/toucan.jpg,toucan,z,sounds/greatgatsby_english.wav,,,,,,,,,0,0,0,0,1,8,248,81,554.898085227,9.621726349e-06,555.5150829,0.617007936118,,,,,z,1,0.600408022059,2018_Nov_28_1540,59.9865326904,chinese_cond1,001,1063,
images/dreamcatcher.jpg,dream catcher,z,sounds/greatgatsby_english.wav,,,,,,,,,0,0,0,0,1,9,249,48,556.612918093,8.65943729877e-06,557.532244077,0.919335605809,,,,,z,1,0.900478131836,2018_Nov_28_1540,59.9865326904,chinese_cond1,001,1063,
images/computermouse02a.jpg,world map,x,sounds/greatgatsby_english.wav,,,,,,,,,0,0,0,0,1,10,250,239,558.632943956,8.98027792573e-06,561.466598118,2.83366410434,,,,,x,1,2.81764597981,2018_Nov_28_1540,59.9865326904,chinese_cond1,001,1063,
,,,sounds/greatgatsby_english.wav,,,,,,,,,0,0,0,0,,,,,,,,,,,,,,,,2018_Nov_28_1540,59.9865326904,chinese_cond1,001,1063,
images/umbrella01.jpg,umbrella,z,sounds/animalfarm_chinese.wav,,,,,,,,,0,1,1,1,0,0,0,53,582.604913841,1.02631747723e-05,583.638868968,1.03396539041,,,,572.469525024,z,1,1.01718491013,2018_Nov_28_1540,59.9865326904,chinese_cond1,001,1063,
images/ruler02b.jpg,watermelon,x,sounds/animalfarm_chinese.wav,,,,,,,,,0,1,1,1,0,1,1,238,584.740513694,8.98027792573e-06,585.389290717,0.648786645848,,,,,x,1,0.633735176409,2018_Nov_28_1540,59.9865326904,chinese_cond1,001,1063,
images/desktopcomputer.jpg,desktop computer,z,sounds/animalfarm_chinese.wav,,,,,,,,,0,1,1,1,0,2,2,16,586.525074023,8.98027792573e-06,587.073074194,0.548010435188,,,,,z,1,0.533728376962,2018_Nov_28_1540,59.9865326904,chinese_cond1,001,1063,
images/nailpolish02b.jpg,nail polish,z,sounds/animalfarm_chinese.wav,,,,,,,,,0,1,1,1,0,3,3,94,588.180804934,9.30088572204e-06,588.873513134,0.692718783626,,,,,z,1,0.683758781292,2018_Nov_28_1540,59.9865326904,chinese_cond1,001,1063,
images/aquarium.jpg,computer mouse,x,sounds/animalfarm_chinese.wav,,,,,,,,,0,1,1,1,0,4,4,159,590.009020298,9.62149351835e-06,590.673978694,0.664969300386,,,,,x,1,0.650421684841,2018_Nov_28_1540,59.9865326904,chinese_cond1,001,1063,
images/electrictoothbrush01a.jpg,banjo,x,sounds/animalfarm_chinese.wav,,,,,,,,,0,1,1,1,0,5,5,127,591.767801658,9.94256697595e-06,592.307721247,0.539930493338,,,,,x,1,0.517062394414,2018_Nov_28_1540,59.9865326904,chinese_cond1,001,1063,
images/paperclip04.jpg,eye drops,x,sounds/animalfarm_chinese.wav,,,,,,,,,0,1,1,1,0,6,6,174,593.412155288,9.94233414531e-06,594.008155953,0.596010927577,,,,,x,1,0.583743322408,2018_Nov_28_1540,59.9865326904,chinese_cond1,001,1063,
images/grandpiano.jpg,tulip,x,sounds/animalfarm_chinese.wav,,,,,,,,,0,1,1,1,0,7,7,236,595.122280601,9.30111855268e-06,595.691905433,0.569635737222,,,,,x,1,0.550386341522,2018_Nov_28_1540,59.9865326904,chinese_cond1,001,1063,
images/nametag01a.jpg,name tag,z,sounds/animalfarm_chinese.wav,,,,,,,,,0,1,1,1,0,8,8,108,596.810962139,9.30088572204e-06,597.359051793,0.548099916195,,,,,z,1,0.533780012978,2018_Nov_28_1540,59.9865326904,chinese_cond1,001,1063,
images/tank.jpg,wallet,x,sounds/animalfarm_chinese.wav,,,,,,,,,0,1,1,1,0,9,9,237,598.461139114,8.98004509509e-06,599.026080126,0.564950634493,,,,,x,1,0.550385379232,2018_Nov_28_1540,59.9865326904,chinese_cond1,001,1063,
images/axe01.jpg,axe,z,sounds/animalfarm_chinese.wav,,,,,,,,,0,1,1,1,0,10,10,104,600.128494263,9.30088572204e-06,600.793202175,0.66471817554,,,,,z,1,0.650419119047,2018_Nov_28_1540,59.9865326904,chinese_cond1,001,1063,
images/thumbtack02a.jpg,thumb tack,z,sounds/animalfarm_chinese.wav,,,,,,,,,0,1,1,1,0,11,11,60,601.902720939,9.30111855268e-06,602.560313319,0.657602323219,,,,,z,1,0.633739666315,2018_Nov_28_1540,59.9865326904,chinese_cond1,001,1063,
images/cockroach02.jpg,belt,x,sounds/animalfarm_chinese.wav,,,,,,,,,0,1,1,1,0,12,12,129,603.658586618,8.98004509509e-06,604.32743601,0.668859333964,,,,,x,1,0.650407252368,2018_Nov_28_1540,59.9865326904,chinese_cond1,001,1063,
images/headphones02b.jpg,headphones,z,sounds/animalfarm_chinese.wav,,,,,,,,,0,1,1,1,0,13,13,101,605.432771279,9.30088572204e-06,606.161217819,0.728456481826,,,,,z,1,0.717093632789,2018_Nov_28_1540,59.9865326904,chinese_cond1,001,1063,
images/remotecontrol01c.jpg,remote control,z,sounds/animalfarm_chinese.wav,,,,,,,,,0,1,1,1,0,14,14,85,607.269749401,9.30088572204e-06,608.028359816,0.75862067868,,,,,z,1,0.750436822884,2018_Nov_28_1540,59.9865326904,chinese_cond1,001,1063,
images/giraffe.jpg,lettuce,x,sounds/animalfarm_chinese.wav,,,,,,,,,0,1,1,1,0,15,15,195,609.128664245,9.30088572204e-06,609.745466599,0.616812616587,,,,,x,1,0.600402890705,2018_Nov_28_1540,59.9865326904,chinese_cond1,001,1063,
images/parrot01.jpg,chameleon,x,sounds/animalfarm_chinese.wav,,,,,,,,,0,1,1,1,0,16,16,150,610.857989883,8.98027792573e-06,611.41255138,0.554571759654,,,,,x,1,0.533719076077,2018_Nov_28_1540,59.9865326904,chinese_cond1,001,1063,
images/hat05.jpg,hat,z,sounds/animalfarm_chinese.wav,,,,,,,,,0,1,1,1,0,17,17,15,612.51577181,8.98004509509e-06,613.096534025,0.580772156594,,,,,z,1,0.567282601958,2018_Nov_28_1540,59.9865326904,chinese_cond1,001,1063,
images/candy.jpg,candy,z,sounds/animalfarm_chinese.wav,,,,,,,,,0,1,1,1,0,18,18,31,614.197948792,9.30088572204e-06,614.780067659,0.582128809532,,,,,z,1,0.567060983274,2018_Nov_28_1540,59.9865326904,chinese_cond1,001,1063,
images/parkbench03.jpg,park bench,z,sounds/animalfarm_chinese.wav,,,,,,,,,0,1,1,1,0,19,19,71,615.884695096,9.30088572204e-06,616.863938309,0.979252833873,,,,,z,1,0.967170606134,2018_Nov_28_1540,59.9865326904,chinese_cond1,001,1063,
images/leaf01a.jpg,leaf,z,sounds/animalfarm_chinese.wav,,,,,,,,,0,1,1,1,0,20,20,68,617.966633718,8.65943729877e-06,619.547946291,1.58132219454,,,,,z,1,1.56731435354,2018_Nov_28_1540,59.9865326904,chinese_cond1,001,1063,
images/lipstick04.jpg,lipstick,z,sounds/animalfarm_chinese.wav,,,,,,,,,0,1,1,1,0,21,21,56,620.647111516,8.98004509509e-06,622.898787929,2.25168635463,,,,,z,1,2.23414159473,2018_Nov_28_1540,59.9865326904,chinese_cond1,001,1063,
images/candycane01a.jpg,lip,x,sounds/animalfarm_chinese.wav,,,,,,,,,0,1,1,1,0,22,22,200,623.993043225,9.621726349e-06,624.765963602,0.772930318723,,,,,x,1,0.750465046382,2018_Nov_28_1540,59.9865326904,chinese_cond1,001,1063,
images/cauliflower01.jpg,glue stick,x,sounds/animalfarm_chinese.wav,,,,,,,,,0,1,1,1,0,23,23,181,625.881306351,9.30111855268e-06,626.59972713,0.718430721667,,,,,x,1,0.700425725896,2018_Nov_28_1540,59.9865326904,chinese_cond1,001,1063,
images/cake.jpg,cake,z,sounds/animalfarm_chinese.wav,,,,,,,,,0,1,1,1,0,24,24,23,627.71367923,9.62149351835e-06,628.366846613,0.653177646454,,,,,z,1,0.633748005144,2018_Nov_28_1540,59.9865326904,chinese_cond1,001,1063,
images/hand01a.jpg,cupcake,x,sounds/animalfarm_chinese.wav,,,,,,,,,0,1,1,1,0,25,25,163,629.476771089,9.94233414531e-06,630.317344181,0.840583354235,,,,,x,1,0.817132824799,2018_Nov_28_1540,59.9865326904,chinese_cond1,001,1063,
images/rhinoceros01.jpg,envelope,x,sounds/animalfarm_chinese.wav,,,,,,,,,0,1,1,1,0,26,26,173,631.428875473,9.30088572204e-06,632.051105399,0.622239548247,,,,,x,1,0.600403211312,2018_Nov_28_1540,59.9865326904,chinese_cond1,001,1063,
images/envelope02a.jpg,grand piano,x,sounds/animalfarm_chinese.wav,,,,,,,,,0,1,1,1,0,27,27,182,633.173740077,8.98004509509e-06,633.901574679,0.727844224079,,,,,x,1,0.71707310644,2018_Nov_28_1540,59.9865326904,chinese_cond1,001,1063,
images/squirrel.jpg,binder,x,sounds/animalfarm_chinese.wav,,,,,,,,,0,1,1,1,0,28,28,132,635.004692158,9.94233414531e-06,635.702027089,0.697345514782,,,,,x,1,0.683750442462,2018_Nov_28_1540,59.9865326904,chinese_cond1,001,1063,
images/doorhandle.jpg,doll,x,sounds/animalfarm_chinese.wav,,,,,,,,,0,1,1,1,0,29,29,168,636.802902082,8.98027792573e-06,637.702526453,0.899633671623,,,,,x,1,0.883793868357,2018_Nov_28_1540,59.9865326904,chinese_cond1,001,1063,
images/fryingpan01.jpg,frying pan,z,sounds/animalfarm_chinese.wav,,,,,,,,,0,1,1,1,0,30,30,45,638.802494766,8.98027792573e-06,639.519667938,0.71718343487,,,,,z,1,0.700427329633,2018_Nov_28_1540,59.9865326904,chinese_cond1,001,1063,
images/saltshaker03c.jpg,salt shaker,z,sounds/animalfarm_chinese.wav,,,,,,,,,0,1,1,1,0,31,31,63,640.630895186,9.94233414531e-06,641.236765419,0.605880817166,,,,,z,1,0.583734021522,2018_Nov_28_1540,59.9865326904,chinese_cond1,001,1063,
images/computermouse02a.jpg,world map,x,sounds/animalfarm_chinese.wav,,,,,,,,,0,1,1,1,0,32,32,239,642.338005393,8.98027792573e-06,643.00409305,0.666096958099,,,,,x,1,0.650628871284,2018_Nov_28_1540,59.9865326904,chinese_cond1,001,1063,
images/mushroom01.jpg,shower head,x,sounds/animalfarm_chinese.wav,,,,,,,,,0,1,1,1,0,33,33,222,644.120590077,8.98027792573e-06,644.737651894,0.617072080262,,,,,x,1,0.60040000407,2018_Nov_28_1540,59.9865326904,chinese_cond1,001,1063,
images/key03b.jpg,cigar,x,sounds/animalfarm_chinese.wav,,,,,,,,,0,1,1,1,0,34,34,153,645.837717385,9.30088572204e-06,646.671473857,0.833766735392,,,,,x,1,0.817119996063,2018_Nov_28_1540,59.9865326904,chinese_cond1,001,1063,
images/sportshorts02.jpg,tape,x,sounds/animalfarm_chinese.wav,,,,,,,,,0,1,1,1,0,35,35,230,647.779008957,9.94233414531e-06,648.371919468,0.592920774128,,,,,x,1,0.583745567594,2018_Nov_28_1540,59.9865326904,chinese_cond1,001,1063,
images/floorlamp.jpg,floor lamp,z,sounds/animalfarm_chinese.wav,,,,,,,,,0,1,1,1,0,36,36,26,649.464071151,9.30088572204e-06,650.18903305,0.724971840624,,,,,z,1,0.717102292459,2018_Nov_28_1540,59.9865326904,chinese_cond1,001,1063,
images/swan.jpg,swan,z,sounds/animalfarm_chinese.wav,,,,,,,,,0,1,1,1,0,37,37,54,651.280282864,8.98027792573e-06,652.022820953,0.742548352107,,,,,z,1,0.733756408095,2018_Nov_28_1540,59.9865326904,chinese_cond1,001,1063,
images/snowman.jpg,globe,x,sounds/animalfarm_chinese.wav,,,,,,,,,0,1,1,1,0,38,38,180,653.133756665,9.621726349e-06,653.823284267,0.689537544968,,,,,z,0,0.667083497858,2018_Nov_28_1540,59.9865326904,chinese_cond1,001,1063,
images/showerhead01.jpg,skateboard,x,sounds/animalfarm_chinese.wav,,,,,,,,,0,1,1,1,0,39,39,223,654.92871864,8.98027792573e-06,655.740446342,0.811737644486,,,,,x,1,0.80046427669,2018_Nov_28_1540,59.9865326904,chinese_cond1,001,1063,
images/safe.jpg,safe,z,sounds/animalfarm_chinese.wav,,,,,,,,,0,1,1,1,0,40,40,78,656.850402249,8.98027792573e-06,657.590899265,0.740507279057,,,,,z,1,0.71708176611,2018_Nov_28_1540,59.9865326904,chinese_cond1,001,1063,
images/pictureframe04.jpg,picture frame,z,sounds/animalfarm_chinese.wav,,,,,,,,,0,1,1,1,0,41,41,41,658.713222842,8.65943729877e-06,659.424708015,0.711494473275,,,,,z,1,0.70043214038,2018_Nov_28_1540,59.9865326904,chinese_cond1,001,1063,
images/acousticguitar02.jpg,acoustic guitar,z,sounds/animalfarm_chinese.wav,,,,,,,,,0,1,1,1,0,42,42,97,660.537537909,9.30088572204e-06,661.225152728,0.687624760671,,,,,z,1,0.667077725055,2018_Nov_28_1540,59.9865326904,chinese_cond1,001,1063,
images/mattress.jpg,cat,x,sounds/animalfarm_chinese.wav,,,,,,,,,0,1,1,1,0,43,43,147,662.329023261,9.94256697595e-06,662.875588204,0.546575526241,,,,,x,1,0.533735432662,2018_Nov_28_1540,59.9865326904,chinese_cond1,001,1063,
images/bracelet02a.jpg,chess knight,x,sounds/animalfarm_chinese.wav,,,,,,,,,0,1,1,1,0,44,44,152,663.984018438,8.98027792573e-06,664.609354554,0.625346379587,,,,,x,1,0.617071759421,2018_Nov_28_1540,59.9865326904,chinese_cond1,001,1063,
images/stapler03a.jpg,candy cane,x,sounds/animalfarm_chinese.wav,,,,,,,,,0,1,1,1,0,45,45,145,665.719527269,9.621726349e-06,666.293113656,0.573596329428,,,,,x,1,0.55039403867,2018_Nov_28_1540,59.9865326904,chinese_cond1,001,1063,
images/icecube02 (2).jpg,aloe,x,sounds/animalfarm_chinese.wav,,,,,,,,,0,1,1,1,0,46,46,122,667.403163855,9.30088572204e-06,668.27693068,0.873776767403,,,,,x,1,0.85045548901,2018_Nov_28_1540,59.9865326904,chinese_cond1,001,1063,
images/treadmill.jpg,lily,x,sounds/animalfarm_chinese.wav,,,,,,,,,0,1,1,1,0,47,47,199,669.382470571,8.65943729877e-06,670.294121364,0.911660414655,,,,,x,1,0.900482301367,2018_Nov_28_1540,59.9865326904,chinese_cond1,001,1063,
images/orange.jpg,bat,x,sounds/animalfarm_chinese.wav,,,,,,,,,0,1,1,1,0,48,48,128,671.418597946,9.30088572204e-06,672.144591285,0.726003922988,,,,,x,1,0.71710453718,2018_Nov_28_1540,59.9865326904,chinese_cond1,001,1063,
images/watermelon01.jpg,orange,x,sounds/animalfarm_chinese.wav,,,,,,,,,0,1,1,1,0,49,49,207,673.273735009,8.98027792573e-06,673.961712564,0.687987497076,,,,,x,1,0.667084139306,2018_Nov_28_1540,59.9865326904,chinese_cond1,001,1063,
images/egg01b (1).jpg,egg,z,sounds/animalfarm_chinese.wav,,,,,,,,,0,1,1,1,0,50,50,19,675.073936936,9.94233414531e-06,675.812192107,0.73826671741,,,,,z,1,0.717111593345,2018_Nov_28_1540,59.9865326904,chinese_cond1,001,1063,
images/flashlight05.jpg,flash light,z,sounds/animalfarm_chinese.wav,,,,,,,,,0,1,1,1,0,51,51,8,676.914514196,9.30111855268e-06,677.812689546,0.898185292492,,,,,z,1,0.883818564005,2018_Nov_28_1540,59.9865326904,chinese_cond1,001,1063,
images/corkscrew02a.jpg,masquerade mask,x,sounds/animalfarm_chinese.wav,,,,,,,,,0,1,1,1,0,52,52,201,678.914779433,9.94256697595e-06,679.479773365,0.565003874479,,,,,x,1,0.550387303578,2018_Nov_28_1540,59.9865326904,chinese_cond1,001,1063,
images/pouch01b.jpg,pouch,z,sounds/animalfarm_chinese.wav,,,,,,,,,0,1,1,1,0,53,53,25,680.591584647,8.98027792573e-06,681.396931271,0.805355924182,,,,,z,1,0.783787068911,2018_Nov_28_1540,59.9865326904,chinese_cond1,001,1063,
images/computerkeyboard01a.jpg,computer keyboard,z,sounds/animalfarm_chinese.wav,,,,,,,,,0,1,1,1,0,54,54,61,682.512883391,9.621726349e-06,683.247399909,0.734527102439,,,,,z,1,0.717105499469,2018_Nov_28_1540,59.9865326904,chinese_cond1,001,1063,
images/crocodile.jpg,triangle ruler,x,sounds/animalfarm_chinese.wav,,,,,,,,,0,1,1,1,0,55,55,235,684.344607449,9.30111855268e-06,685.014507205,0.669910018332,,,,,x,1,0.650405328022,2018_Nov_28_1540,59.9865326904,chinese_cond1,001,1063,
images/bullet (2).jpg,rubber glove,x,sounds/animalfarm_chinese.wav,,,,,,,,,0,1,1,1,0,56,56,217,686.118709685,9.30088572204e-06,686.748279649,0.629580547335,,,,,x,1,0.617070476757,2018_Nov_28_1540,59.9865326904,chinese_cond1,001,1063,
images/bull.jpg,button,x,sounds/animalfarm_chinese.wav,,,,,,,,,0,1,1,1,0,57,57,141,687.85277559,8.98004509509e-06,688.582077815,0.729311846662,,,,,x,1,0.717092029285,2018_Nov_28_1540,59.9865326904,chinese_cond1,001,1063,
images/bed.jpg,bed,z,sounds/animalfarm_chinese.wav,,,,,,,,,0,1,1,1,0,58,58,103,689.701482183,3.49585898221e-05,690.399207112,0.697740323143,,,,,z,1,0.683651018888,2018_Nov_28_1540,59.9865326904,chinese_cond1,001,1063,
images/screwdriver02b.jpg,cola,x,sounds/animalfarm_chinese.wav,,,,,,,,,0,1,1,1,0,59,59,158,691.49260512,9.30088572204e-06,692.683132733,1.19053787598,,,,,x,1,1.16723006801,2018_Nov_28_1540,59.9865326904,chinese_cond1,001,1063,
images/carrot02.jpg,corkscrew,x,sounds/animalfarm_chinese.wav,,,,,,,,,0,1,1,1,0,60,60,161,693.783860514,9.30111855268e-06,694.350208533,0.56635796139,,,,,x,1,0.550391793484,2018_Nov_28_1540,59.9865326904,chinese_cond1,001,1063,
images/blueberry02.jpg,blueberry,z,sounds/animalfarm_chinese.wav,,,,,,,,,0,1,1,1,0,61,61,46,695.463882888,9.30111855268e-06,696.017299728,0.553427103907,,,,,z,1,0.533717151498,2018_Nov_28_1540,59.9865326904,chinese_cond1,001,1063,
images/fireextinguisher02.jpg,fire extinguisher,z,sounds/animalfarm_chinese.wav,,,,,,,,,0,1,1,1,0,62,62,175,697.127234147,8.98027792573e-06,699.568209167,2.44098496204,,,,,z,1,2.41754373373,2018_Nov_28_1540,59.9865326904,chinese_cond1,001,1063,
images/cherry01.jpg,highlighter,x,sounds/animalfarm_chinese.wav,,,,,,,,,0,1,1,1,0,63,63,187,700.675197116,8.65943729877e-06,701.23529042,0.560103246709,,,,,x,1,0.550396283623,2018_Nov_28_1540,59.9865326904,chinese_cond1,001,1063,
images/screw03c.jpg,screw,z,sounds/animalfarm_chinese.wav,,,,,,,,,0,1,1,1,0,64,64,84,702.328811906,8.98004509509e-06,702.80234563,0.473543987609,,,,,x,0,0.450368637452,2018_Nov_28_1540,59.9865326904,chinese_cond1,001,1063,
images/lip.jpg,boxing glove,x,sounds/animalfarm_chinese.wav,,,,,,,,,0,1,1,1,0,65,65,136,703.906968256,1.02629419416e-05,704.60279323,0.695835236227,,,,,x,1,0.683703937801,2018_Nov_28_1540,59.9865326904,chinese_cond1,001,1063,
images/elbow.jpg,elbow,z,sounds/animalfarm_chinese.wav,,,,,,,,,0,1,1,1,0,66,66,105,705.713937731,9.30088572204e-06,706.503286435,0.789358966984,,,,,z,1,0.76711531356,2018_Nov_28_1540,59.9865326904,chinese_cond1,001,1063,
images/hairpin.jpg,hair pin,z,sounds/animalfarm_chinese.wav,,,,,,,,,0,1,1,1,0,67,67,28,707.5933855,9.30088572204e-06,708.170385328,0.577012015507,,,,,x,0,0.567078622989,2018_Nov_28_1540,59.9865326904,chinese_cond1,001,1063,
images/tulip02.jpg,sport shorts,x,sounds/animalfarm_chinese.wav,,,,,,,,,0,1,1,1,0,68,68,225,709.264239402,8.65943729877e-06,709.920827282,0.656597181223,,,,,x,1,0.633759871824,2018_Nov_28_1540,59.9865326904,chinese_cond1,001,1063,
images/flamingo.jpg,flamingo,z,sounds/animalfarm_chinese.wav,,,,,,,,,0,1,1,1,0,69,69,52,711.018232387,1.02631747723e-05,711.754623203,0.73640139983,,,,,z,1,0.717103254283,2018_Nov_28_1540,59.9865326904,chinese_cond1,001,1063,
images/feather03b.jpg,feather,z,sounds/animalfarm_chinese.wav,,,,,,,,,0,1,1,1,0,70,70,114,712.854235515,9.30088572204e-06,713.455041553,0.600815979997,,,,,z,1,0.583728248719,2018_Nov_28_1540,59.9865326904,chinese_cond1,001,1063,
images/bench02.jpg,electric toothbrush,x,sounds/animalfarm_chinese.wav,,,,,,,,,0,1,1,1,0,71,71,172,714.562955104,9.94233414531e-06,715.222153659,0.659208817873,,,,,x,1,0.650417194702,2018_Nov_28_1540,59.9865326904,chinese_cond1,001,1063,
images/sock03.jpg,sock,z,sounds/animalfarm_chinese.wav,,,,,,,,,0,1,1,1,0,72,72,90,716.327914526,9.30088572204e-06,717.155998073,0.828093809774,,,,,z,1,0.817146295216,2018_Nov_28_1540,59.9865326904,chinese_cond1,001,1063,
images/licenseplate.jpg,license plate,z,sounds/animalfarm_chinese.wav,,,,,,,,,0,1,1,1,0,73,73,40,718.272661554,9.30088572204e-06,719.54005782,1.26740652882,,,,,z,1,1.25071200216,2018_Nov_28_1540,59.9865326904,chinese_cond1,001,1063,
images/table02.jpg,table,z,sounds/animalfarm_chinese.wav,,,,,,,,,0,1,1,1,0,74,74,49,720.653465013,9.30088572204e-06,721.590438709,0.936983958818,,,,,z,1,0.917155981064,2018_Nov_28_1540,59.9865326904,chinese_cond1,001,1063,
images/cat.jpg,black olive,x,sounds/animalfarm_chinese.wav,,,,,,,,,0,1,1,1,0,75,75,133,722.720190522,9.30088572204e-06,723.424242006,0.704061106546,,,,,x,1,0.683764233487,2018_Nov_28_1540,59.9865326904,chinese_cond1,001,1063,
images/flipflop01b.jpg,flip flop,z,sounds/animalfarm_chinese.wav,,,,,,,,,0,1,1,1,0,76,76,27,724.540603047,9.30088572204e-06,725.308037478,0.76744437404,,,,,z,1,0.750438426621,2018_Nov_28_1540,59.9865326904,chinese_cond1,001,1063,
images/cheetah.jpg,cheetah,z,sounds/animalfarm_chinese.wav,,,,,,,,,0,1,1,1,0,77,77,82,726.409812737,9.30111855268e-06,727.025132715,0.615329599474,,,,,z,1,0.60039615538,2018_Nov_28_1540,59.9865326904,chinese_cond1,001,1063,
images/banjo.jpg,knife,x,sounds/animalfarm_chinese.wav,,,,,,,,,0,1,1,1,0,78,78,191,728.12088931,9.62149351835e-06,728.808926839,0.688047471922,,,,,x,1,0.667090233183,2018_Nov_28_1540,59.9865326904,chinese_cond1,001,1063,
images/redfox.jpg,red fox,z,sounds/animalfarm_chinese.wav,,,,,,,,,0,1,1,1,0,79,79,1,729.920862882,9.94256697595e-06,730.609412284,0.688559985254,,,,,z,1,0.66711813584,2018_Nov_28_1540,59.9865326904,chinese_cond1,001,1063,
images/straw.jpg,straw,z,sounds/animalfarm_chinese.wav,,,,,,,,,0,1,1,1,0,80,80,109,731.700109815,9.621726349e-06,732.393167601,0.693068049382,,,,,z,1,0.683749801246,2018_Nov_28_1540,59.9865326904,chinese_cond1,001,1063,
images/toucan.jpg,toucan,z,sounds/animalfarm_chinese.wav,,,,,,,,,0,1,1,1,0,81,81,81,733.492792421,9.30088572204e-06,734.126933631,0.634151152335,,,,,z,1,0.617070797365,2018_Nov_28_1540,59.9865326904,chinese_cond1,001,1063,
images/dragonfly02.jpg,dragon fly,z,sounds/animalfarm_chinese.wav,,,,,,,,,0,1,1,1,0,82,82,29,735.223704348,9.30088572204e-06,735.860719866,0.637025460135,,,,,z,1,0.617082343437,2018_Nov_28_1540,59.9865326904,chinese_cond1,001,1063,
images/lock02a.jpg,lock,z,sounds/animalfarm_chinese.wav,,,,,,,,,0,1,1,1,0,83,83,65,736.970710732,9.30111855268e-06,737.544481855,0.573781065177,,,,,z,1,0.550402056891,2018_Nov_28_1540,59.9865326904,chinese_cond1,001,1063,
images/grasshopper.jpg,cauliflower,x,sounds/animalfarm_chinese.wav,,,,,,,,,0,1,1,1,0,84,84,148,738.637001085,9.621726349e-06,739.36160153,0.724610708188,,,,,x,1,0.700427971082,2018_Nov_28_1540,59.9865326904,chinese_cond1,001,1063,
images/broom02.jpg,broom,z,sounds/animalfarm_chinese.wav,,,,,,,,,0,1,1,1,0,85,85,116,740.454588373,8.98027792573e-06,741.128714919,0.674136809539,,,,,z,1,0.650417836383,2018_Nov_28_1540,59.9865326904,chinese_cond1,001,1063,
images/marker01a.jpg,marker,z,sounds/animalfarm_chinese.wav,,,,,,,,,0,1,1,1,0,86,86,95,742.225863768,9.62149351835e-06,742.912518024,0.686664519832,,,,,z,1,0.667103062151,2018_Nov_28_1540,59.9865326904,chinese_cond1,001,1063,
images/lychee02a.jpg,lychee,z,sounds/animalfarm_chinese.wav,,,,,,,,,0,1,1,1,0,87,87,62,744.035548793,9.30088572204e-06,744.646278281,0.61073975102,,,,,z,1,0.600414115936,2018_Nov_28_1540,59.9865326904,chinese_cond1,001,1063,
images/aloe02.jpg,broad sword,x,sounds/animalfarm_chinese.wav,,,,,,,,,0,1,1,1,0,88,88,137,745.76614032,9.30088572204e-06,746.413377238,0.647246860666,,,,,x,1,0.63373774197,2018_Nov_28_1540,59.9865326904,chinese_cond1,001,1063,
images/backpack01b.jpg,swallow,x,sounds/animalfarm_chinese.wav,,,,,,,,,0,1,1,1,0,89,89,228,747.543855165,9.621726349e-06,748.19717457,0.653330310015,,,,,x,1,0.633749287808,2018_Nov_28_1540,59.9865326904,chinese_cond1,001,1063,
images/glasses01b.jpg,calculator,x,sounds/animalfarm_chinese.wav,,,,,,,,,0,1,1,1,0,90,90,142,749.289468333,9.30111855268e-06,749.930937713,0.641479643295,,,,,z,0,0.617074004607,2018_Nov_28_1540,59.9865326904,chinese_cond1,001,1063,
images/globe.jpg,cloud,x,sounds/animalfarm_chinese.wav,,,,,,,,,0,1,1,1,0,91,91,154,751.058404063,9.30088572204e-06,751.631366326,0.572972525842,,,,,x,1,0.550393717829,2018_Nov_28_1540,59.9865326904,chinese_cond1,001,1063,
images/ladder.jpg,ladder,z,sounds/animalfarm_chinese.wav,,,,,,,,,0,1,1,1,0,92,92,113,752.722885867,9.30088572204e-06,753.415150508,0.692274583969,,,,,z,1,0.683752366807,2018_Nov_28_1540,59.9865326904,chinese_cond1,001,1063,
images/pingpongpaddle01c (1).jpg,ping pong paddle,z,sounds/animalfarm_chinese.wav,,,,,,,,,0,1,1,1,0,93,93,10,754.525311998,9.621726349e-06,757.516029991,2.99072793568,,,,,None,0,,2018_Nov_28_1540,59.9865326904,chinese_cond1,001,1063,
images/plate01b.jpg,plate,z,sounds/animalfarm_chinese.wav,,,,,,,,,0,1,1,1,0,94,94,3,758.614546397,9.621726349e-06,759.616722494,1.00218603923,,,,,z,1,0.983828891302,2018_Nov_28_1540,59.9865326904,chinese_cond1,001,1063,
images/scooter.jpg,pen,x,sounds/animalfarm_chinese.wav,,,,,,,,,0,1,1,1,0,95,95,212,760.708700666,8.98004509509e-06,761.450519377,0.741828652332,,,,,x,1,0.733776934212,2018_Nov_28_1540,59.9865326904,chinese_cond1,001,1063,
images/ashtray02b.jpg,ashtray,z,sounds/animalfarm_chinese.wav,,,,,,,,,0,1,1,1,0,96,96,43,762.563124445,9.62149351835e-06,765.551401426,2.98828756413,,,,,None,0,,2018_Nov_28_1540,59.9865326904,chinese_cond1,001,1063,
images/radish01.jpg,raisin,x,sounds/animalfarm_chinese.wav,,,,,,,,,0,1,1,1,0,97,97,214,766.661716541,9.621726349e-06,769.652436138,2.99072953919,,,,,None,0,,2018_Nov_28_1540,59.9865326904,chinese_cond1,001,1063,
images/graduationcap.jpg,graduation cap,z,sounds/animalfarm_chinese.wav,,,,,,,,,0,1,1,1,0,98,98,35,770.753920181,9.62149351835e-06,773.220156204,2.46624628594,,,,,z,1,2.45085741743,2018_Nov_28_1540,59.9865326904,chinese_cond1,001,1063,
images/drink.jpg,drink,z,sounds/animalfarm_chinese.wav,,,,,,,,,0,1,1,1,0,99,99,117,774.319452605,9.30088572204e-06,774.920594438,0.60115241725,,,,,z,1,0.583710609004,2018_Nov_28_1540,59.9865326904,chinese_cond1,001,1063,
images/banana04a.jpg,banana,z,sounds/animalfarm_chinese.wav,,,,,,,,,0,1,1,1,0,100,100,118,776.026165439,9.621726349e-06,776.604346805,0.578191950684,,,,,z,1,0.567050078884,2018_Nov_28_1540,59.9865326904,chinese_cond1,001,1063,
images/cocktailshrimp01.jpg,cocktail shrimp,z,sounds/animalfarm_chinese.wav,,,,,,,,,0,1,1,1,0,101,101,30,777.718728351,9.30111855268e-06,778.454829556,0.736111467471,,,,,z,1,0.71710100933,2018_Nov_28_1540,59.9865326904,chinese_cond1,001,1063,
images/broadsword.jpg,teapot,x,sounds/animalfarm_chinese.wav,,,,,,,,,0,1,1,1,0,102,102,231,779.547232685,9.30088572204e-06,782.072401962,2.52517954004,,,,,x,1,2.50087204226,2018_Nov_28_1540,59.9865326904,chinese_cond1,001,1063,
images/atm.jpg,atm,z,sounds/animalfarm_chinese.wav,,,,,,,,,0,1,1,1,0,103,103,96,783.209496056,8.65967012942e-06,783.922866752,0.713380316971,,,,,z,1,0.700423801783,2018_Nov_28_1540,59.9865326904,chinese_cond1,001,1063,
images/dreamcatcher.jpg,dream catcher,z,sounds/animalfarm_chinese.wav,,,,,,,,,0,1,1,1,0,104,104,48,785.020741393,9.621726349e-06,788.023745914,3.00301574613,,,,,None,0,,2018_Nov_28_1540,59.9865326904,chinese_cond1,001,1063,
images/diaper01a.jpg,camera,x,sounds/animalfarm_chinese.wav,,,,,,,,,0,1,1,1,0,105,105,143,789.14366921,8.98004509509e-06,791.391434742,2.24777515349,,,,,x,1,2.23414736777,2018_Nov_28_1540,59.9865326904,chinese_cond1,001,1063,
images/croissant02b.jpg,croissant,z,sounds/animalfarm_chinese.wav,,,,,,,,,0,1,1,1,0,106,106,39,792.503708184,9.30111855268e-06,793.275245929,0.771547687473,,,,,z,1,0.750448689563,2018_Nov_28_1540,59.9865326904,chinese_cond1,001,1063,
images/bottleofredwine02.jpg,pipe,x,sounds/animalfarm_chinese.wav,,,,,,,,,0,1,1,1,0,107,107,213,794.37536883,8.98004509509e-06,795.059026263,0.683667375473,,,,,x,1,0.667087346548,2018_Nov_28_1540,59.9865326904,chinese_cond1,001,1063,
images/tent.jpg,tent,z,sounds/animalfarm_chinese.wav,,,,,,,,,0,1,1,1,0,108,108,11,796.186960546,8.98004509509e-06,796.876153315,0.689202711452,,,,,z,1,0.667087987997,2018_Nov_28_1540,59.9865326904,chinese_cond1,001,1063,
images/boxingglove02a.jpg,bracelet,x,sounds/animalfarm_chinese.wav,,,,,,,,,0,1,1,1,0,109,109,135,797.988819962,9.94233414531e-06,798.676598349,0.687789290911,,,,,x,1,0.667079328559,2018_Nov_28_1540,59.9865326904,chinese_cond1,001,1063,
images/highlighter03b.jpg,coin,x,sounds/animalfarm_chinese.wav,,,,,,,,,0,1,1,1,0,110,110,156,799.779605499,8.98004509509e-06,800.627100406,0.847504849313,,,,,x,1,0.83379752445,2018_Nov_28_1540,59.9865326904,chinese_cond1,001,1063,
images/camera01a.jpg,bull,x,sounds/animalfarm_chinese.wav,,,,,,,,,0,1,1,1,0,111,111,138,801.738949213,9.94233414531e-06,802.644285958,0.905347008025,,,,,x,1,0.883812149521,2018_Nov_28_1540,59.9865326904,chinese_cond1,001,1063,
images/bowl02b (1).jpg,bowl,z,sounds/animalfarm_chinese.wav,,,,,,,,,0,1,1,1,0,112,112,24,803.763358059,8.98027792573e-06,805.561711666,1.79836354963,,,,,z,1,1.78405647539,2018_Nov_28_1540,59.9865326904,chinese_cond1,001,1063,
images/gorilla.jpg,gorilla,z,sounds/animalfarm_chinese.wav,,,,,,,,,0,1,1,1,0,113,113,80,806.673670801,9.30111855268e-06,807.395517529,0.721857312368,,,,,z,1,0.700446893461,2018_Nov_28_1540,59.9865326904,chinese_cond1,001,1063,
images/apricot.jpg,apricot,z,sounds/animalfarm_chinese.wav,,,,,,,,,0,1,1,1,0,114,114,32,808.513092501,8.65943729877e-06,811.513027074,2.99994515674,,,,,None,0,,2018_Nov_28_1540,59.9865326904,chinese_cond1,001,1063,
images/hairband.jpg,hairband,z,sounds/animalfarm_chinese.wav,,,,,,,,,0,1,1,1,0,115,115,66,812.623932638,8.98027792573e-06,813.580373179,0.956450483296,,,,,z,1,0.933816832025,2018_Nov_28_1540,59.9865326904,chinese_cond1,001,1063,
images/bicycle.jpg,hand bag,x,sounds/animalfarm_chinese.wav,,,,,,,,,0,1,1,1,0,116,116,186,814.69149491,9.30088572204e-06,815.447522232,0.756037585903,,,,,x,1,0.733772764914,2018_Nov_28_1540,59.9865326904,chinese_cond1,001,1063,
images/triangleruler02.jpg,bottle of red wine,x,sounds/animalfarm_chinese.wav,,,,,,,,,0,1,1,1,0,117,117,134,816.558992587,8.98027792573e-06,817.214637546,0.655654259492,,,,,x,1,0.633754419629,2018_Nov_28_1540,59.9865326904,chinese_cond1,001,1063,
images/lemon02.jpg,lemon,z,sounds/animalfarm_chinese.wav,,,,,,,,,0,1,1,1,0,118,118,14,818.327583862,9.62149351835e-06,818.998424615,0.67085037427,,,,,z,1,0.650423609419,2018_Nov_28_1540,59.9865326904,chinese_cond1,001,1063,
images/swallow.jpg,mattress,x,sounds/animalfarm_chinese.wav,,,,,,,,,0,1,1,1,0,119,119,202,820.100665562,9.30088572204e-06,820.732183589,0.631527969614,,,,,x,1,0.617062458536,2018_Nov_28_1540,59.9865326904,chinese_cond1,001,1063,
images/razor04a.jpg,razor,z,sounds/animalfarm_chinese.wav,,,,,,,,,0,1,1,1,0,120,120,36,821.832766084,9.621726349e-06,822.449297106,0.616541285766,,,,,z,1,0.600404494209,2018_Nov_28_1540,59.9865326904,chinese_cond1,001,1063,
images/seagull.jpg,seagull,z,sounds/animalfarm_chinese.wav,,,,,,,,,0,1,1,1,0,121,121,50,823.557752677,9.94233414531e-06,824.216387724,0.658645630581,,,,,z,1,0.650383198168,2018_Nov_28_1540,59.9865326904,chinese_cond1,001,1063,
images/50dollarbill.jpg,cherry,x,sounds/animalfarm_chinese.wav,,,,,,,,,0,1,1,1,0,122,122,151,825.335958547,9.30088572204e-06,827.367198765,2.03124983958,,,,,x,1,2.01742609288,2018_Nov_28_1540,59.9865326904,chinese_cond1,001,1063,
images/bat.jpg,hand,x,sounds/animalfarm_chinese.wav,,,,,,,,,0,1,1,1,0,123,123,185,828.46622127,8.98027792573e-06,829.150993532,0.684782204451,,,,,x,1,0.667094081873,2018_Nov_28_1540,59.9865326904,chinese_cond1,001,1063,
images/calculator02b.jpg,dice,x,sounds/animalfarm_chinese.wav,,,,,,,,,0,1,1,1,0,124,124,165,830.255253742,8.98027792573e-06,833.251867883,2.9966244041,,,,,None,0,,2018_Nov_28_1540,59.9865326904,chinese_cond1,001,1063,
images/doll.jpg,carrot,x,sounds/animalfarm_chinese.wav,,,,,,,,,0,1,1,1,0,125,125,146,834.364635237,9.621726349e-06,835.836018202,1.4713929072,,,,,x,1,1.45061976253,2018_Nov_28_1540,59.9865326904,chinese_cond1,001,1063,
images/ladybug03.jpg,giraffe,x,sounds/animalfarm_chinese.wav,,,,,,,,,0,1,1,1,0,126,126,178,836.93955326,1.18666794151e-05,837.519760305,0.580217628973,,,,,x,1,0.56700389483,2018_Nov_28_1540,59.9865326904,chinese_cond1,001,1063,
images/bowlingball.jpg,bowling ball,z,sounds/animalfarm_chinese.wav,,,,,,,,,0,1,1,1,0,127,127,20,838.653336404,8.98004509509e-06,839.370237283,0.716910821386,,,,,z,1,0.700423480943,2018_Nov_28_1540,59.9865326904,chinese_cond1,001,1063,
images/pen03c.jpg,pepper,x,sounds/animalfarm_chinese.wav,,,,,,,,,0,1,1,1,0,128,128,211,840.465180528,8.98027792573e-06,841.170690976,0.705520069459,,,,,x,1,0.683756215498,2018_Nov_28_1540,59.9865326904,chinese_cond1,001,1063,
images/lion.jpg,lion,z,sounds/animalfarm_chinese.wav,,,,,,,,,0,1,1,1,0,129,129,44,842.283741527,8.98027792573e-06,843.021153521,0.737421615748,,,,,z,1,0.717089463491,2018_Nov_28_1540,59.9865326904,chinese_cond1,001,1063,
images/candle08a.jpg,screw driver,x,sounds/animalfarm_chinese.wav,,,,,,,,,0,1,1,1,0,130,130,221,844.136164643,9.30088572204e-06,844.738263831,0.602109130006,,,,,x,1,0.58372728643,2018_Nov_28_1540,59.9865326904,chinese_cond1,001,1063,
images/honeycomb.jpg,honey comb,z,sounds/animalfarm_chinese.wav,,,,,,,,,0,1,1,1,0,131,131,59,845.852048514,9.62149351835e-06,846.605398131,0.753359559691,,,,,z,1,0.733760256553,2018_Nov_28_1540,59.9865326904,chinese_cond1,001,1063,
images/cupcake.jpg,scissors,x,sounds/animalfarm_chinese.wav,,,,,,,,,0,1,1,1,0,132,132,219,847.725112317,9.30111855268e-06,848.40585888,0.680756826419,,,,,x,1,0.667088629678,2018_Nov_28_1540,59.9865326904,chinese_cond1,001,1063,
images/pepper05a.jpg,lighter,x,sounds/animalfarm_chinese.wav,,,,,,,,,0,1,1,1,0,133,133,198,849.528048396,9.30088572204e-06,850.25633265,0.728294196771,,,,,x,1,0.717105499469,2018_Nov_28_1540,59.9865326904,chinese_cond1,001,1063,
images/hanger02a.jpg,hanger,z,sounds/animalfarm_chinese.wav,,,,,,,,,0,1,1,1,0,134,134,88,851.350475694,8.65943729877e-06,852.173470029,0.82300395635,,,,,z,1,0.800452089403,2018_Nov_28_1540,59.9865326904,chinese_cond1,001,1063,
images/skateboard.jpg,key,x,sounds/animalfarm_chinese.wav,,,,,,,,,0,1,1,1,0,135,135,189,853.265672387,1.02631747723e-05,853.923918719,0.658256595256,,,,,x,1,0.633739345474,2018_Nov_28_1540,59.9865326904,chinese_cond1,001,1063,
images/arrow02.jpg,hammer,x,sounds/animalfarm_chinese.wav,,,,,,,,,0,1,1,1,0,136,136,184,855.020723753,9.621726349e-06,855.6743549,0.65364173078,,,,,x,1,0.633740307763,2018_Nov_28_1540,59.9865326904,chinese_cond1,001,1063,
images/eraser.jpg,eraser,z,sounds/animalfarm_chinese.wav,,,,,,,,,0,1,1,1,0,137,137,110,856.782255623,8.98027792573e-06,857.59152371,0.809278029948,,,,,z,1,0.800454013748,2018_Nov_28_1540,59.9865326904,chinese_cond1,001,1063,
images/worldmap.jpg,scooter,x,sounds/animalfarm_chinese.wav,,,,,,,,,0,1,1,1,0,138,138,220,858.723781001,9.621726349e-06,859.475326559,0.751555820927,,,,,x,1,0.733731712447,2018_Nov_28_1540,59.9865326904,chinese_cond1,001,1063,
images/hairdryer03a.jpg,hairdryer,z,sounds/animalfarm_chinese.wav,,,,,,,,,0,1,1,1,0,139,139,119,860.575824062,8.98027792573e-06,861.492500564,0.916686123703,,,,,z,1,0.900465623708,2018_Nov_28_1540,59.9865326904,chinese_cond1,001,1063,
images/coin01b.jpg,arrow,x,sounds/animalfarm_chinese.wav,,,,,,,,,0,1,1,1,0,140,140,124,862.596542364,8.98027792573e-06,863.209599008,0.613066266291,,,,,x,1,0.600399042014,2018_Nov_28_1540,59.9865326904,chinese_cond1,001,1063,
images/lamp04b.jpg,parking meter,x,sounds/animalfarm_chinese.wav,,,,,,,,,0,1,1,1,0,141,141,209,864.329842064,9.30088572204e-06,864.960064054,0.630232574418,,,,,x,1,0.617094209883,2018_Nov_28_1540,59.9865326904,chinese_cond1,001,1063,
images/microphone01.jpg,diaper,x,sounds/animalfarm_chinese.wav,,,,,,,,,0,1,1,1,0,142,142,164,866.060563162,3.59208788723e-05,866.593790571,0.533243445912,,,,,x,1,0.517046358436,2018_Nov_28_1540,59.9865326904,chinese_cond1,001,1063,
images/basketball01.jpg,basket ball,z,sounds/animalfarm_chinese.wav,,,,,,,,,0,1,1,1,0,143,143,33,867.734314143,9.621726349e-06,868.244213218,0.509909338318,,,,,z,1,0.500385186868,2018_Nov_28_1540,59.9865326904,chinese_cond1,001,1063,
images/diploma01.jpg,glasses,x,sounds/animalfarm_chinese.wav,,,,,,,,,0,1,1,1,0,144,144,179,869.376720351,9.30088572204e-06,869.811287351,0.434576942353,,,,,x,1,0.417042124784,2018_Nov_28_1540,59.9865326904,chinese_cond1,001,1063,
images/peach01.jpg,peach,z,sounds/animalfarm_chinese.wav,,,,,,,,,0,1,1,1,0,145,145,106,870.941763995,8.98004509509e-06,871.628399009,0.686644955771,,,,,z,1,0.667081573745,2018_Nov_28_1540,59.9865326904,chinese_cond1,001,1063,
images/barrel01.jpg,barrel,z,sounds/animalfarm_chinese.wav,,,,,,,,,0,1,1,1,0,146,146,9,872.759778805,9.621726349e-06,873.395520416,0.635751553578,,,,,z,1,0.617073042551,2018_Nov_28_1540,59.9865326904,chinese_cond1,001,1063,
images/fork01.jpg,cooking pot,x,sounds/animalfarm_chinese.wav,,,,,,,,,0,1,1,1,0,147,147,160,874.490639096,9.30088572204e-06,875.096102654,0.605474462966,,,,,x,1,0.583887647139,2018_Nov_28_1540,59.9865326904,chinese_cond1,001,1063,
images/cigar.jpg,crocodile,x,sounds/animalfarm_chinese.wav,,,,,,,,,0,1,1,1,0,148,148,162,876.195030866,8.98004509509e-06,879.196833001,3.0018123982,,,,,None,0,,2018_Nov_28_1540,59.9865326904,chinese_cond1,001,1063,
images/printer03a.jpg,printer,z,sounds/animalfarm_chinese.wav,,,,,,,,,0,1,1,1,0,149,149,72,880.30748263,8.98027792573e-06,883.297956554,2.99048450799,,,,,None,0,,2018_Nov_28_1540,59.9865326904,chinese_cond1,001,1063,
images/toothbrush03a.jpg,parrot,x,sounds/animalfarm_chinese.wav,,,,,,,,,0,1,1,1,0,150,150,210,884.391858736,9.30088572204e-06,885.231832399,0.839983925456,,,,,x,1,0.817108771065,2018_Nov_28_1540,59.9865326904,chinese_cond1,001,1063,
images/parkingmeter.jpg,ear,x,sounds/animalfarm_chinese.wav,,,,,,,,,0,1,1,1,0,151,151,171,886.334636853,9.62149351835e-06,886.96561703,0.630990760634,,,,,x,1,0.617076249793,2018_Nov_28_1540,59.9865326904,chinese_cond1,001,1063,
images/charcoalbarbecue.jpg,charcoal barbecue,z,sounds/animalfarm_chinese.wav,,,,,,,,,0,1,1,1,0,152,152,77,888.083539023,9.30088572204e-06,888.616028772,0.532499371329,,,,,x,0,0.517043151194,2018_Nov_28_1540,59.9865326904,chinese_cond1,001,1063,
images/comb02a.jpg,diploma,x,sounds/animalfarm_chinese.wav,,,,,,,,,0,1,1,1,0,153,153,166,889.7216652,9.30088572204e-06,890.350012572,0.628357635578,,,,,x,1,0.617274455726,2018_Nov_28_1540,59.9865326904,chinese_cond1,001,1063,
images/radio03a.jpg,radio,z,sounds/animalfarm_chinese.wav,,,,,,,,,0,1,1,1,0,154,154,37,891.465133061,9.30111855268e-06,894.467356945,3.00223382679,,,,,None,0,,2018_Nov_28_1540,59.9865326904,chinese_cond1,001,1063,
images/wallet01.jpg,lamp,x,sounds/animalfarm_chinese.wav,,,,,,,,,0,1,1,1,0,155,155,193,895.57346772,9.621726349e-06,898.568391658,2.99493484222,,,,,None,0,,2018_Nov_28_1540,59.9865326904,chinese_cond1,001,1063,
images/cookingpot.jpg,grasshopper,x,sounds/animalfarm_chinese.wav,,,,,,,,,0,1,1,1,0,156,156,183,899.683579177,9.30111855268e-06,902.68611352,3.00254428526,,,,,None,0,,2018_Nov_28_1540,59.9865326904,chinese_cond1,001,1063,
images/apple06.jpg,apple,z,sounds/animalfarm_chinese.wav,,,,,,,,,0,1,1,1,0,157,157,13,903.814977254,9.30088572204e-06,905.136870231,1.32190291886,,,,,z,1,1.30056883208,2018_Nov_28_1540,59.9865326904,chinese_cond1,001,1063,
images/belt02a.jpg,snowman,x,sounds/animalfarm_chinese.wav,,,,,,,,,0,1,1,1,0,158,158,224,906.241584583,8.98027792573e-06,906.904002863,0.662427901756,,,,,x,1,0.650423930027,2018_Nov_28_1540,59.9865326904,chinese_cond1,001,1063,
images/chessknight02b (1).jpg,cockroach,x,sounds/animalfarm_chinese.wav,,,,,,,,,0,1,1,1,0,159,159,155,908.013977052,9.30088572204e-06,911.004872083,2.9909056155,,,,,None,0,,2018_Nov_28_1540,59.9865326904,chinese_cond1,001,1063,
images/dolphin01.jpg,dolphin,z,sounds/animalfarm_chinese.wav,,,,,,,,,0,1,1,1,0,160,160,99,912.106584481,9.30088572204e-06,913.872456035,1.76588117657,,,,,z,1,1.7507177752,2018_Nov_28_1540,59.9865326904,chinese_cond1,001,1063,
images/paintbrush03a.jpg,paint brush,z,sounds/animalfarm_chinese.wav,,,,,,,,,0,1,1,1,0,161,161,0,914.973947776,8.98027792573e-06,915.77290402,0.798965865048,,,,,z,1,0.783784182509,2018_Nov_28_1540,59.9865326904,chinese_cond1,001,1063,
images/masquerademask02b.jpg,mirror,x,sounds/animalfarm_chinese.wav,,,,,,,,,0,1,1,1,0,162,162,204,916.879547834,9.62149351835e-06,917.806756195,0.927219265839,,,,,x,1,0.917131927097,2018_Nov_28_1540,59.9865326904,chinese_cond1,001,1063,
images/birthdaycandle.jpg,birthday candle,z,sounds/animalfarm_chinese.wav,,,,,,,,,0,1,1,1,0,163,163,55,918.904406011,9.30088572204e-06,919.523845017,0.619449269492,,,,,z,1,0.600395193323,2018_Nov_28_1540,59.9865326904,chinese_cond1,001,1063,
images/sunglasses03a.jpg,sun glasses,z,sounds/animalfarm_chinese.wav,,,,,,,,,0,1,1,1,0,164,164,17,920.633004572,8.98027792573e-06,921.190963153,0.55796820228,,,,,z,1,0.533711699536,2018_Nov_28_1540,59.9865326904,chinese_cond1,001,1063,
images/lily.jpg,kiwi,x,sounds/animalfarm_chinese.wav,,,,,,,,,0,1,1,1,0,165,165,190,922.291889461,9.30088572204e-06,922.89137605,0.599496531067,,,,,x,1,0.583695535082,2018_Nov_28_1540,59.9865326904,chinese_cond1,001,1063,
images/cactus.jpg,cactus,z,sounds/animalfarm_chinese.wav,,,,,,,,,0,1,1,1,0,166,166,70,924.004466691,8.65943729877e-06,924.675156384,0.670699314447,,,,,z,1,0.650412383955,2018_Nov_28_1540,59.9865326904,chinese_cond1,001,1063,
images/hammer02a.jpg,flower,x,sounds/animalfarm_chinese.wav,,,,,,,,,0,1,1,1,0,167,167,176,925.77126866,9.30111855268e-06,928.759366998,2.98810860165,,,,,None,0,,2018_Nov_28_1540,59.9865326904,chinese_cond1,001,1063,
images/weight01.jpg,weight,z,sounds/animalfarm_chinese.wav,,,,,,,,,0,1,1,1,0,168,168,67,929.865297848,8.98027792573e-06,930.493304614,0.628016387578,,,,,z,1,0.617077532457,2018_Nov_28_1540,59.9865326904,chinese_cond1,001,1063,
images/cloud.jpg,ceiling fan,x,sounds/animalfarm_chinese.wav,,,,,,,,,0,1,1,1,0,169,169,149,931.600316616,9.30088572204e-06,932.31042461,0.710118256509,,,,,x,1,0.700429253979,2018_Nov_28_1540,59.9865326904,chinese_cond1,001,1063,
images/tie01.jpg,bench,x,sounds/animalfarm_chinese.wav,,,,,,,,,0,1,1,1,0,170,170,130,933.409896445,8.98027792573e-06,934.077550187,0.667663362809,,,,,z,0,0.650412063114,2018_Nov_28_1540,59.9865326904,chinese_cond1,001,1063,
images/lightbulb03b.jpg,treadmill,x,sounds/animalfarm_chinese.wav,,,,,,,,,0,1,1,1,0,171,171,234,935.181175689,8.98027792573e-06,935.944679355,0.763513608836,,,,,x,1,0.750444520265,2018_Nov_28_1540,59.9865326904,chinese_cond1,001,1063,
images/gluestick.jpg,squirrel,x,sounds/animalfarm_chinese.wav,,,,,,,,,0,1,1,1,0,172,172,226,937.053366487,9.62149351835e-06,937.861845599,0.808489375049,,,,,x,1,0.800468445988,2018_Nov_28_1540,59.9865326904,chinese_cond1,001,1063,
images/lightswitch02a.jpg,fork,x,sounds/animalfarm_chinese.wav,,,,,,,,,0,1,1,1,0,173,173,177,938.975510653,9.621726349e-06,940.695892004,1.72039129329,,,,,x,1,1.70069481153,2018_Nov_28_1540,59.9865326904,chinese_cond1,001,1063,
images/lollipop03b.jpg,lollipop,z,sounds/animalfarm_chinese.wav,,,,,,,,,0,1,1,1,0,174,174,42,941.789746399,8.98004509509e-06,944.780080809,2.99034499377,,,,,None,0,,2018_Nov_28_1540,59.9865326904,chinese_cond1,001,1063,
images/8ball.jpg,nail clipper,x,sounds/animalfarm_chinese.wav,,,,,,,,,0,1,1,1,0,175,175,206,945.896355896,8.98027792573e-06,947.280873954,1.38452800037,,,,,x,1,1.36725841952,2018_Nov_28_1540,59.9865326904,chinese_cond1,001,1063,
images/gamecontroller01.jpg,game controller,z,sounds/animalfarm_chinese.wav,,,,,,,,,0,1,1,1,0,176,176,112,948.404290871,9.30088572204e-06,949.164686745,0.76040613628,,,,,z,1,0.750440030126,2018_Nov_28_1540,59.9865326904,chinese_cond1,001,1063,
images/notebook02b.jpg,notebook,z,sounds/animalfarm_chinese.wav,,,,,,,,,0,1,1,1,0,177,177,7,950.272316457,9.30088572204e-06,951.015150893,0.742844057502,,,,,z,1,0.733769236831,2018_Nov_28_1540,59.9865326904,chinese_cond1,001,1063,
images/nailclipper03a.jpg,aquarium,x,sounds/animalfarm_chinese.wav,,,,,,,,,0,1,1,1,0,178,178,123,952.115708051,9.621726349e-06,953.065716518,0.950019371696,,,,,x,1,0.933861732949,2018_Nov_28_1540,59.9865326904,chinese_cond1,001,1063,
images/panda.jpg,panda,z,sounds/animalfarm_chinese.wav,,,,,,,,,0,1,1,1,0,179,179,83,954.176441516,8.98027792573e-06,954.816131532,0.639699958498,,,,,z,1,0.617089078529,2018_Nov_28_1540,59.9865326904,chinese_cond1,001,1063,
images/donut.jpg,rhinoceros,x,sounds/animalfarm_chinese.wav,,,,,,,,,0,1,1,1,0,180,180,216,955.942695371,8.98027792573e-06,956.583234017,0.640548267402,,,,,x,1,0.617071438814,2018_Nov_28_1540,59.9865326904,chinese_cond1,001,1063,
