images,name,corrAns,sounds,trials_3.thisRepN,trials_3.thisTrialN,trials_3.thisN,trials_3.thisIndex,trials_4.thisRepN,trials_4.thisTrialN,trials_4.thisN,trials_4.thisIndex,trials_2.thisRepN,trials_2.thisTrialN,trials_2.thisN,trials_2.thisIndex,trials.thisRepN,trials.thisTrialN,trials.thisN,trials.thisIndex,begin_global,begin_routine,end_global,end_routine,key_resp_2.keys,key_resp_2.corr,key_resp_2.rt,begin_book,key_resp_1.keys,key_resp_1.corr,key_resp_1.rt,date,frameRate,expName,session,participant,
images/volleyball.jpg,volley ball,z,,0,0,0,0,,,,,,,,,,,,,,,,,,,,,,,,2018_Nov_28_1540,59.9890717935,spanish_cond2,001,1064,
images/puma.jpg,puma,z,,,,,,0,0,0,0,,,,,,,,,48.16995973,1.05837825686e-05,50.6092788635,2.43933003792,z,1,2.41754084732,,,,,2018_Nov_28_1540,59.9890717935,spanish_cond2,001,1064,
images/ear.jpg,bullet,x,sounds/greatgatsby_spanish.wav,,,,,,,,,0,0,0,0,0,0,0,139,92.7911880428,9.30111855268e-06,94.5370622789,1.74588385783,,,,82.6058426513,x,1,1.73403832223,2018_Nov_28_1540,59.9890717935,spanish_cond2,001,1064,
images/hand01a.jpg,cupcake,x,sounds/greatgatsby_spanish.wav,,,,,,,,,0,0,0,0,0,1,1,163,95.6548890173,8.65943729877e-06,97.5711668625,1.91628778749,,,,,x,1,1.90072123893,2018_Nov_28_1540,59.9890717935,spanish_cond2,001,1064,
images/ostrich.jpg,ostrich,z,sounds/greatgatsby_spanish.wav,,,,,,,,,0,0,0,0,0,2,2,76,98.6717779015,8.98027792573e-06,100.321853207,1.65008460637,,,,,z,1,1.63397988677,2018_Nov_28_1540,59.9890717935,spanish_cond2,001,1064,
images/daisy.jpg,daisy,z,sounds/greatgatsby_spanish.wav,,,,,,,,,0,0,0,0,0,3,3,6,101.424459456,9.30088572204e-06,103.289390077,1.86494024307,,,,,z,1,1.85084259999,2018_Nov_28_1540,59.9890717935,spanish_cond2,001,1064,
images/parkfountain.jpg,park fountain,z,sounds/greatgatsby_spanish.wav,,,,,,,,,0,0,0,0,0,4,4,93,104.41015174,9.30111855268e-06,107.073566823,2.66342727072,,,,,z,1,2.65092650079,2018_Nov_28_1540,59.9890717935,spanish_cond2,001,1064,
images/stapler03a.jpg,candy cane,x,sounds/greatgatsby_spanish.wav,,,,,,,,,0,0,0,0,0,5,5,145,108.184659368,9.30088572204e-06,109.090734414,0.906084988732,,,,,x,1,0.883795792703,2018_Nov_28_1540,59.9890717935,spanish_cond2,001,1064,
images/tulip02.jpg,sport shorts,x,sounds/greatgatsby_spanish.wav,,,,,,,,,0,0,0,0,0,6,6,225,110.185999664,8.98004509509e-06,111.091238909,0.905249187956,,,,,x,1,0.883790981723,2018_Nov_28_1540,59.9890717935,spanish_cond2,001,1064,
images/scooter.jpg,pen,x,sounds/greatgatsby_spanish.wav,,,,,,,,,0,0,0,0,0,7,7,212,112.184034602,9.30088572204e-06,113.775251382,1.59122672211,,,,,x,1,1.56730729761,2018_Nov_28_1540,59.9890717935,spanish_cond2,001,1064,
images/backpack01b.jpg,swallow,x,sounds/greatgatsby_spanish.wav,,,,,,,,,0,0,0,0,0,8,8,228,114.907385194,8.98027792573e-06,116.075878264,1.16850269143,,,,,x,1,1.15056312317,2018_Nov_28_1540,59.9890717935,spanish_cond2,001,1064,
images/tie01.jpg,bench,x,sounds/greatgatsby_spanish.wav,,,,,,,,,0,0,0,0,0,9,9,130,117.174768311,8.98027792573e-06,118.293061058,1.11830268963,,,,,x,1,1.10051867133,2018_Nov_28_1540,59.9890717935,spanish_cond2,001,1064,
images/cupcake.jpg,scissors,x,sounds/greatgatsby_spanish.wav,,,,,,,,,0,0,0,0,0,10,10,219,119.413664925,9.94233414531e-06,120.226967692,0.813313350314,,,,,x,1,0.800481595797,2018_Nov_28_1540,59.9890717935,spanish_cond2,001,1064,
images/lantern03.jpg,lantern,z,sounds/greatgatsby_spanish.wav,,,,,,,,,0,0,0,0,0,11,11,5,121.333612147,8.98027792573e-06,122.577495343,1.24389313813,,,,,z,1,1.23390842997,2018_Nov_28_1540,59.9890717935,spanish_cond2,001,1064,
images/computerkeyboard01a.jpg,computer keyboard,z,sounds/greatgatsby_spanish.wav,,,,,,,,,0,0,0,0,0,12,12,61,123.694674865,8.98004509509e-06,125.728526399,2.03386115562,,,,,z,1,2.01767561445,2018_Nov_28_1540,59.9890717935,spanish_cond2,001,1064,
images/dreamcatcher.jpg,dream catcher,z,sounds/greatgatsby_spanish.wav,,,,,,,,,0,0,0,0,0,13,13,48,126.827791369,9.30088572204e-06,128.812390313,1.98460952775,,,,,x,0,1.96740344982,2018_Nov_28_1540,59.9890717935,spanish_cond2,001,1064,
images/handbag02a.jpg,candle,x,sounds/greatgatsby_spanish.wav,,,,,,,,,0,0,0,0,0,14,14,144,129.928827044,9.94256697595e-06,132.379966055,2.45114927413,,,,,x,1,2.43418854824,2018_Nov_28_1540,59.9890717935,spanish_cond2,001,1064,
images/eraser.jpg,eraser,z,sounds/greatgatsby_spanish.wav,,,,,,,,,0,0,0,0,0,15,15,110,133.487241049,8.98027792573e-06,134.797522296,1.31029151054,,,,,z,1,1.30086421664,2018_Nov_28_1540,59.9890717935,spanish_cond2,001,1064,
images/sportshorts02.jpg,tape,x,sounds/greatgatsby_spanish.wav,,,,,,,,,0,0,0,0,0,16,16,230,135.904960538,9.30111855268e-06,137.031137587,1.12618667027,,,,,x,1,1.11719363369,2018_Nov_28_1540,59.9890717935,spanish_cond2,001,1064,
images/acousticguitar02.jpg,acoustic guitar,z,sounds/greatgatsby_spanish.wav,,,,,,,,,0,0,0,0,0,17,17,97,138.146210609,8.65943729877e-06,140.565365648,2.41916498193,,,,,z,1,2.40085947001,2018_Nov_28_1540,59.9890717935,spanish_cond2,001,1064,
images/puzzle.jpg,puzzle,z,sounds/greatgatsby_spanish.wav,,,,,,,,,0,0,0,0,0,18,18,57,141.686195304,9.30088572204e-06,143.799522317,2.1133369552,,,,,z,1,2.10077396571,2018_Nov_28_1540,59.9890717935,spanish_cond2,001,1064,
images/safe.jpg,safe,z,sounds/greatgatsby_spanish.wav,,,,,,,,,0,0,0,0,0,19,19,78,144.910608447,8.98027792573e-06,146.100107185,1.18950868002,,,,,z,1,1.16720729647,2018_Nov_28_1540,59.9890717935,spanish_cond2,001,1064,
images/parkingmeter.jpg,ear,x,sounds/greatgatsby_spanish.wav,,,,,,,,,0,0,0,0,0,20,20,171,147.202416125,9.30088572204e-06,148.517389531,1.31498334813,,,,,x,1,1.30057235993,2018_Nov_28_1540,59.9890717935,spanish_cond2,001,1064,
images/parrot01.jpg,chameleon,x,sounds/greatgatsby_spanish.wav,,,,,,,,,0,0,0,0,0,21,21,150,149.630628024,8.65943729877e-06,152.451717593,2.82109919027,,,,,x,1,2.80094984942,2018_Nov_28_1540,59.9890717935,spanish_cond2,001,1064,
images/radio03a.jpg,radio,z,sounds/greatgatsby_spanish.wav,,,,,,,,,0,0,0,0,0,22,22,37,153.565228379,9.30088572204e-06,154.385547254,0.82032945822,,,,,z,1,0.800467804773,2018_Nov_28_1540,59.9890717935,spanish_cond2,001,1064,
images/nailclipper03a.jpg,aquarium,x,sounds/greatgatsby_spanish.wav,,,,,,,,,0,0,0,0,0,23,23,123,155.486352329,9.30088572204e-06,156.452724338,0.966381630627,,,,,x,1,0.950486663263,2018_Nov_28_1540,59.9890717935,spanish_cond2,001,1064,
images/giraffe.jpg,lettuce,x,sounds/greatgatsby_spanish.wav,,,,,,,,,0,0,0,0,0,24,24,195,157.553378675,9.30088572204e-06,158.569916689,1.01654795697,,,,,x,1,1.00048525189,2018_Nov_28_1540,59.9890717935,spanish_cond2,001,1064,
images/pepper05a.jpg,lighter,x,sounds/greatgatsby_spanish.wav,,,,,,,,,0,0,0,0,0,25,25,198,159.690967964,9.30088572204e-06,160.553774124,0.862817065557,,,,,x,1,0.850480826106,2018_Nov_28_1540,59.9890717935,spanish_cond2,001,1064,
images/remotecontrol01c.jpg,remote control,z,sounds/greatgatsby_spanish.wav,,,,,,,,,0,0,0,0,0,26,26,85,161.663860566,9.62149351835e-06,164.404733467,2.7408828442,,,,,z,1,2.71759427921,2018_Nov_28_1540,59.9890717935,spanish_cond2,001,1064,
images/ashtray02b.jpg,ashtray,z,sounds/greatgatsby_spanish.wav,,,,,,,,,0,0,0,0,0,27,27,43,165.518954652,8.65943729877e-06,167.588875511,2.06993048033,,,,,z,1,2.05077730119,2018_Nov_28_1540,59.9890717935,spanish_cond2,001,1064,
images/redfox.jpg,red fox,z,sounds/greatgatsby_spanish.wav,,,,,,,,,0,0,0,0,0,28,28,1,168.701429906,8.98027792573e-06,169.956153174,1.25473289029,,,,,z,1,1.23389624269,2018_Nov_28_1540,59.9890717935,spanish_cond2,001,1064,
images/floorlamp.jpg,floor lamp,z,sounds/greatgatsby_spanish.wav,,,,,,,,,0,0,0,0,0,29,29,26,171.049064647,9.30088572204e-06,172.32341448,1.27435945463,,,,,z,1,1.2505551693,2018_Nov_28_1540,59.9890717935,spanish_cond2,001,1064,
images/hairpin.jpg,hair pin,z,sounds/greatgatsby_spanish.wav,,,,,,,,,0,0,0,0,0,30,30,28,173.414576096,9.30088572204e-06,174.223897102,0.809331269469,,,,,z,1,0.800454655197,2018_Nov_28_1540,59.9890717935,spanish_cond2,001,1064,
images/lightswitch02a.jpg,fork,x,sounds/greatgatsby_spanish.wav,,,,,,,,,0,0,0,0,0,31,31,177,175.335649692,9.621726349e-06,177.79145328,2.45581449196,,,,,x,1,2.43418309605,2018_Nov_28_1540,59.9890717935,spanish_cond2,001,1064,
images/banana04a.jpg,banana,z,sounds/greatgatsby_spanish.wav,,,,,,,,,0,0,0,0,0,32,32,118,178.898504731,8.98027792573e-06,180.758880142,1.86038503284,,,,,z,1,1.85071270773,2018_Nov_28_1540,59.9890717935,spanish_cond2,001,1064,
images/key03b.jpg,cigar,x,sounds/greatgatsby_spanish.wav,,,,,,,,,0,0,0,0,0,33,33,153,181.860545714,8.98027792573e-06,183.742954065,1.8824179722,,,,,x,1,1.86732929898,2018_Nov_28_1540,59.9890717935,spanish_cond2,001,1064,
images/hat05.jpg,hat,z,sounds/greatgatsby_spanish.wav,,,,,,,,,0,0,0,0,0,34,34,15,184.847092401,9.621726349e-06,187.593771969,2.74668983137,,,,,z,1,2.73409124161,2018_Nov_28_1540,59.9890717935,spanish_cond2,001,1064,
images/medal01.jpg,medal,z,sounds/greatgatsby_spanish.wav,,,,,,,,,0,0,0,0,0,35,35,115,188.695641841,8.65967012942e-06,190.494692697,1.79906047788,,,,,z,1,1.78404845716,2018_Nov_28_1540,59.9890717935,spanish_cond2,001,1064,
images/charcoalbarbecue.jpg,charcoal barbecue,z,sounds/greatgatsby_spanish.wav,,,,,,,,,0,0,0,0,0,36,36,77,191.61196587,9.94233414531e-06,192.461828345,0.849873058265,,,,,z,1,0.833752623526,2018_Nov_28_1540,59.9890717935,spanish_cond2,001,1064,
images/tape01a.jpg,tie,x,sounds/greatgatsby_spanish.wav,,,,,,,,,0,0,0,0,0,37,37,232,193.587923288,8.98027792573e-06,194.929125956,1.3412132517,,,,,x,1,1.31725213351,2018_Nov_28_1540,59.9890717935,spanish_cond2,001,1064,
images/diaper01a.jpg,camera,x,sounds/greatgatsby_spanish.wav,,,,,,,,,0,0,0,0,0,38,38,143,196.049231422,9.30111855268e-06,198.646764175,2.59754301538,,,,,x,1,2.58426513686,2018_Nov_28_1540,59.9890717935,spanish_cond2,001,1064,
images/gluestick.jpg,squirrel,x,sounds/greatgatsby_spanish.wav,,,,,,,,,0,0,0,0,0,39,39,226,199.756770756,9.30088572204e-06,200.764040875,1.00727974111,,,,,x,1,0.983944350854,2018_Nov_28_1540,59.9890717935,spanish_cond2,001,1064,
images/bracelet02a.jpg,chess knight,x,sounds/greatgatsby_spanish.wav,,,,,,,,,0,0,0,0,0,40,40,152,201.873183753,8.98027792573e-06,203.664667501,1.79149369081,,,,,x,1,1.7673606656,2018_Nov_28_1540,59.9890717935,spanish_cond2,001,1064,
images/cactus.jpg,cactus,z,sounds/greatgatsby_spanish.wav,,,,,,,,,0,0,0,0,0,41,41,70,204.776909834,8.98027792573e-06,205.615181426,0.838281534612,,,,,z,1,0.81714886101,2018_Nov_28_1540,59.9890717935,spanish_cond2,001,1064,
images/squirrel.jpg,binder,x,sounds/greatgatsby_spanish.wav,,,,,,,,,0,0,0,0,0,42,42,132,206.718433608,9.621726349e-06,207.565665844,0.847243140452,,,,,x,1,0.833795600338,2018_Nov_28_1540,59.9890717935,spanish_cond2,001,1064,
images/bus.jpg,microphone,x,sounds/greatgatsby_spanish.wav,,,,,,,,,0,0,0,0,0,43,43,203,208.6859801,9.30111855268e-06,209.466143976,0.78017349774,,,,,x,1,0.767108899076,2018_Nov_28_1540,59.9890717935,spanish_cond2,001,1064,
images/flashlight05.jpg,flash light,z,sounds/greatgatsby_spanish.wav,,,,,,,,,0,0,0,0,0,44,44,8,210.568580563,9.30088572204e-06,211.28328097,0.714710349683,,,,,z,1,0.700439196313,2018_Nov_28_1540,59.9890717935,spanish_cond2,001,1064,
images/lion.jpg,lion,z,sounds/greatgatsby_spanish.wav,,,,,,,,,0,0,0,0,0,45,45,44,212.39551336,8.98027792573e-06,214.234027738,1.83852432086,,,,,z,1,1.81738747796,2018_Nov_28_1540,59.9890717935,spanish_cond2,001,1064,
images/bullet (2).jpg,rubber glove,x,sounds/greatgatsby_spanish.wav,,,,,,,,,0,0,0,0,0,46,46,217,215.339445113,9.62149351835e-06,217.301459155,1.96202462632,,,,,x,1,1.95074773044,2018_Nov_28_1540,59.9890717935,spanish_cond2,001,1064,
images/toucan.jpg,toucan,z,sounds/greatgatsby_spanish.wav,,,,,,,,,0,0,0,0,0,47,47,81,218.402558974,8.98004509509e-06,219.368641051,0.966092660325,,,,,z,1,0.950487945927,2018_Nov_28_1540,59.9890717935,spanish_cond2,001,1064,
images/triangleruler02.jpg,bottle of red wine,x,sounds/greatgatsby_spanish.wav,,,,,,,,,0,0,0,0,0,48,48,134,220.479735199,9.30088572204e-06,221.785940715,1.30621545808,,,,,x,1,1.28393267677,2018_Nov_28_1540,59.9890717935,spanish_cond2,001,1064,
images/candy.jpg,candy,z,sounds/greatgatsby_spanish.wav,,,,,,,,,0,0,0,0,0,49,49,31,222.888445616,9.30088572204e-06,224.136530907,1.24809523392,,,,,z,1,1.2339097131,2018_Nov_28_1540,59.9890717935,spanish_cond2,001,1064,
images/fork01.jpg,cooking pot,x,sounds/greatgatsby_spanish.wav,,,,,,,,,0,0,0,0,0,50,50,160,225.230207622,8.98004509509e-06,226.57046801,1.34027000912,,,,,x,1,1.31724700192,2018_Nov_28_1540,59.9890717935,spanish_cond2,001,1064,
images/elbow.jpg,elbow,z,sounds/greatgatsby_spanish.wav,,,,,,,,,0,0,0,0,0,51,51,105,227.682254596,4.23351302743e-05,228.42094178,0.738718614215,,,,,z,1,0.71710485802,2018_Nov_28_1540,59.9890717935,spanish_cond2,001,1064,
images/bench02.jpg,electric toothbrush,x,sounds/greatgatsby_spanish.wav,,,,,,,,,0,0,0,0,0,52,52,172,229.529954124,8.98004509509e-06,231.021824149,1.49187964713,,,,,x,1,1.46751538175,2018_Nov_28_1540,59.9890717935,spanish_cond2,001,1064,
images/snowman.jpg,globe,x,sounds/greatgatsby_spanish.wav,,,,,,,,,0,0,0,0,0,53,53,180,232.13317263,9.621726349e-06,233.455558877,1.32239618874,,,,,x,1,1.30059513124,2018_Nov_28_1540,59.9890717935,spanish_cond2,001,1064,
images/clothespin02a.jpg,clothes pin,z,sounds/greatgatsby_spanish.wav,,,,,,,,,0,0,0,0,0,54,54,79,234.560952197,9.30088572204e-06,235.706117253,1.14517660206,,,,,z,1,1.13385769189,2018_Nov_28_1540,59.9890717935,spanish_cond2,001,1064,
images/glasses01b.jpg,calculator,x,sounds/greatgatsby_spanish.wav,,,,,,,,,0,0,0,0,0,55,55,142,236.798820899,9.62149351835e-06,237.823320509,1.02450987301,,,,,x,1,1.00051539973,2018_Nov_28_1540,59.9890717935,spanish_cond2,001,1064,
images/headphones02b.jpg,headphones,z,sounds/greatgatsby_spanish.wav,,,,,,,,,0,0,0,0,0,56,56,101,238.931336691,3.88072803617e-05,239.757151452,0.825847795699,,,,,z,1,0.817133787088,2018_Nov_28_1540,59.9890717935,spanish_cond2,001,1064,
images/carrot02.jpg,corkscrew,x,sounds/greatgatsby_spanish.wav,,,,,,,,,0,0,0,0,0,57,57,161,240.860072329,9.30088572204e-06,241.791217229,0.931154842023,,,,,x,1,0.917350338306,2018_Nov_28_1540,59.9890717935,spanish_cond2,001,1064,
images/ceilingfan02.jpg,paper clip,x,sounds/greatgatsby_spanish.wav,,,,,,,,,0,0,0,0,0,58,58,208,242.889804514,9.30088572204e-06,243.691480477,0.801685905783,,,,,x,1,0.783786748303,2018_Nov_28_1540,59.9890717935,spanish_cond2,001,1064,
images/table02.jpg,table,z,sounds/greatgatsby_spanish.wav,,,,,,,,,0,0,0,0,0,59,59,49,244.806327711,8.98027792573e-06,245.608616894,0.802298804978,,,,,z,1,0.783769108588,2018_Nov_28_1540,59.9890717935,spanish_cond2,001,1064,
images/camera01a.jpg,bull,x,sounds/greatgatsby_spanish.wav,,,,,,,,,0,0,0,0,0,60,60,138,246.719913097,9.30111855268e-06,247.459103493,0.739200338256,,,,,x,1,0.717100688722,2018_Nov_28_1540,59.9890717935,spanish_cond2,001,1064,
images/raisin.jpg,ruler,x,sounds/greatgatsby_spanish.wav,,,,,,,,,0,0,0,0,0,61,61,218,248.564075706,9.30088572204e-06,249.426264157,0.862198393326,,,,,x,1,0.850485636853,2018_Nov_28_1540,59.9890717935,spanish_cond2,001,1064,
images/pen03c.jpg,pepper,x,sounds/greatgatsby_spanish.wav,,,,,,,,,0,0,0,0,0,62,62,211,250.520932864,8.98027792573e-06,251.66017836,1.13925575884,,,,,x,1,1.11722987541,2018_Nov_28_1540,59.9890717935,spanish_cond2,001,1064,
images/paintbrush03a.jpg,paint brush,z,sounds/greatgatsby_spanish.wav,,,,,,,,,0,0,0,0,0,63,63,0,252.761322759,8.98027792573e-06,253.577301306,0.815988169285,,,,,z,1,0.800454013748,2018_Nov_28_1540,59.9890717935,spanish_cond2,001,1064,
images/apple06.jpg,apple,z,sounds/greatgatsby_spanish.wav,,,,,,,,,0,0,0,0,0,64,64,13,254.704810954,9.30088572204e-06,255.727853204,1.02305219299,,,,,z,1,1.00051283394,2018_Nov_28_1540,59.9890717935,spanish_cond2,001,1064,
images/basketball01.jpg,basket ball,z,sounds/greatgatsby_spanish.wav,,,,,,,,,0,0,0,0,0,65,65,33,256.866967204,9.30088572204e-06,258.061594923,1.19463734073,,,,,z,1,1.18371291808,2018_Nov_28_1540,59.9890717935,spanish_cond2,001,1064,
images/butterfly.jpg,butterfly,z,sounds/greatgatsby_spanish.wav,,,,,,,,,0,0,0,0,0,66,66,91,259.169721113,9.30088572204e-06,259.878905428,0.709193936549,,,,,z,1,0.700443365844,2018_Nov_28_1540,59.9890717935,spanish_cond2,001,1064,
images/egg01b (1).jpg,egg,z,sounds/greatgatsby_spanish.wav,,,,,,,,,0,0,0,0,0,67,67,19,260.991777658,8.65943729877e-06,261.646036778,0.654269062448,,,,,z,1,0.633776870091,2018_Nov_28_1540,59.9890717935,spanish_cond2,001,1064,
images/lollipop03b.jpg,lollipop,z,sounds/greatgatsby_spanish.wav,,,,,,,,,0,0,0,0,0,68,68,42,262.738724387,9.30111855268e-06,263.429981642,0.69128419552,,,,,z,1,0.667175865732,2018_Nov_28_1540,59.9890717935,spanish_cond2,001,1064,
images/binder03b.jpg,dj mixer,x,sounds/greatgatsby_spanish.wav,,,,,,,,,0,0,0,0,0,69,69,167,264.543752534,8.98004509509e-06,265.48032212,0.93657952873,,,,,x,1,0.917166564846,2018_Nov_28_1540,59.9890717935,spanish_cond2,001,1064,
images/treadmill.jpg,lily,x,sounds/greatgatsby_spanish.wav,,,,,,,,,0,0,0,0,0,70,70,199,266.586378693,9.30088572204e-06,267.997626018,1.41125694686,,,,,z,0,1.40062213596,2018_Nov_28_1540,59.9890717935,spanish_cond2,001,1064,
images/icecube02 (2).jpg,aloe,x,sounds/greatgatsby_spanish.wav,,,,,,,,,0,0,0,0,0,71,71,122,269.108640948,8.98027792573e-06,271.015051469,1.9064204637,,,,,x,1,1.88406584039,2018_Nov_28_1540,59.9890717935,spanish_cond2,001,1064,
images/plate01b.jpg,plate,z,sounds/greatgatsby_spanish.wav,,,,,,,,,0,0,0,0,0,72,72,3,272.114680779,9.30088572204e-06,273.098920194,0.984249357367,,,,,z,1,0.967173492303,2018_Nov_28_1540,59.9890717935,spanish_cond2,001,1064,
images/pictureframe04.jpg,picture frame,z,sounds/greatgatsby_spanish.wav,,,,,,,,,0,0,0,0,0,73,73,41,274.221010928,9.62149351835e-06,275.166105938,0.945105273509,,,,,z,1,0.933830302209,2018_Nov_28_1540,59.9890717935,spanish_cond2,001,1064,
images/radish01.jpg,raisin,x,sounds/greatgatsby_spanish.wav,,,,,,,,,0,0,0,0,0,74,74,214,276.277045819,9.30088572204e-06,277.450038615,1.17300337902,,,,,x,1,1.1505727449,2018_Nov_28_1540,59.9890717935,spanish_cond2,001,1064,
images/weight01.jpg,weight,z,sounds/greatgatsby_spanish.wav,,,,,,,,,0,0,0,0,0,75,75,67,278.556328994,9.30088572204e-06,279.917306399,1.36098670657,,,,,z,1,1.35060462449,2018_Nov_28_1540,59.9890717935,spanish_cond2,001,1064,
images/blackolive.jpg,tank,x,sounds/greatgatsby_spanish.wav,,,,,,,,,0,0,0,0,0,76,76,229,281.032022779,8.98027792573e-06,282.434620881,1.40260836552,,,,,x,1,1.38395358785,2018_Nov_28_1540,59.9890717935,spanish_cond2,001,1064,
images/candycane01a.jpg,lip,x,sounds/greatgatsby_spanish.wav,,,,,,,,,0,0,0,0,0,77,77,200,283.529397672,8.65943729877e-06,284.268418085,0.739030676428,,,,,x,1,0.717116403859,2018_Nov_28_1540,59.9890717935,spanish_cond2,001,1064,
images/mirror02.jpg,8 ball,x,sounds/greatgatsby_spanish.wav,,,,,,,,,0,0,0,0,0,78,78,121,285.371361412,9.94233414531e-06,286.402266797,1.03091596835,,,,,x,1,1.01717208116,2018_Nov_28_1540,59.9890717935,spanish_cond2,001,1064,
images/masquerademask02b.jpg,mirror,x,sounds/greatgatsby_spanish.wav,,,,,,,,,0,0,0,0,0,79,79,204,287.507081535,9.30088572204e-06,289.736462016,2.22939074412,,,,,x,1,2.21746374574,2018_Nov_28_1540,59.9890717935,spanish_cond2,001,1064,
images/graduationcap.jpg,graduation cap,z,sounds/greatgatsby_spanish.wav,,,,,,,,,0,0,0,0,0,80,80,35,290.841259436,9.30088572204e-06,292.970608742,2.12935924949,,,,,z,1,2.11745887063,2018_Nov_28_1540,59.9890717935,spanish_cond2,001,1064,
images/cheetah.jpg,cheetah,z,sounds/greatgatsby_spanish.wav,,,,,,,,,0,0,0,0,0,81,81,82,294.073073553,8.98004509509e-06,296.871625046,2.79856175557,,,,,x,0,2.78432652284,2018_Nov_28_1540,59.9890717935,spanish_cond2,001,1064,
images/baseball01a.jpg,baseball,z,sounds/greatgatsby_spanish.wav,,,,,,,,,0,0,0,0,0,82,82,74,298.003912163,8.65943729877e-06,298.85542892,0.851526058046,,,,,z,1,0.833805222064,2018_Nov_28_1540,59.9890717935,spanish_cond2,001,1064,
images/lock02a.jpg,lock,z,sounds/greatgatsby_spanish.wav,,,,,,,,,0,0,0,0,0,83,83,65,299.966106772,9.94256697595e-06,302.956304234,2.9902090081,,,,,None,0,,2018_Nov_28_1540,59.9890717935,spanish_cond2,001,1064,
images/honeycomb.jpg,honey comb,z,sounds/greatgatsby_spanish.wav,,,,,,,,,0,0,0,0,0,84,84,59,304.070747038,9.30088572204e-06,305.573785555,1.50304878037,,,,,z,1,1.48394852038,2018_Nov_28_1540,59.9890717935,spanish_cond2,001,1064,
images/grandpiano.jpg,tulip,x,sounds/greatgatsby_spanish.wav,,,,,,,,,0,0,0,0,0,85,85,236,306.688686991,8.98027792573e-06,307.874400892,1.18572448473,,,,,x,1,1.16723712371,2018_Nov_28_1540,59.9890717935,spanish_cond2,001,1064,
images/panda.jpg,panda,z,sounds/greatgatsby_spanish.wav,,,,,,,,,0,0,0,0,0,86,86,83,308.983516187,9.62149351835e-06,310.641741031,1.65823542769,,,,,z,1,1.63400426181,2018_Nov_28_1540,59.9890717935,spanish_cond2,001,1064,
images/electrictoothbrush01a.jpg,banjo,x,sounds/greatgatsby_spanish.wav,,,,,,,,,0,0,0,0,0,87,87,127,311.737128797,9.30088572204e-06,313.209050894,1.47193204029,,,,,x,1,1.45061078225,2018_Nov_28_1540,59.9890717935,spanish_cond2,001,1064,
images/diploma01.jpg,glasses,x,sounds/greatgatsby_spanish.wav,,,,,,,,,0,0,0,0,0,88,88,179,314.3406924,9.30111855268e-06,315.759711132,1.41902835434,,,,,x,1,1.40061251423,2018_Nov_28_1540,59.9890717935,spanish_cond2,001,1064,
images/tent.jpg,tent,z,sounds/greatgatsby_spanish.wav,,,,,,,,,0,0,0,0,0,89,89,11,316.887137713,8.98027792573e-06,317.64350917,0.756381399697,,,,,z,1,0.733773406362,2018_Nov_28_1540,59.9890717935,spanish_cond2,001,1064,
images/notebook02b.jpg,notebook,z,sounds/greatgatsby_spanish.wav,,,,,,,,,0,0,0,0,0,90,90,7,318.750966655,9.30088572204e-06,320.544245162,1.79328909097,,,,,z,1,1.78403626988,2018_Nov_28_1540,59.9890717935,spanish_cond2,001,1064,
images/printer03a.jpg,printer,z,sounds/greatgatsby_spanish.wav,,,,,,,,,0,0,0,0,0,91,91,72,321.65380562,9.30088572204e-06,323.595020539,1.94122486166,,,,,z,1,1.91740742698,2018_Nov_28_1540,59.9890717935,spanish_cond2,001,1064,
images/cherry01.jpg,highlighter,x,sounds/greatgatsby_spanish.wav,,,,,,,,,0,0,0,0,0,92,92,187,324.704706078,9.621726349e-06,326.845858905,2.14116341155,,,,,x,1,2.11746528512,2018_Nov_28_1540,59.9890717935,spanish_cond2,001,1064,
images/nailpolish02b.jpg,nail polish,z,sounds/greatgatsby_spanish.wav,,,,,,,,,0,0,0,0,0,93,93,94,327.956329892,8.98004509509e-06,329.113088717,1.15676812571,,,,,z,1,1.13388302899,2018_Nov_28_1540,59.9890717935,spanish_cond2,001,1064,
images/electricguitar02.jpg,electric guitar,z,sounds/greatgatsby_spanish.wav,,,,,,,,,0,0,0,0,0,94,94,100,330.215308175,9.621726349e-06,331.447026717,1.2317291263,,,,,x,0,1.21723827836,2018_Nov_28_1540,59.9890717935,spanish_cond2,001,1064,
images/birthdaycandle.jpg,birthday candle,z,sounds/greatgatsby_spanish.wav,,,,,,,,,0,0,0,0,0,95,95,55,332.543672032,9.30111855268e-06,333.347503246,0.803841155488,,,,,z,1,0.783802463673,2018_Nov_28_1540,59.9890717935,spanish_cond2,001,1064,
images/lily.jpg,kiwi,x,sounds/greatgatsby_spanish.wav,,,,,,,,,0,0,0,0,0,96,96,190,334.447648276,8.98004509509e-06,335.264634852,0.816996518057,,,,,x,1,0.800454334356,2018_Nov_28_1540,59.9890717935,spanish_cond2,001,1064,
images/mitten01.jpg,mitten,z,sounds/greatgatsby_spanish.wav,,,,,,,,,0,0,0,0,0,97,97,102,336.385701521,5.06739597768e-05,337.298484782,0.912795128068,,,,,z,1,0.90048069763,2018_Nov_28_1540,59.9890717935,spanish_cond2,001,1064,
images/volleyball.jpg,volley ball,z,sounds/greatgatsby_spanish.wav,,,,,,,,,0,0,0,0,0,98,98,2,338.430750733,9.621726349e-06,339.06578836,0.635047569405,,,,,z,1,0.617260985309,2018_Nov_28_1540,59.9890717935,spanish_cond2,001,1064,
images/hanger02a.jpg,hanger,z,sounds/greatgatsby_spanish.wav,,,,,,,,,0,0,0,0,0,99,99,88,340.159705295,9.621726349e-06,341.032769419,0.873074707808,,,,,z,1,0.850468638586,2018_Nov_28_1540,59.9890717935,spanish_cond2,001,1064,
images/lamp04b.jpg,parking meter,x,sounds/greatgatsby_spanish.wav,,,,,,,,,0,0,0,0,0,100,100,209,342.154726091,9.30088572204e-06,343.71678125,1.56206542207,,,,,x,1,1.55064644665,2018_Nov_28_1540,59.9890717935,spanish_cond2,001,1064,
images/apricot.jpg,apricot,z,sounds/greatgatsby_spanish.wav,,,,,,,,,0,0,0,0,0,101,101,32,344.834410103,9.62149351835e-06,345.9506807,1.11628053896,,,,,z,1,1.10053631081,2018_Nov_28_1540,59.9890717935,spanish_cond2,001,1064,
images/ladder.jpg,ladder,z,sounds/greatgatsby_spanish.wav,,,,,,,,,0,0,0,0,0,102,102,113,347.044142531,9.621726349e-06,347.717784788,0.673652519938,,,,,z,1,0.650409818161,2018_Nov_28_1540,59.9890717935,spanish_cond2,001,1064,
images/mattress.jpg,cat,x,sounds/greatgatsby_spanish.wav,,,,,,,,,0,0,0,0,0,103,103,147,348.822293558,8.98027792573e-06,349.668460677,0.846177703002,,,,,x,1,0.833953074645,2018_Nov_28_1540,59.9890717935,spanish_cond2,001,1064,
images/bat.jpg,hand,x,sounds/greatgatsby_spanish.wav,,,,,,,,,0,0,0,0,0,104,104,185,350.767175609,9.30088572204e-06,351.935552257,1.1683865902,,,,,x,1,1.15055606724,2018_Nov_28_1540,59.9890717935,spanish_cond2,001,1064,
images/hairdryer03a.jpg,hairdryer,z,sounds/greatgatsby_spanish.wav,,,,,,,,,0,0,0,0,0,105,105,119,353.035626087,9.30111855268e-06,354.969632466,1.93401600025,,,,,z,1,1.91740742698,2018_Nov_28_1540,59.9890717935,spanish_cond2,001,1064,
images/battery03b.jpg,battery,z,sounds/greatgatsby_spanish.wav,,,,,,,,,0,0,0,0,0,106,106,34,356.07860953,8.98027792573e-06,357.170193216,1.09159362759,,,,,z,1,1.06719761062,2018_Nov_28_1540,59.9890717935,spanish_cond2,001,1064,
images/dolphin01.jpg,dolphin,z,sounds/greatgatsby_spanish.wav,,,,,,,,,0,0,0,0,0,107,107,99,358.270598351,8.98027792573e-06,359.387406157,1.11681742733,,,,,z,1,1.10053246212,2018_Nov_28_1540,59.9890717935,spanish_cond2,001,1064,
images/arrow02.jpg,hammer,x,sounds/greatgatsby_spanish.wav,,,,,,,,,0,0,0,0,0,108,108,184,360.486011402,9.621726349e-06,362.271465583,1.78546412289,,,,,x,1,1.76734911976,2018_Nov_28_1540,59.9890717935,spanish_cond2,001,1064,
images/broadsword.jpg,teapot,x,sounds/greatgatsby_spanish.wav,,,,,,,,,0,0,0,0,0,109,109,231,363.365171804,9.621726349e-06,364.188626054,0.823464833666,,,,,x,1,0.800457862206,2018_Nov_28_1540,59.9890717935,spanish_cond2,001,1064,
images/flipflop01b.jpg,flip flop,z,sounds/greatgatsby_spanish.wav,,,,,,,,,0,0,0,0,0,110,110,27,365.305817442,9.621726349e-06,365.939072498,0.633265319047,,,,,z,1,0.617079136195,2018_Nov_28_1540,59.9890717935,spanish_cond2,001,1064,
images/watermelon01.jpg,orange,x,sounds/greatgatsby_spanish.wav,,,,,,,,,0,0,0,0,0,111,111,207,367.068948751,8.98027792573e-06,368.022926149,0.953987661283,,,,,x,1,0.933820680715,2018_Nov_28_1540,59.9890717935,spanish_cond2,001,1064,
images/bed.jpg,bed,z,sounds/greatgatsby_spanish.wav,,,,,,,,,0,0,0,0,0,112,112,103,369.142982224,8.98004509509e-06,370.640271484,1.49729920249,,,,,z,1,1.48397546075,2018_Nov_28_1540,59.9890717935,spanish_cond2,001,1064,
images/aloe02.jpg,broad sword,x,sounds/greatgatsby_spanish.wav,,,,,,,,,0,0,0,0,0,113,113,137,371.762730727,9.30088572204e-06,372.990847885,1.22812774219,,,,,x,1,1.21719979169,2018_Nov_28_1540,59.9890717935,spanish_cond2,001,1064,
images/seagull.jpg,seagull,z,sounds/greatgatsby_spanish.wav,,,,,,,,,0,0,0,0,0,114,114,50,374.098730968,8.98027792573e-06,376.675115973,2.57639526762,,,,,z,1,2.56756323343,2018_Nov_28_1540,59.9890717935,spanish_cond2,001,1064,
images/puma.jpg,puma,z,sounds/greatgatsby_spanish.wav,,,,,,,,,0,0,0,0,0,115,115,4,377.772732113,8.65943729877e-06,378.658958014,0.886235201964,,,,,z,1,0.867138148984,2018_Nov_28_1540,59.9890717935,spanish_cond2,001,1064,
images/crocodile.jpg,triangle ruler,x,sounds/greatgatsby_spanish.wav,,,,,,,,,0,0,0,0,0,116,116,235,379.757011938,9.30088572204e-06,380.826159216,1.06915657897,,,,,x,1,1.05051334715,2018_Nov_28_1540,59.9890717935,spanish_cond2,001,1064,
images/croissant02b.jpg,croissant,z,sounds/greatgatsby_spanish.wav,,,,,,,,,0,0,0,0,0,117,117,39,381.937472097,8.65943729877e-06,382.643319303,0.705857468536,,,,,z,1,0.683787646238,2018_Nov_28_1540,59.9890717935,spanish_cond2,001,1064,
images/tank.jpg,wallet,x,sounds/greatgatsby_spanish.wav,,,,,,,,,0,0,0,0,0,118,118,237,383.748150398,9.30088572204e-06,384.793846505,1.04570604954,,,,,x,1,1.03385666572,2018_Nov_28_1540,59.9890717935,spanish_cond2,001,1064,
images/atm.jpg,atm,z,sounds/greatgatsby_spanish.wav,,,,,,,,,0,0,0,0,0,119,119,96,385.933271605,8.65967012942e-06,386.727656281,0.79439397715,,,,,z,1,0.783780012978,2018_Nov_28_1540,59.9890717935,spanish_cond2,001,1064,
images/boxingglove02a.jpg,bracelet,x,sounds/greatgatsby_spanish.wav,,,,,,,,,0,0,0,0,0,120,120,135,387.839135937,8.98004509509e-06,388.677984829,0.838858833537,,,,,x,1,0.81696027657,2018_Nov_28_1540,59.9890717935,spanish_cond2,001,1064,
images/ladybug03.jpg,giraffe,x,sounds/greatgatsby_spanish.wav,,,,,,,,,0,0,0,0,0,121,121,178,389.781491022,9.621726349e-06,391.078758666,1.29727790668,,,,,x,1,1.28390445304,2018_Nov_28_1540,59.9890717935,spanish_cond2,001,1064,
images/computermouse02a.jpg,world map,x,sounds/greatgatsby_spanish.wav,,,,,,,,,0,0,0,0,0,122,122,239,392.180410767,8.98004509509e-06,393.145946655,0.965545509011,,,,,x,1,0.950487304712,2018_Nov_28_1540,59.9890717935,spanish_cond2,001,1064,
images/swan.jpg,swan,z,sounds/greatgatsby_spanish.wav,,,,,,,,,0,0,0,0,0,123,123,54,394.238242022,8.65943729877e-06,395.113126883,0.874894161941,,,,,z,1,0.850473449565,2018_Nov_28_1540,59.9890717935,spanish_cond2,001,1064,
images/kiwi03.jpg,backpack,x,sounds/greatgatsby_spanish.wav,,,,,,,,,0,0,0,0,0,124,124,125,396.241735322,9.30088572204e-06,397.113621435,0.871896376135,,,,,x,1,0.850460620597,2018_Nov_28_1540,59.9890717935,spanish_cond2,001,1064,
images/donut.jpg,rhinoceros,x,sounds/greatgatsby_spanish.wav,,,,,,,,,0,0,0,0,0,125,125,216,398.239306176,9.30088572204e-06,399.397368735,1.1580728218,,,,,x,1,1.13370599062,2018_Nov_28_1540,59.9890717935,spanish_cond2,001,1064,
images/dryingmachine01.jpg,drying machine,z,sounds/greatgatsby_spanish.wav,,,,,,,,,0,0,0,0,0,126,126,18,400.518703527,9.30088572204e-06,401.281365299,0.762672035024,,,,,z,1,0.750452858862,2018_Nov_28_1540,59.9890717935,spanish_cond2,001,1064,
images/teapot.jpg,light switch,x,sounds/greatgatsby_spanish.wav,,,,,,,,,0,0,0,0,0,127,127,197,402.398328655,9.621726349e-06,403.531929449,1.13361105695,,,,,x,1,1.1172151221,2018_Nov_28_1540,59.9890717935,spanish_cond2,001,1064,
images/mushroom01.jpg,shower head,x,sounds/greatgatsby_spanish.wav,,,,,,,,,0,0,0,0,0,128,128,222,404.649375491,9.30088572204e-06,405.982556267,1.33319071913,,,,,x,1,1.31727201841,2018_Nov_28_1540,59.9890717935,spanish_cond2,001,1064,
images/umbrella01.jpg,umbrella,z,sounds/greatgatsby_spanish.wav,,,,,,,,,0,0,0,0,0,129,129,53,407.095606177,9.30088572204e-06,409.200012636,2.10441640182,,,,,x,0,2.08410798316,2018_Nov_28_1540,59.9890717935,spanish_cond2,001,1064,
images/cockroach02.jpg,belt,x,sounds/greatgatsby_spanish.wav,,,,,,,,,0,0,0,0,0,130,130,129,410.299400443,8.98027792573e-06,411.133846787,0.834456286859,,,,,x,1,0.817132504191,2018_Nov_28_1540,59.9890717935,spanish_cond2,001,1064,
images/magnifyingglass01b.jpg,magnifying glass,z,sounds/greatgatsby_spanish.wav,,,,,,,,,0,0,0,0,0,131,131,64,412.241355588,9.94233414531e-06,413.334399198,1.09305387363,,,,,z,1,1.08386231051,2018_Nov_28_1540,59.9890717935,spanish_cond2,001,1064,
images/rubberglove02a.jpg,lady bug,x,sounds/greatgatsby_spanish.wav,,,,,,,,,0,0,0,0,0,132,132,192,414.439372373,9.30111855268e-06,416.301816119,1.86245432938,,,,,x,1,1.85064375261,2018_Nov_28_1540,59.9890717935,spanish_cond2,001,1064,
images/coffeepot03b.jpg,coffee pot,z,sounds/greatgatsby_spanish.wav,,,,,,,,,0,0,0,0,0,133,133,107,417.424183314,9.62149351835e-06,418.852468338,1.42829528707,,,,,z,1,1.4172890808,2018_Nov_28_1540,59.9890717935,spanish_cond2,001,1064,
images/worldmap.jpg,scooter,x,sounds/greatgatsby_spanish.wav,,,,,,,,,0,0,0,0,0,134,134,220,419.983781104,9.30088572204e-06,421.003010294,1.01923945337,,,,,x,1,1.00051828614,2018_Nov_28_1540,59.9890717935,spanish_cond2,001,1064,
images/straw.jpg,straw,z,sounds/greatgatsby_spanish.wav,,,,,,,,,0,0,0,0,0,135,135,109,422.094508988,8.98027792573e-06,422.986835657,0.892336611636,,,,,z,1,0.883805093588,2018_Nov_28_1540,59.9890717935,spanish_cond2,001,1064,
images/banjo.jpg,knife,x,sounds/greatgatsby_spanish.wav,,,,,,,,,0,0,0,0,0,136,136,191,424.083573981,9.30088572204e-06,425.22074986,1.13718614168,,,,,x,1,1.11720004817,2018_Nov_28_1540,59.9890717935,spanish_cond2,001,1064,
images/calculator02b.jpg,dice,x,sounds/greatgatsby_spanish.wav,,,,,,,,,0,0,0,0,0,137,137,165,426.323439817,8.98027792573e-06,427.137886919,0.814457044005,,,,,x,1,0.800450485665,2018_Nov_28_1540,59.9890717935,spanish_cond2,001,1064,
images/handfan01b.jpg,handfan,z,sounds/greatgatsby_spanish.wav,,,,,,,,,0,0,0,0,0,138,138,69,428.253042366,9.30111855268e-06,429.121713885,0.868681141175,,,,,x,0,0.850463827839,2018_Nov_28_1540,59.9890717935,spanish_cond2,001,1064,
images/cloud.jpg,ceiling fan,x,sounds/greatgatsby_spanish.wav,,,,,,,,,0,0,0,0,0,139,139,149,430.227405156,9.30111855268e-06,431.155394475,0.92799894046,,,,,x,1,0.916968679754,2018_Nov_28_1540,59.9890717935,spanish_cond2,001,1064,
images/coin01b.jpg,arrow,x,sounds/greatgatsby_spanish.wav,,,,,,,,,0,0,0,0,0,140,140,124,432.25893242,9.30111855268e-06,432.956033865,0.697111708811,,,,,x,1,0.683766799513,2018_Nov_28_1540,59.9890717935,spanish_cond2,001,1064,
images/candle08a.jpg,screw driver,x,sounds/greatgatsby_spanish.wav,,,,,,,,,0,0,0,0,0,141,141,221,434.070052355,8.98027792573e-06,434.989888286,0.919846194563,,,,,x,1,0.900463057915,2018_Nov_28_1540,59.9890717935,spanish_cond2,001,1064,
images/flower01.jpg,bus,x,sounds/greatgatsby_spanish.wav,,,,,,,,,0,0,0,0,0,142,142,140,436.104451681,9.30088572204e-06,436.973708518,0.869266778929,,,,,x,1,0.850466714241,2018_Nov_28_1540,59.9890717935,spanish_cond2,001,1064,
images/cigar.jpg,crocodile,x,sounds/greatgatsby_spanish.wav,,,,,,,,,0,0,0,0,0,143,143,162,438.072800298,8.98027792573e-06,438.807502835,0.734712479403,,,,,x,1,0.717099405592,2018_Nov_28_1540,59.9890717935,spanish_cond2,001,1064,
images/screwdriver02b.jpg,cola,x,sounds/greatgatsby_spanish.wav,,,,,,,,,0,0,0,0,0,144,144,158,439.901465955,9.30088572204e-06,440.64130517,0.739849478938,,,,,x,1,0.717101650778,2018_Nov_28_1540,59.9890717935,spanish_cond2,001,1064,
images/scissors04a.jpg,leek,x,sounds/greatgatsby_spanish.wav,,,,,,,,,0,0,0,0,0,145,145,194,441.735598313,9.30088572204e-06,443.258637356,1.52304898575,,,,,x,1,1.50064176414,2018_Nov_28_1540,59.9890717935,spanish_cond2,001,1064,
images/beachumbrella01.jpg,beach umbrella,z,sounds/greatgatsby_spanish.wav,,,,,,,,,0,0,0,0,0,146,146,92,444.36633442,9.30088572204e-06,446.026004115,1.65967931692,,,,,z,1,1.6506776209,2018_Nov_28_1540,59.9890717935,spanish_cond2,001,1064,
images/spoon02b.jpg,spoon,z,sounds/greatgatsby_spanish.wav,,,,,,,,,0,0,0,0,0,147,147,38,447.117997042,8.98027792573e-06,449.026760377,1.90877327812,,,,,z,1,1.88406167109,2018_Nov_28_1540,59.9890717935,spanish_cond2,001,1064,
images/razor04a.jpg,razor,z,sounds/greatgatsby_spanish.wav,,,,,,,,,0,0,0,0,0,148,148,36,450.127106179,9.94256697595e-06,450.977248003,0.850153048523,,,,,z,1,0.833789827069,2018_Nov_28_1540,59.9890717935,spanish_cond2,001,1064,
images/tissuebox03.jpg,tissue box,z,sounds/greatgatsby_spanish.wav,,,,,,,,,0,0,0,0,0,149,149,58,452.103179378,9.94256697595e-06,452.844402829,0.741234355373,,,,,z,1,0.717107744655,2018_Nov_28_1540,59.9890717935,spanish_cond2,001,1064,
images/screw03c.jpg,screw,z,sounds/greatgatsby_spanish.wav,,,,,,,,,0,0,0,0,0,150,150,84,453.939282571,9.30111855268e-06,455.661774912,1.72250228352,,,,,z,1,1.70069288719,2018_Nov_28_1540,59.9890717935,spanish_cond2,001,1064,
images/leek.jpg,donut,x,sounds/greatgatsby_spanish.wav,,,,,,,,,0,0,0,0,0,151,151,169,456.762932782,9.621726349e-06,457.7289799,0.966057060286,,,,,x,1,0.950494039571,2018_Nov_28_1540,59.9890717935,spanish_cond2,001,1064,
images/fryingpan01.jpg,frying pan,z,sounds/greatgatsby_spanish.wav,,,,,,,,,0,0,0,0,0,152,152,45,458.884047559,8.65943729877e-06,459.512747405,0.628709467128,,,,,z,1,0.617086191894,2018_Nov_28_1540,59.9890717935,spanish_cond2,001,1064,
images/barrel01.jpg,barrel,z,sounds/greatgatsby_spanish.wav,,,,,,,,,0,0,0,0,0,153,153,9,460.643067857,9.30088572204e-06,461.263198019,0.620140104089,,,,,z,1,0.600414757151,2018_Nov_28_1540,59.9890717935,spanish_cond2,001,1064,
images/globe.jpg,cloud,x,sounds/greatgatsby_spanish.wav,,,,,,,,,0,0,0,0,0,154,154,154,462.391227556,9.94233414531e-06,463.130361825,0.739144532476,,,,,x,1,0.71713628876,2018_Nov_28_1540,59.9890717935,spanish_cond2,001,1064,
images/dice05a.jpg,band aid,x,sounds/greatgatsby_spanish.wav,,,,,,,,,0,0,0,0,0,155,155,126,464.243181457,8.98027792573e-06,465.030813658,0.787642464507,,,,,x,1,0.767120765755,2018_Nov_28_1540,59.9890717935,spanish_cond2,001,1064,
images/sunglasses03a.jpg,sun glasses,z,sounds/greatgatsby_spanish.wav,,,,,,,,,0,0,0,0,0,156,156,17,466.140515874,9.621726349e-06,467.114671799,0.974165546242,,,,,z,1,0.95049500186,2018_Nov_28_1540,59.9890717935,spanish_cond2,001,1064,
images/cat.jpg,black olive,x,sounds/greatgatsby_spanish.wav,,,,,,,,,0,0,0,0,0,157,157,133,468.245255243,8.98027792573e-06,469.065162952,0.8199179722,,,,,x,1,0.8004533723,2018_Nov_28_1540,59.9890717935,spanish_cond2,001,1064,
images/ant.jpg,ant,z,sounds/greatgatsby_spanish.wav,,,,,,,,,0,0,0,0,0,158,158,98,470.159876561,9.62149351835e-06,471.582470699,1.42260408052,,,,,z,1,1.40060898638,2018_Nov_28_1540,59.9890717935,spanish_cond2,001,1064,
images/bull.jpg,button,x,sounds/greatgatsby_spanish.wav,,,,,,,,,0,0,0,0,0,159,159,141,472.689186996,9.30088572204e-06,474.149777355,1.46059998032,,,,,x,1,1.45061559323,2018_Nov_28_1540,59.9890717935,spanish_cond2,001,1064,
images/cauliflower01.jpg,glue stick,x,sounds/greatgatsby_spanish.wav,,,,,,,,,0,0,0,0,0,160,160,181,475.265996636,9.621726349e-06,476.050254845,0.784268472344,,,,,x,1,0.767104729777,2018_Nov_28_1540,59.9890717935,spanish_cond2,001,1064,
images/lighter02b.jpg,stapler,x,sounds/greatgatsby_spanish.wav,,,,,,,,,0,0,0,0,0,161,161,227,477.152422026,8.98004509509e-06,477.884059105,0.73164702137,,,,,x,1,0.717028846964,2018_Nov_28_1540,59.9890717935,spanish_cond2,001,1064,
images/cocktailshrimp01.jpg,cocktail shrimp,z,sounds/greatgatsby_spanish.wav,,,,,,,,,0,0,0,0,0,162,162,30,478.998936808,8.65943729877e-06,479.967922378,0.968995191623,,,,,z,1,0.950486663263,2018_Nov_28_1540,59.9890717935,spanish_cond2,001,1064,
images/paperclip04.jpg,eye drops,x,sounds/greatgatsby_spanish.wav,,,,,,,,,0,0,0,0,0,163,163,174,481.075288136,8.98004509509e-06,481.768388258,0.693110063905,,,,,x,1,0.683770968812,2018_Nov_28_1540,59.9890717935,spanish_cond2,001,1064,
images/leaf01a.jpg,leaf,z,sounds/greatgatsby_spanish.wav,,,,,,,,,0,0,0,0,0,164,164,68,482.872383552,8.98004509509e-06,483.552166668,0.679793057498,,,,,z,1,0.667094402481,2018_Nov_28_1540,59.9890717935,spanish_cond2,001,1064,
images/lip.jpg,boxing glove,x,sounds/greatgatsby_spanish.wav,,,,,,,,,0,0,0,0,0,165,165,136,484.655482673,8.98027792573e-06,485.252599129,0.597126076929,,,,,x,1,0.583739153342,2018_Nov_28_1540,59.9890717935,spanish_cond2,001,1064,
images/cola.jpg,comb,x,sounds/greatgatsby_spanish.wav,,,,,,,,,0,0,0,0,0,166,166,157,486.374457339,9.62149351835e-06,487.269780511,0.895333114313,,,,,x,1,0.883819846669,2018_Nov_28_1540,59.9890717935,spanish_cond2,001,1064,
images/pineapple01a.jpg,pineapple,z,sounds/greatgatsby_spanish.wav,,,,,,,,,0,0,0,0,0,167,167,51,488.383314069,8.65943729877e-06,489.220263005,0.836959199049,,,,,z,1,0.817125127651,2018_Nov_28_1540,59.9890717935,spanish_cond2,001,1064,
images/marker01a.jpg,marker,z,sounds/greatgatsby_spanish.wav,,,,,,,,,0,0,0,0,0,168,168,95,490.31939263,9.621726349e-06,491.17075095,0.851368904347,,,,,z,1,0.833778922679,2018_Nov_28_1540,59.9890717935,spanish_cond2,001,1064,
images/corkscrew02a.jpg,masquerade mask,x,sounds/greatgatsby_spanish.wav,,,,,,,,,0,0,0,0,0,169,169,201,492.27587294,9.621726349e-06,493.254618392,0.978757639648,,,,,x,1,0.967145910487,2018_Nov_28_1540,59.9890717935,spanish_cond2,001,1064,
images/belt02a.jpg,snowman,x,sounds/greatgatsby_spanish.wav,,,,,,,,,0,0,0,0,0,170,170,224,494.358449798,8.98027792573e-06,495.388486668,1.03004649188,,,,,x,1,1.0171778542,2018_Nov_28_1540,59.9890717935,spanish_cond2,001,1064,
images/nametag01a.jpg,name tag,z,sounds/greatgatsby_spanish.wav,,,,,,,,,0,0,0,0,0,171,171,108,496.510577402,9.621726349e-06,497.172272454,0.661704994971,,,,,x,0,0.650409176713,2018_Nov_28_1540,59.9890717935,spanish_cond2,001,1064,
images/plant01.jpg,plant,z,sounds/greatgatsby_spanish.wav,,,,,,,,,0,0,0,0,0,172,172,47,498.284762384,9.30111855268e-06,499.206312573,0.921569432598,,,,,z,1,0.900618928717,2018_Nov_28_1540,59.9890717935,spanish_cond2,001,1064,
images/chessknight02b (1).jpg,cockroach,x,sounds/greatgatsby_spanish.wav,,,,,,,,,0,0,0,0,0,173,173,155,500.316285478,9.621726349e-06,501.656744713,1.34046981903,,,,,x,1,1.31725181267,2018_Nov_28_1540,59.9890717935,spanish_cond2,001,1064,
images/desktopcomputer.jpg,desktop computer,z,sounds/greatgatsby_spanish.wav,,,,,,,,,0,0,0,0,0,174,174,16,502.792858361,8.98027792573e-06,504.257395201,1.46454710257,,,,,z,1,1.45060533029,2018_Nov_28_1540,59.9890717935,spanish_cond2,001,1064,
images/bowl02b (1).jpg,bowl,z,sounds/greatgatsby_spanish.wav,,,,,,,,,0,0,0,0,0,175,175,24,505.376872052,8.98027792573e-06,506.141209916,0.764347485267,,,,,z,1,0.750440350967,2018_Nov_28_1540,59.9890717935,spanish_cond2,001,1064,
images/djmixer01.jpg,light bulb,x,sounds/greatgatsby_spanish.wav,,,,,,,,,0,0,0,0,0,176,176,196,507.263237788,8.98027792573e-06,508.591837376,1.32860920974,,,,,x,1,1.31726207584,2018_Nov_28_1540,59.9890717935,spanish_cond2,001,1064,
images/sock03.jpg,sock,z,sounds/greatgatsby_spanish.wav,,,,,,,,,0,0,0,0,0,177,177,90,509.698410631,9.30111855268e-06,510.942423399,1.24402270978,,,,,z,1,1.23389816703,2018_Nov_28_1540,59.9890717935,spanish_cond2,001,1064,
images/bandaid01.jpg,door handle,x,sounds/greatgatsby_spanish.wav,,,,,,,,,0,0,0,0,0,178,178,170,512.050455938,9.621726349e-06,513.293033796,1.24258812144,,,,,x,1,1.23390939226,2018_Nov_28_1540,59.9890717935,spanish_cond2,001,1064,
images/microphone01.jpg,diaper,x,sounds/greatgatsby_spanish.wav,,,,,,,,,0,0,0,0,0,179,179,164,514.392934758,9.62149351835e-06,515.160170021,0.767245205818,,,,,x,1,0.750451576198,2018_Nov_28_1540,59.9890717935,spanish_cond2,001,1064,
images/comb02a.jpg,diploma,x,sounds/greatgatsby_spanish.wav,,,,,,,,,0,0,0,0,0,180,180,166,516.265898175,8.98004509509e-06,517.294055936,1.02816834557,,,,,x,1,1.0171961356,2018_Nov_28_1540,59.9890717935,spanish_cond2,001,1064,
images/lychee02a.jpg,lychee,z,sounds/greatgatsby_spanish.wav,,,,,,,,,0,0,0,0,0,181,181,62,518.418660166,8.98027792573e-06,519.494686283,1.07603605953,,,,,x,0,1.06729029934,2018_Nov_28_1540,59.9890717935,spanish_cond2,001,1064,
images/flamingo.jpg,flamingo,z,sounds/greatgatsby_spanish.wav,,,,,,,,,0,0,0,0,0,182,182,52,520.593727389,9.30088572204e-06,523.562281268,2.96856382093,,,,,z,1,2.95099340356,2018_Nov_28_1540,59.9890717935,spanish_cond2,001,1064,
images/licenseplate.jpg,license plate,z,sounds/greatgatsby_spanish.wav,,,,,,,,,0,0,0,0,0,183,183,40,524.680171509,1.02631747723e-05,526.379665218,1.69950397196,,,,,x,0,1.6840099066,2018_Nov_28_1540,59.9890717935,spanish_cond2,001,1064,
images/broom02.jpg,broom,z,sounds/greatgatsby_spanish.wav,,,,,,,,,0,0,0,0,0,184,184,116,527.473676125,9.621726349e-06,528.21348391,0.739818048198,,,,,z,1,0.717124422081,2018_Nov_28_1540,59.9890717935,spanish_cond2,001,1064,
images/wallet01.jpg,lamp,x,sounds/greatgatsby_spanish.wav,,,,,,,,,0,0,0,0,0,185,185,193,529.319288395,9.30088572204e-06,530.180621482,0.861342707649,,,,,x,1,0.85046286555,2018_Nov_28_1540,59.9890717935,spanish_cond2,001,1064,
images/doorhandle.jpg,doll,x,sounds/greatgatsby_spanish.wav,,,,,,,,,0,0,0,0,0,186,186,168,531.284732556,8.98027792573e-06,531.99776457,0.713041955605,,,,,x,1,0.700433423277,2018_Nov_28_1540,59.9890717935,spanish_cond2,001,1064,
images/fireextinguisher02.jpg,fire extinguisher,z,sounds/greatgatsby_spanish.wav,,,,,,,,,0,0,0,0,0,187,187,175,533.109491181,9.621726349e-06,533.948242573,0.838761334307,,,,,z,1,0.817118392326,2018_Nov_28_1540,59.9890717935,spanish_cond2,001,1064,
images/feather03b.jpg,feather,z,sounds/greatgatsby_spanish.wav,,,,,,,,,0,0,0,0,0,188,188,114,535.0495236,8.98004509509e-06,536.465547113,1.41603377578,,,,,z,1,1.40060225106,2018_Nov_28_1540,59.9890717935,spanish_cond2,001,1064,
images/cookingpot.jpg,grasshopper,x,sounds/greatgatsby_spanish.wav,,,,,,,,,0,0,0,0,0,189,189,183,537.579944053,8.98027792573e-06,540.249863693,2.66992958239,,,,,z,0,2.65094189555,2018_Nov_28_1540,59.9890717935,spanish_cond2,001,1064,
images/highheelshoe02a.jpg,high heel shoe,z,sounds/greatgatsby_spanish.wav,,,,,,,,,0,0,0,0,0,190,190,75,541.357697706,9.30088572204e-06,542.1838117,0.826123937033,,,,,z,1,0.817279715557,2018_Nov_28_1540,59.9890717935,spanish_cond2,001,1064,
images/corn01.jpg,corn,z,sounds/greatgatsby_spanish.wav,,,,,,,,,0,0,0,0,0,191,191,22,543.284504203,9.30088572204e-06,544.117501847,0.833008228568,,,,,z,1,0.81712993863,2018_Nov_28_1540,59.9890717935,spanish_cond2,001,1064,
images/bicycle.jpg,hand bag,x,sounds/greatgatsby_spanish.wav,,,,,,,,,0,0,0,0,0,192,192,186,545.227842621,9.94233414531e-06,546.001296678,0.77346432046,,,,,x,1,0.750444840873,2018_Nov_28_1540,59.9890717935,spanish_cond2,001,1064,
images/beermug01b.jpg,beer mug,z,sounds/greatgatsby_spanish.wav,,,,,,,,,0,0,0,0,0,193,193,111,547.118336044,8.98027792573e-06,549.018736241,1.90041045961,,,,,z,1,1.88406359521,2018_Nov_28_1540,59.9890717935,spanish_cond2,001,1064,
images/swallow.jpg,mattress,x,sounds/greatgatsby_spanish.wav,,,,,,,,,0,0,0,0,0,194,194,202,550.120828052,9.30088572204e-06,550.969215527,0.848397738533,,,,,x,1,0.833786299219,2018_Nov_28_1540,59.9890717935,spanish_cond2,001,1064,
images/dragonfly02.jpg,dragon fly,z,sounds/greatgatsby_spanish.wav,,,,,,,,,0,0,0,0,0,195,195,29,552.067589212,8.98027792573e-06,552.853048524,0.785469254479,,,,,z,1,0.767119482858,2018_Nov_28_1540,59.9890717935,spanish_cond2,001,1064,
images/gorilla.jpg,gorilla,z,sounds/greatgatsby_spanish.wav,,,,,,,,,0,0,0,0,0,196,196,80,553.964783795,8.98027792573e-06,556.953900746,2.98912657215,,,,,None,0,,2018_Nov_28_1540,59.9890717935,spanish_cond2,001,1064,
images/lipstick04.jpg,lipstick,z,sounds/greatgatsby_spanish.wav,,,,,,,,,0,0,0,0,0,197,197,56,558.054788567,8.98027792573e-06,558.77119329,0.716414344264,,,,,z,1,0.700427650241,2018_Nov_28_1540,59.9890717935,spanish_cond2,001,1064,
images/parkbench03.jpg,park bench,z,sounds/greatgatsby_spanish.wav,,,,,,,,,0,0,0,0,0,198,198,71,559.877111952,9.30088572204e-06,560.454949826,0.577847495442,,,,,z,1,0.567058417713,2018_Nov_28_1540,59.9890717935,spanish_cond2,001,1064,
images/button07.jpg,radish,x,sounds/greatgatsby_spanish.wav,,,,,,,,,0,0,0,0,0,199,199,215,561.56750839,8.98027792573e-06,562.388778846,0.82128039794,,,,,x,1,0.800451768562,2018_Nov_28_1540,59.9890717935,spanish_cond2,001,1064,
,,,sounds/greatgatsby_spanish.wav,,,,,,,,,0,0,0,0,,,,,,,,,,,,,,,,2018_Nov_28_1540,59.9890717935,spanish_cond2,001,1064,
images/highlighter03b.jpg,coin,x,sounds/animalfarm_english.wav,,,,,,,,,0,1,1,1,0,0,0,156,583.517563683,8.98004509509e-06,584.694436248,1.17688347027,,,,573.391835965,x,1,1.16722846404,2018_Nov_28_1540,59.9890717935,spanish_cond2,001,1064,
images/computermouse02a.jpg,world map,x,sounds/animalfarm_english.wav,,,,,,,,,0,1,1,1,0,1,1,239,585.793861258,9.621726349e-06,586.611585173,0.817734498996,,,,,x,1,0.800452089403,2018_Nov_28_1540,59.9890717935,spanish_cond2,001,1064,
images/scissors04a.jpg,leek,x,sounds/animalfarm_english.wav,,,,,,,,,0,1,1,1,0,2,2,194,587.70301395,8.98004509509e-06,588.395359093,0.692354764324,,,,,x,1,0.683757498395,2018_Nov_28_1540,59.9890717935,spanish_cond2,001,1064,
images/clothespin02a.jpg,clothes pin,z,sounds/animalfarm_english.wav,,,,,,,,,0,1,1,1,0,3,3,79,589.497872012,9.621726349e-06,590.629265598,1.13140385039,,,,,z,1,1.1172067835,2018_Nov_28_1540,59.9890717935,spanish_cond2,001,1064,
images/lollipop03b.jpg,lollipop,z,sounds/animalfarm_english.wav,,,,,,,,,0,1,1,1,0,4,4,42,591.719906683,9.30088572204e-06,592.31301572,0.593118659453,,,,,z,1,0.58372343774,2018_Nov_28_1540,59.9890717935,spanish_cond2,001,1064,
images/basketball01.jpg,basket ball,z,sounds/animalfarm_english.wav,,,,,,,,,0,1,1,1,0,5,5,33,593.44977851,9.30088572204e-06,594.513588337,1.06382009061,,,,,z,1,1.05052777962,2018_Nov_28_1540,59.9890717935,spanish_cond2,001,1064,
images/knife04.jpg,tooth brush,x,sounds/animalfarm_english.wav,,,,,,,,,0,1,1,1,0,6,6,233,595.609452053,9.30088572204e-06,596.330714748,0.721272636438,,,,,x,1,0.700421556598,2018_Nov_28_1540,59.9890717935,spanish_cond2,001,1064,
images/mattress.jpg,cat,x,sounds/animalfarm_english.wav,,,,,,,,,0,1,1,1,0,7,7,147,597.432781863,9.30088572204e-06,598.247851485,0.815079564694,,,,,x,1,0.80046074884,2018_Nov_28_1540,59.9890717935,spanish_cond2,001,1064,
images/dragonfly02.jpg,dragon fly,z,sounds/animalfarm_english.wav,,,,,,,,,0,1,1,1,0,8,8,29,599.34323893,9.30088572204e-06,600.481754463,1.13852579612,,,,,z,1,1.1172080664,2018_Nov_28_1540,59.9890717935,spanish_cond2,001,1064,
images/butterfly.jpg,butterfly,z,sounds/animalfarm_english.wav,,,,,,,,,0,1,1,1,0,9,9,91,601.587196533,9.30111855268e-06,602.515605035,0.928419085918,,,,,z,1,0.917152132373,2018_Nov_28_1540,59.9890717935,spanish_cond2,001,1064,
images/pepper05a.jpg,lighter,x,sounds/animalfarm_english.wav,,,,,,,,,0,1,1,1,0,10,10,198,603.634494004,9.621726349e-06,604.649471707,1.01498796651,,,,,x,1,1.00050641946,2018_Nov_28_1540,59.9890717935,spanish_cond2,001,1064,
images/razor04a.jpg,razor,z,sounds/animalfarm_english.wav,,,,,,,,,0,1,1,1,0,11,11,36,605.747016967,9.30088572204e-06,606.433267436,0.686260731192,,,,,z,1,0.667089912342,2018_Nov_28_1540,59.9890717935,spanish_cond2,001,1064,
images/pingpongpaddle01c (1).jpg,ping pong paddle,z,sounds/animalfarm_english.wav,,,,,,,,,0,1,1,1,0,12,12,10,607.543825979,9.30088572204e-06,608.550461069,1.00664567435,,,,,x,0,0.983834664105,2018_Nov_28_1540,59.9890717935,spanish_cond2,001,1064,
images/ashtray02b.jpg,ashtray,z,sounds/animalfarm_english.wav,,,,,,,,,0,1,1,1,0,13,13,43,609.662630918,9.30111855268e-06,610.517636486,0.855015830835,,,,,x,0,0.833807146177,2018_Nov_28_1540,59.9890717935,spanish_cond2,001,1064,
images/candy.jpg,candy,z,sounds/animalfarm_english.wav,,,,,,,,,0,1,1,1,0,14,14,31,611.618198134,9.30088572204e-06,613.101621312,1.48343344126,,,,,z,1,1.4672966497,2018_Nov_28_1540,59.9890717935,spanish_cond2,001,1064,
images/sock03.jpg,sock,z,sounds/animalfarm_english.wav,,,,,,,,,0,1,1,1,0,15,15,90,614.205661508,8.98004509509e-06,617.002594959,2.79694339377,,,,,z,1,2.78428482916,2018_Nov_28_1540,59.9890717935,spanish_cond2,001,1064,
images/hairpin.jpg,hair pin,z,sounds/animalfarm_english.wav,,,,,,,,,0,1,1,1,0,16,16,28,618.091747895,9.621726349e-06,618.953107921,0.861370610772,,,,,z,1,0.850431755651,2018_Nov_28_1540,59.9890717935,spanish_cond2,001,1064,
images/key03b.jpg,cigar,x,sounds/animalfarm_english.wav,,,,,,,,,0,1,1,1,0,17,17,153,620.053430311,9.30088572204e-06,621.053624348,1.00020429981,,,,,x,1,0.9838330606,2018_Nov_28_1540,59.9890717935,spanish_cond2,001,1064,
images/belt02a.jpg,snowman,x,sounds/animalfarm_english.wav,,,,,,,,,0,1,1,1,0,18,18,224,622.154948351,8.65943729877e-06,623.204162775,1.04922404606,,,,,x,1,1.0338348567,2018_Nov_28_1540,59.9890717935,spanish_cond2,001,1064,
images/redfox.jpg,red fox,z,sounds/animalfarm_english.wav,,,,,,,,,0,1,1,1,0,19,19,1,624.314777124,8.98027792573e-06,625.071305094,0.756537911948,,,,,z,1,0.733764746692,2018_Nov_28_1540,59.9890717935,spanish_cond2,001,1064,
images/eyedrops.jpg,bicycle,x,sounds/animalfarm_english.wav,,,,,,,,,0,1,1,1,0,20,20,131,626.171557566,9.94233414531e-06,626.871766804,0.700219822582,,,,,x,1,0.683753970545,2018_Nov_28_1540,59.9890717935,spanish_cond2,001,1064,
images/cat.jpg,black olive,x,sounds/animalfarm_english.wav,,,,,,,,,0,1,1,1,0,21,21,133,628.001383914,9.30088572204e-06,628.788930483,0.787556831725,,,,,x,1,0.767123972997,2018_Nov_28_1540,59.9890717935,spanish_cond2,001,1064,
images/leaf01a.jpg,leaf,z,sounds/animalfarm_english.wav,,,,,,,,,0,1,1,1,0,22,22,68,629.890012662,8.98027792573e-06,630.606042461,0.716039741179,,,,,z,1,0.700430857483,2018_Nov_28_1540,59.9890717935,spanish_cond2,001,1064,
images/beermug01b.jpg,beer mug,z,sounds/animalfarm_english.wav,,,,,,,,,0,1,1,1,0,23,23,111,631.721350892,9.30088572204e-06,632.589875842,0.868535212474,,,,,z,1,0.850465751952,2018_Nov_28_1540,59.9890717935,spanish_cond2,001,1064,
images/bullet (2).jpg,rubber glove,x,sounds/animalfarm_english.wav,,,,,,,,,0,1,1,1,0,24,24,217,633.694754404,1.02631747723e-05,634.407010271,0.712266771356,,,,,x,1,0.700436951127,2018_Nov_28_1540,59.9890717935,spanish_cond2,001,1064,
images/lion.jpg,lion,z,sounds/animalfarm_english.wav,,,,,,,,,0,1,1,1,0,25,25,44,635.51753161,8.98004509509e-06,636.257472815,0.739951468306,,,,,z,1,0.717098764377,2018_Nov_28_1540,59.9890717935,spanish_cond2,001,1064,
images/cheetah.jpg,cheetah,z,sounds/animalfarm_english.wav,,,,,,,,,0,1,1,1,0,26,26,82,637.358824401,8.98004509509e-06,638.408065445,1.04925098643,,,,,z,1,1.0338941901,2018_Nov_28_1540,59.9890717935,spanish_cond2,001,1064,
images/squirrel.jpg,binder,x,sounds/animalfarm_english.wav,,,,,,,,,0,1,1,1,0,27,27,132,639.509326908,9.30088572204e-06,640.491891514,0.982574548572,,,,,x,1,0.967178944964,2018_Nov_28_1540,59.9890717935,spanish_cond2,001,1064,
images/bat.jpg,hand,x,sounds/animalfarm_english.wav,,,,,,,,,0,1,1,1,0,28,28,185,641.588805594,9.30088572204e-06,642.675779546,1.08698421554,,,,,x,1,1.067202101,2018_Nov_28_1540,59.9890717935,spanish_cond2,001,1064,
images/arrow02.jpg,hammer,x,sounds/animalfarm_english.wav,,,,,,,,,0,1,1,1,0,29,29,184,643.772164756,9.621726349e-06,644.509569373,0.737414559815,,,,,x,1,0.717100688722,2018_Nov_28_1540,59.9890717935,spanish_cond2,001,1064,
images/radio03a.jpg,radio,z,sounds/animalfarm_english.wav,,,,,,,,,0,1,1,1,0,30,30,37,645.621663853,9.621726349e-06,646.610089327,0.988435416948,,,,,z,1,0.96716387081,2018_Nov_28_1540,59.9890717935,spanish_cond2,001,1064,
images/swallow.jpg,mattress,x,sounds/animalfarm_english.wav,,,,,,,,,0,1,1,1,0,31,31,202,647.70999991,9.30088572204e-06,648.41054719,0.700557542732,,,,,x,1,0.683753970545,2018_Nov_28_1540,59.9890717935,spanish_cond2,001,1064,
images/banana04a.jpg,banana,z,sounds/animalfarm_english.wav,,,,,,,,,0,1,1,1,0,32,32,118,649.515727551,9.621726349e-06,650.244345676,0.728628388839,,,,,z,1,0.717059957096,2018_Nov_28_1540,59.9890717935,spanish_cond2,001,1064,
images/dreamcatcher.jpg,dream catcher,z,sounds/animalfarm_english.wav,,,,,,,,,0,1,1,1,0,33,33,48,651.341684071,8.98027792573e-06,652.128161033,0.78648690437,,,,,z,1,0.76711916225,2018_Nov_28_1540,59.9890717935,spanish_cond2,001,1064,
images/umbrella01.jpg,umbrella,z,sounds/animalfarm_english.wav,,,,,,,,,0,1,1,1,0,34,34,53,653.239665385,9.621726349e-06,654.045302902,0.805647780886,,,,,z,1,0.783780654659,2018_Nov_28_1540,59.9890717935,spanish_cond2,001,1064,
images/watermelon01.jpg,orange,x,sounds/animalfarm_english.wav,,,,,,,,,0,1,1,1,0,35,35,207,655.172522938,9.30088572204e-06,656.012468698,0.839955701958,,,,,x,1,0.817125127651,2018_Nov_28_1540,59.9890717935,spanish_cond2,001,1064,
images/candycane01a.jpg,lip,x,sounds/animalfarm_english.wav,,,,,,,,,0,1,1,1,0,36,36,200,657.104514863,9.94233414531e-06,658.279718714,1.17521443451,,,,,x,1,1.1505445214,2018_Nov_28_1540,59.9890717935,spanish_cond2,001,1064,
images/lighter02b.jpg,stapler,x,sounds/animalfarm_english.wav,,,,,,,,,0,1,1,1,0,37,37,227,659.37980858,9.30088572204e-06,660.180204543,0.800406225957,,,,,x,1,0.783790596994,2018_Nov_28_1540,59.9890717935,spanish_cond2,001,1064,
images/coin01b.jpg,arrow,x,sounds/animalfarm_english.wav,,,,,,,,,0,1,1,1,0,38,38,124,661.281453498,8.98004509509e-06,661.963970124,0.682526568417,,,,,x,1,0.667078045662,2018_Nov_28_1540,59.9890717935,spanish_cond2,001,1064,
images/apricot.jpg,apricot,z,sounds/animalfarm_english.wav,,,,,,,,,0,1,1,1,0,39,39,32,663.07890267,8.98004509509e-06,663.847781632,0.76888890448,,,,,z,1,0.750437464332,2018_Nov_28_1540,59.9890717935,spanish_cond2,001,1064,
images/glasses01b.jpg,calculator,x,sounds/animalfarm_english.wav,,,,,,,,,0,1,1,1,0,40,40,142,664.939205598,8.98027792573e-06,665.814947748,0.875751771731,,,,,x,1,0.86713558319,2018_Nov_28_1540,59.9890717935,spanish_cond2,001,1064,
images/camera01a.jpg,bull,x,sounds/animalfarm_english.wav,,,,,,,,,0,1,1,1,0,41,41,138,666.924242006,9.30088572204e-06,667.79881256,0.87458145828,,,,,x,1,0.850492051337,2018_Nov_28_1540,59.9890717935,spanish_cond2,001,1064,
images/highheelshoe02a.jpg,high heel shoe,z,sounds/animalfarm_english.wav,,,,,,,,,0,1,1,1,0,42,42,75,668.903554815,8.98027792573e-06,670.149378698,1.24583350448,,,,,z,1,1.23389624269,2018_Nov_28_1540,59.9890717935,spanish_cond2,001,1064,
images/hanger02a.jpg,hanger,z,sounds/animalfarm_english.wav,,,,,,,,,0,1,1,1,0,43,43,88,671.24113429,8.98027792573e-06,672.166562004,0.925437336089,,,,,z,1,0.917152773822,2018_Nov_28_1540,59.9890717935,spanish_cond2,001,1064,
images/handbag02a.jpg,candle,x,sounds/animalfarm_english.wav,,,,,,,,,0,1,1,1,0,44,44,144,673.281310135,8.98027792573e-06,674.483826325,1.20252645318,,,,,x,1,1.18389925756,2018_Nov_28_1540,59.9890717935,spanish_cond2,001,1064,
images/table02.jpg,table,z,sounds/animalfarm_english.wav,,,,,,,,,0,1,1,1,0,45,45,49,675.596852501,8.65943729877e-06,676.350947476,0.754105237778,,,,,z,1,0.73375063506,2018_Nov_28_1540,59.9890717935,spanish_cond2,001,1064,
images/teapot.jpg,light switch,x,sounds/animalfarm_english.wav,,,,,,,,,0,1,1,1,0,46,46,197,677.466278358,9.621726349e-06,678.418147973,0.951880198903,,,,,x,1,0.933830302441,2018_Nov_28_1540,59.9890717935,spanish_cond2,001,1064,
images/weight01.jpg,weight,z,sounds/animalfarm_english.wav,,,,,,,,,0,1,1,1,0,47,47,67,679.521211571,9.621726349e-06,680.602027667,1.08082635864,,,,,z,1,1.06717900885,2018_Nov_28_1540,59.9890717935,spanish_cond2,001,1064,
images/globe.jpg,cloud,x,sounds/animalfarm_english.wav,,,,,,,,,0,1,1,1,0,48,48,154,681.728280726,8.98027792573e-06,682.469162929,0.74089439027,,,,,x,1,0.717097481247,2018_Nov_28_1540,59.9890717935,spanish_cond2,001,1064,
images/cactus.jpg,cactus,z,sounds/animalfarm_english.wav,,,,,,,,,0,1,1,1,0,49,49,70,683.58109801,9.621726349e-06,684.302965265,0.721878159093,,,,,z,1,0.700434064958,2018_Nov_28_1540,59.9890717935,spanish_cond2,001,1064,
images/puzzle.jpg,puzzle,z,sounds/animalfarm_english.wav,,,,,,,,,0,1,1,1,0,50,50,57,685.425229508,8.65967012942e-06,686.170094112,0.744874225929,,,,,z,1,0.733762180898,2018_Nov_28_1540,59.9890717935,spanish_cond2,001,1064,
images/doll.jpg,carrot,x,sounds/animalfarm_english.wav,,,,,,,,,0,1,1,1,0,51,51,146,687.282742799,9.621726349e-06,688.070583149,0.787850933615,,,,,x,1,0.767109540757,2018_Nov_28_1540,59.9890717935,spanish_cond2,001,1064,
images/puma.jpg,puma,z,sounds/animalfarm_english.wav,,,,,,,,,0,1,1,1,0,52,52,4,689.169578713,9.621726349e-06,689.821039857,0.651471727761,,,,,z,1,0.633753777947,2018_Nov_28_1540,59.9890717935,spanish_cond2,001,1064,
images/charcoalbarbecue.jpg,charcoal barbecue,z,sounds/animalfarm_english.wav,,,,,,,,,0,1,1,1,0,53,53,77,690.938354403,8.98027792573e-06,691.73817018,0.799825719791,,,,,z,1,0.783719717525,2018_Nov_28_1540,59.9890717935,spanish_cond2,001,1064,
images/egg01b (1).jpg,egg,z,sounds/animalfarm_english.wav,,,,,,,,,0,1,1,1,0,54,54,19,692.85129161,9.30111855268e-06,693.488626567,0.637345219729,,,,,z,1,0.617084267549,2018_Nov_28_1540,59.9890717935,spanish_cond2,001,1064,
images/cherry01.jpg,highlighter,x,sounds/animalfarm_english.wav,,,,,,,,,0,1,1,1,0,55,55,187,694.596436205,9.30088572204e-06,695.289103673,0.69267773116,,,,,x,1,0.683777703904,2018_Nov_28_1540,59.9890717935,spanish_cond2,001,1064,
images/sunglasses03a.jpg,sun glasses,z,sounds/animalfarm_english.wav,,,,,,,,,0,1,1,1,0,56,56,17,696.396285016,9.30088572204e-06,697.256242527,0.85996777378,,,,,z,1,0.850468638586,2018_Nov_28_1540,59.9890717935,spanish_cond2,001,1064,
images/desktopcomputer.jpg,desktop computer,z,sounds/animalfarm_english.wav,,,,,,,,,0,1,1,1,0,57,57,16,698.390708628,9.62149351835e-06,699.423500818,1.03280213266,,,,,z,1,1.01721185073,2018_Nov_28_1540,59.9890717935,spanish_cond2,001,1064,
images/axe01.jpg,axe,z,sounds/animalfarm_english.wav,,,,,,,,,0,1,1,1,0,58,58,104,700.52781491,9.94233414531e-06,701.474004544,0.946199576138,,,,,x,0,0.933848583605,2018_Nov_28_1540,59.9890717935,spanish_cond2,001,1064,
images/notebook02b.jpg,notebook,z,sounds/animalfarm_english.wav,,,,,,,,,0,1,1,1,0,59,59,7,702.579343662,9.30111855268e-06,703.324457146,0.745123747271,,,,,z,1,0.733782386407,2018_Nov_28_1540,59.9890717935,spanish_cond2,001,1064,
images/floorlamp.jpg,floor lamp,z,sounds/animalfarm_english.wav,,,,,,,,,0,1,1,1,0,60,60,26,704.415352563,8.98027792573e-06,705.4583158,1.04297382152,,,,,z,1,1.03381048166,2018_Nov_28_1540,59.9890717935,spanish_cond2,001,1064,
images/broom02.jpg,broom,z,sounds/animalfarm_english.wav,,,,,,,,,0,1,1,1,0,61,61,116,706.550090315,9.30088572204e-06,707.158748262,0.608668209519,,,,,z,1,0.600404494209,2018_Nov_28_1540,59.9890717935,spanish_cond2,001,1064,
images/plate01b.jpg,plate,z,sounds/animalfarm_english.wav,,,,,,,,,0,1,1,1,0,62,62,3,708.256377872,9.30088572204e-06,709.092588827,0.83622185979,,,,,z,1,0.817145012319,2018_Nov_28_1540,59.9890717935,spanish_cond2,001,1064,
images/cupcake.jpg,scissors,x,sounds/animalfarm_english.wav,,,,,,,,,0,1,1,1,0,63,63,219,710.210073997,9.94233414531e-06,710.95970645,0.74964303663,,,,,x,1,0.733761860291,2018_Nov_28_1540,59.9890717935,spanish_cond2,001,1064,
images/coffeepot03b.jpg,coffee pot,z,sounds/animalfarm_english.wav,,,,,,,,,0,1,1,1,0,64,64,107,712.079612427,9.30111855268e-06,712.776863329,0.697261165129,,,,,z,1,0.683782514883,2018_Nov_28_1540,59.9890717935,spanish_cond2,001,1064,
images/hat05.jpg,hat,z,sounds/animalfarm_english.wav,,,,,,,,,0,1,1,1,0,65,65,15,713.879395491,9.30111855268e-06,714.593981721,0.714595852187,,,,,x,0,0.700439196313,2018_Nov_28_1540,59.9890717935,spanish_cond2,001,1064,
images/gps.jpg,gps,z,sounds/animalfarm_english.wav,,,,,,,,,0,1,1,1,0,66,66,21,715.71226613,1.02631747723e-05,716.794513927,1.08225806034,,,,,z,1,1.06717932946,2018_Nov_28_1540,59.9890717935,spanish_cond2,001,1064,
images/djmixer01.jpg,light bulb,x,sounds/animalfarm_english.wav,,,,,,,,,0,1,1,1,0,67,67,196,717.914344535,8.98027792573e-06,718.845037537,0.930703265592,,,,,x,1,0.917146679945,2018_Nov_28_1540,59.9890717935,spanish_cond2,001,1064,
images/printer03a.jpg,printer,z,sounds/animalfarm_english.wav,,,,,,,,,0,1,1,1,0,68,68,72,719.952793293,9.30088572204e-06,720.76226087,0.809478160227,,,,,z,1,0.800527779618,2018_Nov_28_1540,59.9890717935,spanish_cond2,001,1064,
images/flashlight05.jpg,flash light,z,sounds/animalfarm_english.wav,,,,,,,,,0,1,1,1,0,69,69,8,721.863864863,9.94233414531e-06,722.762702824,0.898848865647,,,,,z,1,0.883799962001,2018_Nov_28_1540,59.9890717935,spanish_cond2,001,1064,
images/rubberglove02a.jpg,lady bug,x,sounds/animalfarm_english.wav,,,,,,,,,0,1,1,1,0,70,70,192,723.865952761,8.98027792573e-06,724.71319494,0.847252120497,,,,,x,1,0.833797845058,2018_Nov_28_1540,59.9890717935,spanish_cond2,001,1064,
images/raisin.jpg,ruler,x,sounds/animalfarm_english.wav,,,,,,,,,0,1,1,1,0,71,71,218,725.816867588,9.30111855268e-06,726.496973349,0.680116345175,,,,,x,1,0.667081573745,2018_Nov_28_1540,59.9890717935,spanish_cond2,001,1064,
images/graduationcap.jpg,graduation cap,z,sounds/animalfarm_english.wav,,,,,,,,,0,1,1,1,0,72,72,35,727.597976631,9.621726349e-06,728.730875686,1.13290931797,,,,,z,1,1.11719972733,2018_Nov_28_1540,59.9890717935,spanish_cond2,001,1064,
images/lip.jpg,boxing glove,x,sounds/animalfarm_english.wav,,,,,,,,,0,1,1,1,0,73,73,136,729.832361333,9.94233414531e-06,731.048135516,1.21578508825,,,,,x,1,1.20056267409,2018_Nov_28_1540,59.9890717935,spanish_cond2,001,1064,
images/bicycle.jpg,hand bag,x,sounds/animalfarm_english.wav,,,,,,,,,0,1,1,1,0,74,74,186,732.15700129,9.30088572204e-06,734.032218098,1.87522675027,,,,,x,1,1.85071719787,2018_Nov_28_1540,59.9890717935,spanish_cond2,001,1064,
images/flower01.jpg,bus,x,sounds/animalfarm_english.wav,,,,,,,,,0,1,1,1,0,75,75,140,735.145050879,9.30088572204e-06,735.932708418,0.787667480763,,,,,x,1,0.767129425425,2018_Nov_28_1540,59.9890717935,spanish_cond2,001,1064,
images/dolphin01.jpg,dolphin,z,sounds/animalfarm_english.wav,,,,,,,,,0,1,1,1,0,76,76,99,737.031650742,3.14307399094e-05,738.433154221,1.40151855303,,,,,z,1,1.38376051327,2018_Nov_28_1540,59.9890717935,spanish_cond2,001,1064,
images/bed.jpg,bed,z,sounds/animalfarm_english.wav,,,,,,,,,0,1,1,1,0,77,77,103,739.551556655,9.30088572204e-06,740.950629063,1.39908267162,,,,,z,1,1.38393242029,2018_Nov_28_1540,59.9890717935,spanish_cond2,001,1064,
images/shotglass.jpg,shot glass,z,sounds/animalfarm_english.wav,,,,,,,,,0,1,1,1,0,78,78,86,742.058838962,8.98027792573e-06,743.051445364,0.992616344942,,,,,z,1,0.984114654129,2018_Nov_28_1540,59.9890717935,spanish_cond2,001,1064,
images/lipstick04.jpg,lipstick,z,sounds/animalfarm_english.wav,,,,,,,,,0,1,1,1,0,79,79,56,744.149874213,9.30088572204e-06,745.085043849,0.935179578373,,,,,z,1,0.917183563113,2018_Nov_28_1540,59.9890717935,spanish_cond2,001,1064,
images/cocktailshrimp01.jpg,cocktail shrimp,z,sounds/animalfarm_english.wav,,,,,,,,,0,1,1,1,0,80,80,30,746.19804565,9.30088572204e-06,746.852129656,0.654093306977,,,,,z,1,0.633751212386,2018_Nov_28_1540,59.9890717935,spanish_cond2,001,1064,
images/showerhead01.jpg,skateboard,x,sounds/animalfarm_english.wav,,,,,,,,,0,1,1,1,0,81,81,223,747.959795931,8.98004509509e-06,748.635915763,0.67612945335,,,,,x,1,0.66709023295,2018_Nov_28_1540,59.9890717935,spanish_cond2,001,1064,
images/lightswitch02a.jpg,fork,x,sounds/animalfarm_english.wav,,,,,,,,,0,1,1,1,0,82,82,177,749.746213239,9.621726349e-06,750.619758766,0.873556111008,,,,,x,1,0.85048595746,2018_Nov_28_1540,59.9890717935,spanish_cond2,001,1064,
images/orange.jpg,bat,x,sounds/animalfarm_english.wav,,,,,,,,,0,1,1,1,0,83,83,128,751.744165751,8.65943729877e-06,752.520235615,0.776079485193,,,,,x,1,0.767128783977,2018_Nov_28_1540,59.9890717935,spanish_cond2,001,1064,
images/mitten01.jpg,mitten,z,sounds/animalfarm_english.wav,,,,,,,,,0,1,1,1,0,84,84,102,753.639292642,8.98027792573e-06,754.587418472,0.948136093793,,,,,z,1,0.933823246509,2018_Nov_28_1540,59.9890717935,spanish_cond2,001,1064,
images/peach01.jpg,peach,z,sounds/animalfarm_english.wav,,,,,,,,,0,1,1,1,0,85,85,106,755.715659365,8.98027792573e-06,756.454553735,0.738904312253,,,,,z,1,0.717095557135,2018_Nov_28_1540,59.9890717935,spanish_cond2,001,1064,
images/safe.jpg,safe,z,sounds/animalfarm_english.wav,,,,,,,,,0,1,1,1,0,86,86,78,757.564002581,8.98004509509e-06,758.204996652,0.641004654346,,,,,z,1,0.617070797365,2018_Nov_28_1540,59.9890717935,spanish_cond2,001,1064,
images/atm.jpg,atm,z,sounds/animalfarm_english.wav,,,,,,,,,0,1,1,1,0,87,87,96,759.341766497,9.30088572204e-06,759.905426868,0.563670313451,,,,,z,1,0.550389869371,2018_Nov_28_1540,59.9890717935,spanish_cond2,001,1064,
images/cloud.jpg,ceiling fan,x,sounds/animalfarm_english.wav,,,,,,,,,0,1,1,1,0,88,88,149,761.009322097,9.621726349e-06,762.756197626,1.74688611296,,,,,x,1,1.73406590451,2018_Nov_28_1540,59.9890717935,spanish_cond2,001,1064,
images/bull.jpg,button,x,sounds/animalfarm_english.wav,,,,,,,,,0,1,1,1,0,89,89,141,763.86111692,9.30088572204e-06,764.823345525,0.962238547625,,,,,x,1,0.950501095504,2018_Nov_28_1540,59.9890717935,spanish_cond2,001,1064,
images/backpack01b.jpg,swallow,x,sounds/animalfarm_english.wav,,,,,,,,,0,1,1,1,0,90,90,228,765.954046032,8.65943729877e-06,766.907199176,0.953163085738,,,,,x,1,0.933824208565,2018_Nov_28_1540,59.9890717935,spanish_cond2,001,1064,
images/antelope.jpg,antelope,z,sounds/animalfarm_english.wav,,,,,,,,,0,1,1,1,0,91,91,12,768.012704749,9.30088572204e-06,769.024401469,1.01170730405,,,,,z,1,1.00050385366,2018_Nov_28_1540,59.9890717935,spanish_cond2,001,1064,
images/electrictoothbrush01a.jpg,banjo,x,sounds/animalfarm_english.wav,,,,,,,,,0,1,1,1,0,92,92,127,770.118049319,8.98027792573e-06,770.874865938,0.75682656141,,,,,x,1,0.733764425851,2018_Nov_28_1540,59.9890717935,spanish_cond2,001,1064,
images/doorhandle.jpg,doll,x,sounds/animalfarm_english.wav,,,,,,,,,0,1,1,1,0,93,93,168,771.976105592,8.65943729877e-06,772.875397695,0.899302045349,,,,,x,1,0.883829468396,2018_Nov_28_1540,59.9890717935,spanish_cond2,001,1064,
images/lantern03.jpg,lantern,z,sounds/animalfarm_english.wav,,,,,,,,,0,1,1,1,0,94,94,5,773.980876648,9.30088572204e-06,774.892555344,0.911688958993,,,,,z,1,0.900480056414,2018_Nov_28_1540,59.9890717935,spanish_cond2,001,1064,
images/croissant02b.jpg,croissant,z,sounds/animalfarm_english.wav,,,,,,,,,0,1,1,1,0,95,95,39,776.002124781,8.98027792573e-06,777.226489496,1.22437497741,,,,,x,0,1.20056299469,2018_Nov_28_1540,59.9890717935,spanish_cond2,001,1064,
images/parrot01.jpg,chameleon,x,sounds/animalfarm_english.wav,,,,,,,,,0,1,1,1,0,96,96,150,778.338714509,8.65943729877e-06,779.193669403,0.854964515194,,,,,x,1,0.833811957156,2018_Nov_28_1540,59.9890717935,spanish_cond2,001,1064,
images/bowl02b (1).jpg,bowl,z,sounds/animalfarm_english.wav,,,,,,,,,0,1,1,1,0,97,97,24,780.309723512,8.98004509509e-06,780.994103852,0.684390603099,,,,,z,1,0.667086063651,2018_Nov_28_1540,59.9890717935,spanish_cond2,001,1064,
images/nailclipper03a.jpg,aquarium,x,sounds/animalfarm_english.wav,,,,,,,,,0,1,1,1,0,98,98,123,782.092358549,9.30088572204e-06,782.861232379,0.768883452285,,,,,x,1,0.750429446343,2018_Nov_28_1540,59.9890717935,spanish_cond2,001,1064,
images/dryingmachine01.jpg,drying machine,z,sounds/animalfarm_english.wav,,,,,,,,,0,1,1,1,0,99,99,18,783.9804642,8.98027792573e-06,784.711712564,0.731258306652,,,,,z,1,0.717106782366,2018_Nov_28_1540,59.9890717935,spanish_cond2,001,1064,
images/grasshopper.jpg,cauliflower,x,sounds/animalfarm_english.wav,,,,,,,,,0,1,1,1,0,100,100,148,785.805081707,8.98004509509e-06,786.595517337,0.790445572231,,,,,x,1,0.767075864831,2018_Nov_28_1540,59.9890717935,spanish_cond2,001,1064,
images/tape01a.jpg,tie,x,sounds/animalfarm_english.wav,,,,,,,,,0,1,1,1,0,101,101,232,787.720372691,8.98027792573e-06,788.562678321,0.842315572314,,,,,x,1,0.833769942401,2018_Nov_28_1540,59.9890717935,spanish_cond2,001,1064,
images/marker01a.jpg,marker,z,sounds/animalfarm_english.wav,,,,,,,,,0,1,1,1,0,102,102,95,789.659851544,9.30088572204e-06,791.330061437,1.6702201562,,,,,z,1,1.65066447132,2018_Nov_28_1540,59.9890717935,spanish_cond2,001,1064,
images/bowlingball.jpg,bowling ball,z,sounds/animalfarm_english.wav,,,,,,,,,0,1,1,1,0,103,103,20,792.462372609,8.98027792573e-06,793.447251543,0.984888555715,,,,,z,1,0.967162587913,2018_Nov_28_1540,59.9890717935,spanish_cond2,001,1064,
images/magnifyingglass01b.jpg,magnifying glass,z,sounds/animalfarm_english.wav,,,,,,,,,0,1,1,1,0,104,104,64,794.552958209,9.30088572204e-06,795.464433567,0.911485621473,,,,,z,1,0.900491281645,2018_Nov_28_1540,59.9890717935,spanish_cond2,001,1064,
images/flipflop01b.jpg,flip flop,z,sounds/animalfarm_english.wav,,,,,,,,,0,1,1,1,0,105,105,27,796.580099603,9.30111855268e-06,797.23153958,0.651450239588,,,,,z,1,0.633744797902,2018_Nov_28_1540,59.9890717935,spanish_cond2,001,1064,
images/tissuebox03.jpg,tissue box,z,sounds/animalfarm_english.wav,,,,,,,,,0,1,1,1,0,106,106,58,798.356181654,9.621726349e-06,799.048669518,0.692498126999,,,,,z,1,0.6837520462,2018_Nov_28_1540,59.9890717935,spanish_cond2,001,1064,
images/broadsword.jpg,teapot,x,sounds/animalfarm_english.wav,,,,,,,,,0,1,1,1,0,107,107,231,800.140394321,9.30088572204e-06,801.015837558,0.875453179702,,,,,x,1,0.867135904031,2018_Nov_28_1540,59.9890717935,spanish_cond2,001,1064,
images/handfan01b.jpg,handfan,z,sounds/animalfarm_english.wav,,,,,,,,,0,1,1,1,0,108,108,69,802.129314669,9.621726349e-06,802.782950627,0.653646220919,,,,,z,1,0.633754419396,2018_Nov_28_1540,59.9890717935,spanish_cond2,001,1064,
images/flamingo.jpg,flamingo,z,sounds/animalfarm_english.wav,,,,,,,,,0,1,1,1,0,109,109,52,803.879989467,8.98004509509e-06,804.53321875,0.653239545645,,,,,z,1,0.633567438927,2018_Nov_28_1540,59.9890717935,spanish_cond2,001,1064,
images/bowtie.jpg,bowtie,z,sounds/animalfarm_english.wav,,,,,,,,,0,1,1,1,0,110,110,89,805.643268629,9.30088572204e-06,806.433877448,0.790619082749,,,,,z,1,0.767124293838,2018_Nov_28_1540,59.9890717935,spanish_cond2,001,1064,
images/hairdryer03a.jpg,hairdryer,z,sounds/animalfarm_english.wav,,,,,,,,,0,1,1,1,0,111,111,119,807.531800839,9.621726349e-06,808.434376171,0.902585914824,,,,,z,1,0.883811187232,2018_Nov_28_1540,59.9890717935,spanish_cond2,001,1064,
images/bracelet02a.jpg,chess knight,x,sounds/animalfarm_english.wav,,,,,,,,,0,1,1,1,0,112,112,152,809.543664335,9.30088572204e-06,810.651593602,1.10793985054,,,,,x,1,1.0838449914,2018_Nov_28_1540,59.9890717935,spanish_cond2,001,1064,
images/pen03c.jpg,pepper,x,sounds/animalfarm_english.wav,,,,,,,,,0,1,1,1,0,113,113,211,811.744354015,9.62149351835e-06,812.73548606,0.991142307874,,,,,x,1,0.967188245617,2018_Nov_28_1540,59.9890717935,spanish_cond2,001,1064,
images/boxingglove02a.jpg,bracelet,x,sounds/animalfarm_english.wav,,,,,,,,,0,1,1,1,0,114,114,135,813.845116435,9.62149351835e-06,814.986052134,1.14094596216,,,,,x,1,1.11722378153,2018_Nov_28_1540,59.9890717935,spanish_cond2,001,1064,
images/plant01.jpg,plant,z,sounds/animalfarm_english.wav,,,,,,,,,0,1,1,1,0,115,115,47,816.096373022,8.98027792573e-06,816.986544442,0.890181682538,,,,,z,1,0.867141676834,2018_Nov_28_1540,59.9890717935,spanish_cond2,001,1064,
images/skateboard.jpg,key,x,sounds/animalfarm_english.wav,,,,,,,,,0,1,1,1,0,116,116,189,818.078061096,9.621726349e-06,818.97037205,0.892321537714,,,,,x,1,0.883790340275,2018_Nov_28_1540,59.9890717935,spanish_cond2,001,1064,
images/apple06.jpg,apple,z,sounds/animalfarm_english.wav,,,,,,,,,0,1,1,1,0,117,117,13,820.096172571,9.621726349e-06,820.987577486,0.891415498918,,,,,z,1,0.867162202951,2018_Nov_28_1540,59.9890717935,spanish_cond2,001,1064,
images/mushroom01.jpg,shower head,x,sounds/animalfarm_english.wav,,,,,,,,,0,1,1,1,0,118,118,222,822.103200225,8.98004509509e-06,823.038070949,0.934880986577,,,,,x,1,0.917152452981,2018_Nov_28_1540,59.9890717935,spanish_cond2,001,1064,
images/cauliflower01.jpg,glue stick,x,sounds/animalfarm_english.wav,,,,,,,,,0,1,1,1,0,119,119,181,824.152465323,9.30088572204e-06,825.188621564,1.03616586188,,,,,x,1,1.01718747593,2018_Nov_28_1540,59.9890717935,spanish_cond2,001,1064,
images/headphones02b.jpg,headphones,z,sounds/animalfarm_english.wav,,,,,,,,,0,1,1,1,0,120,120,101,826.294543113,8.98027792573e-06,827.239131704,0.944598212605,,,,,z,1,0.933812341886,2018_Nov_28_1540,59.9890717935,spanish_cond2,001,1064,
images/hairband.jpg,hairband,z,sounds/animalfarm_english.wav,,,,,,,,,0,1,1,1,0,121,121,66,828.34889614,8.98027792573e-06,829.623077915,1.27419171738,,,,,z,1,1.25057761976,2018_Nov_28_1540,59.9890717935,spanish_cond2,001,1064,
images/computerkeyboard01a.jpg,computer keyboard,z,sounds/animalfarm_english.wav,,,,,,,,,0,1,1,1,0,122,122,61,830.738796549,9.30111855268e-06,831.590234088,0.851448122645,,,,,z,1,0.833789506461,2018_Nov_28_1540,59.9890717935,spanish_cond2,001,1064,
images/lamp04b.jpg,parking meter,x,sounds/animalfarm_english.wav,,,,,,,,,0,1,1,1,0,123,123,209,832.711482607,9.30088572204e-06,833.590744036,0.879271371523,,,,,x,1,0.867107680533,2018_Nov_28_1540,59.9890717935,spanish_cond2,001,1064,
images/ceilingfan02.jpg,paper clip,x,sounds/animalfarm_english.wav,,,,,,,,,0,1,1,1,0,124,124,208,834.687678,9.30088572204e-06,835.87468024,1.18701218232,,,,,x,1,1.16723391647,2018_Nov_28_1540,59.9890717935,spanish_cond2,001,1064,
images/lettuce.jpg,mushroom,x,sounds/animalfarm_english.wav,,,,,,,,,0,1,1,1,0,125,125,205,836.998455083,8.98004509509e-06,837.775153241,0.776707778918,,,,,x,1,0.767130708089,2018_Nov_28_1540,59.9890717935,spanish_cond2,001,1064,
images/straw.jpg,straw,z,sounds/animalfarm_english.wav,,,,,,,,,0,1,1,1,0,126,126,109,838.865029404,9.30088572204e-06,839.708962055,0.843943234766,,,,,z,1,0.833787582116,2018_Nov_28_1540,59.9890717935,spanish_cond2,001,1064,
images/ruler02b.jpg,watermelon,x,sounds/animalfarm_english.wav,,,,,,,,,0,1,1,1,0,127,127,238,840.810720957,9.30088572204e-06,841.54274675,0.732036056696,,,,,x,1,0.717079841765,2018_Nov_28_1540,59.9890717935,spanish_cond2,001,1064,
images/tank.jpg,wallet,x,sounds/animalfarm_english.wav,,,,,,,,,0,1,1,1,0,128,128,237,842.646422927,8.98027792573e-06,844.176752616,1.53033995209,,,,,x,1,1.517303898,2018_Nov_28_1540,59.9890717935,spanish_cond2,001,1064,
images/carrot02.jpg,corkscrew,x,sounds/animalfarm_english.wav,,,,,,,,,0,1,1,1,0,129,129,161,845.277866867,8.98004509509e-06,845.993877743,0.716020818567,,,,,x,1,0.700428933138,2018_Nov_28_1540,59.9890717935,spanish_cond2,001,1064,
images/scooter.jpg,pen,x,sounds/animalfarm_english.wav,,,,,,,,,0,1,1,1,0,130,130,212,847.085858803,8.98027792573e-06,847.810843793,0.724994932767,,,,,x,1,0.71694000694,2018_Nov_28_1540,59.9890717935,spanish_cond2,001,1064,
images/cockroach02.jpg,belt,x,sounds/animalfarm_english.wav,,,,,,,,,0,1,1,1,0,131,131,129,848.908413749,9.30088572204e-06,849.778177646,0.869774481282,,,,,x,1,0.850477939472,2018_Nov_28_1540,59.9890717935,spanish_cond2,001,1064,
images/beachumbrella01.jpg,beach umbrella,z,sounds/animalfarm_english.wav,,,,,,,,,0,1,1,1,0,132,132,92,850.882746391,8.98027792573e-06,852.012071323,1.12933487468,,,,,z,1,1.11718240869,2018_Nov_28_1540,59.9890717935,spanish_cond2,001,1064,
images/pouch01b.jpg,pouch,z,sounds/animalfarm_english.wav,,,,,,,,,0,1,1,1,0,133,133,25,853.124152012,9.62149351835e-06,854.662734832,1.53859340446,,,,,x,0,1.51729010697,2018_Nov_28_1540,59.9890717935,spanish_cond2,001,1064,
images/elbow.jpg,elbow,z,sounds/animalfarm_english.wav,,,,,,,,,0,1,1,1,0,134,134,105,855.773680807,9.30088572204e-06,857.580165351,1.80649448605,,,,,z,1,1.78405230585,2018_Nov_28_1540,59.9890717935,spanish_cond2,001,1064,
images/gamecontroller01.jpg,game controller,z,sounds/animalfarm_english.wav,,,,,,,,,0,1,1,1,0,135,135,112,858.700105646,9.30111855268e-06,860.014108868,1.31401380664,,,,,z,1,1.30059448979,2018_Nov_28_1540,59.9890717935,spanish_cond2,001,1064,
images/ant.jpg,ant,z,sounds/animalfarm_english.wav,,,,,,,,,0,1,1,1,0,136,136,98,861.107654087,8.98027792573e-06,862.114649348,1.00700584473,,,,,z,1,0.983861925313,2018_Nov_28_1540,59.9890717935,spanish_cond2,001,1064,
images/acousticguitar02.jpg,acoustic guitar,z,sounds/animalfarm_english.wav,,,,,,,,,0,1,1,1,0,137,137,97,863.227977003,9.62149351835e-06,864.34854046,1.12057371973,,,,,z,1,1.10054721544,2018_Nov_28_1540,59.9890717935,spanish_cond2,001,1064,
images/pictureframe04.jpg,picture frame,z,sounds/animalfarm_english.wav,,,,,,,,,0,1,1,1,0,138,138,41,865.469032395,9.30088572204e-06,866.315693105,0.846670652041,,,,,z,1,0.833804901224,2018_Nov_28_1540,59.9890717935,spanish_cond2,001,1064,
images/stapler03a.jpg,candy cane,x,sounds/animalfarm_english.wav,,,,,,,,,0,1,1,1,0,139,139,145,867.425343364,9.30088572204e-06,868.466239871,1.04090644931,,,,,x,1,1.01718202373,2018_Nov_28_1540,59.9890717935,spanish_cond2,001,1064,
images/diaper01a.jpg,camera,x,sounds/animalfarm_english.wav,,,,,,,,,0,1,1,1,0,140,140,143,869.585004721,1.02629419416e-05,870.800172099,1.21517860331,,,,,x,1,1.20056844712,2018_Nov_28_1540,59.9890717935,spanish_cond2,001,1064,
images/mirror02.jpg,8 ball,x,sounds/animalfarm_english.wav,,,,,,,,,0,1,1,1,0,141,141,121,871.900082682,9.30111855268e-06,872.71730563,0.817232890287,,,,,x,1,0.800451447954,2018_Nov_28_1540,59.9890717935,spanish_cond2,001,1064,
images/chameleon.jpg,50 dollar bill,x,sounds/animalfarm_english.wav,,,,,,,,,0,1,1,1,0,142,142,120,873.829039297,9.30088572204e-06,874.667792614,0.838762938045,,,,,x,1,0.817115826765,2018_Nov_28_1540,59.9890717935,spanish_cond2,001,1064,
images/baseball01a.jpg,baseball,z,sounds/animalfarm_english.wav,,,,,,,,,0,1,1,1,0,143,143,74,875.798972279,8.98027792573e-06,876.734995677,0.936033018865,,,,,z,1,0.91715694312,2018_Nov_28_1540,59.9890717935,spanish_cond2,001,1064,
images/swan.jpg,swan,z,sounds/animalfarm_english.wav,,,,,,,,,0,1,1,1,0,144,144,54,877.825390126,8.65967012942e-06,878.618802374,0.793421869632,,,,,z,1,0.783768787747,2018_Nov_28_1540,59.9890717935,spanish_cond2,001,1064,
images/donut.jpg,rhinoceros,x,sounds/animalfarm_english.wav,,,,,,,,,0,1,1,1,0,145,145,216,879.74285849,9.621726349e-06,880.652638193,0.909789965954,,,,,x,1,0.900471076136,2018_Nov_28_1540,59.9890717935,spanish_cond2,001,1064,
images/kiwi03.jpg,backpack,x,sounds/animalfarm_english.wav,,,,,,,,,0,1,1,1,0,146,146,125,881.779670606,8.98004509509e-06,882.503221649,0.723593378672,,,,,x,1,0.700490191113,2018_Nov_28_1540,59.9890717935,spanish_cond2,001,1064,
images/snowman.jpg,globe,x,sounds/animalfarm_english.wav,,,,,,,,,0,1,1,1,0,147,147,180,883.612934449,9.621726349e-06,884.420266019,0.8073418329,,,,,x,1,0.783786427462,2018_Nov_28_1540,59.9890717935,spanish_cond2,001,1064,
images/bottleofredwine02.jpg,pipe,x,sounds/animalfarm_english.wav,,,,,,,,,0,1,1,1,0,148,148,213,885.518839834,8.65943729877e-06,886.420769873,0.901939660544,,,,,x,1,0.883795472095,2018_Nov_28_1540,59.9890717935,spanish_cond2,001,1064,
images/parkingmeter.jpg,ear,x,sounds/animalfarm_english.wav,,,,,,,,,0,1,1,1,0,149,149,171,887.521619208,9.30088572204e-06,888.287914116,0.766305170488,,,,,x,1,0.750440992415,2018_Nov_28_1540,59.9890717935,spanish_cond2,001,1064,
images/blackolive.jpg,tank,x,sounds/animalfarm_english.wav,,,,,,,,,0,1,1,1,0,150,150,229,889.401693346,9.94233414531e-06,890.15505034,0.753367257304,,,,,x,1,0.733771802858,2018_Nov_28_1540,59.9890717935,spanish_cond2,001,1064,
images/dresser02.jpg,dresser,z,sounds/animalfarm_english.wav,,,,,,,,,0,1,1,1,0,151,151,87,891.27693036,9.30088572204e-06,892.405637582,1.12871684367,,,,,z,1,1.11721704644,2018_Nov_28_1540,59.9890717935,spanish_cond2,001,1064,
images/volleyball.jpg,volley ball,z,sounds/animalfarm_english.wav,,,,,,,,,0,1,1,1,0,152,152,2,893.537007115,8.98027792573e-06,894.272783749,0.735786255682,,,,,z,1,0.71711191372,2018_Nov_28_1540,59.9890717935,spanish_cond2,001,1064,
images/triangleruler02.jpg,bottle of red wine,x,sounds/animalfarm_english.wav,,,,,,,,,0,1,1,1,0,153,153,134,895.381747985,8.98027792573e-06,896.339962116,0.958223753609,,,,,x,1,0.933827094967,2018_Nov_28_1540,59.9890717935,spanish_cond2,001,1064,
images/lock02a.jpg,lock,z,sounds/animalfarm_english.wav,,,,,,,,,0,1,1,1,0,154,154,65,897.449148933,9.621726349e-06,898.390469049,0.9413300585,,,,,z,1,0.917146680178,2018_Nov_28_1540,59.9890717935,spanish_cond2,001,1064,
images/worldmap.jpg,scooter,x,sounds/animalfarm_english.wav,,,,,,,,,0,1,1,1,0,155,155,220,899.519980962,9.30088572204e-06,900.257613612,0.73764355504,,,,,x,1,0.717099726433,2018_Nov_28_1540,59.9890717935,spanish_cond2,001,1064,
images/parkbench03.jpg,park bench,z,sounds/animalfarm_english.wav,,,,,,,,,0,1,1,1,0,156,156,71,901.362352019,9.30088572204e-06,902.008078017,0.645735940896,,,,,z,1,0.633758268319,2018_Nov_28_1540,59.9890717935,spanish_cond2,001,1064,
images/cookingpot.jpg,grasshopper,x,sounds/animalfarm_english.wav,,,,,,,,,0,1,1,1,0,157,157,183,903.120494501,9.62149351835e-06,904.008560704,0.88807710656,,,,,x,1,0.867133338237,2018_Nov_28_1540,59.9890717935,spanish_cond2,001,1064,
images/aquarium.jpg,computer mouse,x,sounds/animalfarm_english.wav,,,,,,,,,0,1,1,1,0,158,158,159,905.14578437,9.621726349e-06,906.342512175,1.19673806801,,,,,x,1,1.1839120863,2018_Nov_28_1540,59.9890717935,spanish_cond2,001,1064,
images/parkfountain.jpg,park fountain,z,sounds/animalfarm_english.wav,,,,,,,,,0,1,1,1,0,159,159,93,907.461096778,9.30088572204e-06,908.209632684,0.748545526993,,,,,z,1,0.73377757566,2018_Nov_28_1540,59.9890717935,spanish_cond2,001,1064,
images/birthdaycandle.jpg,birthday candle,z,sounds/animalfarm_english.wav,,,,,,,,,0,1,1,1,0,160,160,55,909.304437377,9.30111855268e-06,910.076780775,0.772353019798,,,,,z,1,0.750456386944,2018_Nov_28_1540,59.9890717935,spanish_cond2,001,1064,
images/leek.jpg,donut,x,sounds/animalfarm_english.wav,,,,,,,,,0,1,1,1,0,161,161,169,911.176418424,9.30088572204e-06,911.977252492,0.80084401113,,,,,x,1,0.783789314097,2018_Nov_28_1540,59.9890717935,spanish_cond2,001,1064,
images/icecube02 (2).jpg,aloe,x,sounds/animalfarm_english.wav,,,,,,,,,0,1,1,1,0,162,162,122,913.08659518,8.65943729877e-06,913.8610547,0.774469782831,,,,,x,1,0.750439709285,2018_Nov_28_1540,59.9890717935,spanish_cond2,001,1064,
images/ostrich.jpg,ostrich,z,sounds/animalfarm_english.wav,,,,,,,,,0,1,1,1,0,163,163,76,914.959673736,9.62149351835e-06,915.811574076,0.851911244681,,,,,z,1,0.833819654537,2018_Nov_28_1540,59.9890717935,spanish_cond2,001,1064,
images/bandaid01.jpg,door handle,x,sounds/animalfarm_english.wav,,,,,,,,,0,1,1,1,0,164,164,170,916.917403899,8.98027792573e-06,917.678517227,0.761122949421,,,,,x,1,0.75027453783,2018_Nov_28_1540,59.9890717935,spanish_cond2,001,1064,
images/dice05a.jpg,band aid,x,sounds/animalfarm_english.wav,,,,,,,,,0,1,1,1,0,165,165,126,918.789847747,9.30111855268e-06,920.179338595,1.38950111112,,,,,x,1,1.36727541778,2018_Nov_28_1540,59.9890717935,spanish_cond2,001,1064,
images/8ball.jpg,nail clipper,x,sounds/animalfarm_english.wav,,,,,,,,,0,1,1,1,0,166,166,206,921.296694834,8.98027792573e-06,922.329863873,1.0331789807,,,,,x,1,1.0171765713,2018_Nov_28_1540,59.9890717935,spanish_cond2,001,1064,
images/binder03b.jpg,dj mixer,x,sounds/animalfarm_english.wav,,,,,,,,,0,1,1,1,0,167,167,167,923.441635065,9.30088572204e-06,924.046962316,0.605337193934,,,,,x,1,0.583732418017,2018_Nov_28_1540,59.9890717935,spanish_cond2,001,1064,
images/drink.jpg,drink,z,sounds/animalfarm_english.wav,,,,,,,,,0,1,1,1,0,168,168,117,925.146775079,9.30088572204e-06,926.047464887,0.90069975052,,,,,z,1,0.883802207187,2018_Nov_28_1540,59.9890717935,spanish_cond2,001,1064,
images/bus.jpg,microphone,x,sounds/animalfarm_english.wav,,,,,,,,,0,1,1,1,0,169,169,203,927.164572247,9.621726349e-06,928.031314305,0.866752641508,,,,,x,1,0.850468638586,2018_Nov_28_1540,59.9890717935,spanish_cond2,001,1064,
images/cigar.jpg,crocodile,x,sounds/animalfarm_english.wav,,,,,,,,,0,1,1,1,0,170,170,162,929.128295095,9.30088572204e-06,930.548604412,1.42031925917,,,,,x,1,1.40060032695,2018_Nov_28_1540,59.9890717935,spanish_cond2,001,1064,
images/seagull.jpg,seagull,z,sounds/animalfarm_english.wav,,,,,,,,,0,1,1,1,0,171,171,50,931.654720959,9.30088572204e-06,932.632479871,0.977768854471,,,,,z,1,0.967173492303,2018_Nov_28_1540,59.9890717935,spanish_cond2,001,1064,
images/corn01.jpg,corn,z,sounds/animalfarm_english.wav,,,,,,,,,0,1,1,1,0,172,172,22,933.731554012,8.98027792573e-06,935.083102521,1.35155845084,,,,,z,1,1.33393447264,2018_Nov_28_1540,59.9890717935,spanish_cond2,001,1064,
images/tulip02.jpg,sport shorts,x,sounds/animalfarm_english.wav,,,,,,,,,0,1,1,1,0,173,173,225,936.176171468,9.62149351835e-06,936.933388668,0.757227784256,,,,,x,1,0.733596047154,2018_Nov_28_1540,59.9890717935,spanish_cond2,001,1064,
images/gluestick.jpg,squirrel,x,sounds/animalfarm_english.wav,,,,,,,,,0,1,1,1,0,174,174,226,938.039800601,9.30088572204e-06,939.434204264,1.3944136051,,,,,x,1,1.38394492818,2018_Nov_28_1540,59.9890717935,spanish_cond2,001,1064,
images/paperclip04.jpg,eye drops,x,sounds/animalfarm_english.wav,,,,,,,,,0,1,1,1,0,175,175,174,940.540064876,8.98004509509e-06,941.701436641,1.16138299042,,,,,x,1,1.15054933215,2018_Nov_28_1540,59.9890717935,spanish_cond2,001,1064,
images/aloe02.jpg,broad sword,x,sounds/animalfarm_english.wav,,,,,,,,,0,1,1,1,0,176,176,137,942.822630636,9.94233414531e-06,944.118730853,1.29611112108,,,,,x,1,1.28392562084,2018_Nov_28_1540,59.9890717935,spanish_cond2,001,1064,
images/rhinoceros01.jpg,envelope,x,sounds/animalfarm_english.wav,,,,,,,,,0,1,1,1,0,177,177,173,945.232950113,9.621726349e-06,946.235913582,1.00297405245,,,,,x,1,0.983834022656,2018_Nov_28_1540,59.9890717935,spanish_cond2,001,1064,
images/treadmill.jpg,lily,x,sounds/animalfarm_english.wav,,,,,,,,,0,1,1,1,0,178,178,199,947.34061703,9.30111855268e-06,947.986353612,0.645746204071,,,,,x,1,0.63374159066,2018_Nov_28_1540,59.9890717935,spanish_cond2,001,1064,
images/paintbrush03a.jpg,paint brush,z,sounds/animalfarm_english.wav,,,,,,,,,0,1,1,1,0,179,179,0,949.084866169,1.02631747723e-05,950.070223299,0.985367393121,,,,,z,1,0.967169964453,2018_Nov_28_1540,59.9890717935,spanish_cond2,001,1064,
images/ladybug03.jpg,giraffe,x,sounds/animalfarm_english.wav,,,,,,,,,0,1,1,1,0,180,180,178,951.171960713,9.30088572204e-06,952.320792259,1.14884148911,,,,,x,1,1.13387821824,2018_Nov_28_1540,59.9890717935,spanish_cond2,001,1064,
images/candle08a.jpg,screw driver,x,sounds/animalfarm_english.wav,,,,,,,,,0,1,1,1,0,181,181,221,953.433357558,8.98004509509e-06,954.421308686,0.987960748607,,,,,x,1,0.967155211372,2018_Nov_28_1540,59.9890717935,spanish_cond2,001,1064,
images/50dollarbill.jpg,cherry,x,sounds/animalfarm_english.wav,,,,,,,,,0,1,1,1,0,182,182,151,955.543076773,8.65943729877e-06,956.538532467,0.995465315878,,,,,x,1,0.983845568495,2018_Nov_28_1540,59.9890717935,spanish_cond2,001,1064,
images/toucan.jpg,toucan,z,sounds/animalfarm_english.wav,,,,,,,,,0,1,1,1,0,183,183,81,957.637631624,8.98004509509e-06,958.272293365,0.634672004264,,,,,z,1,0.617078173906,2018_Nov_28_1540,59.9890717935,spanish_cond2,001,1064,
images/ear.jpg,bullet,x,sounds/animalfarm_english.wav,,,,,,,,,0,1,1,1,0,184,184,139,959.374428794,8.98027792573e-06,960.106089928,0.731670754729,,,,,x,1,0.717092029285,2018_Nov_28_1540,59.9890717935,spanish_cond2,001,1064,
images/spoon02b.jpg,spoon,z,sounds/animalfarm_english.wav,,,,,,,,,0,1,1,1,0,185,185,38,961.196193803,8.98027792573e-06,961.823197993,0.627013811609,,,,,z,1,0.61708458839,2018_Nov_28_1540,59.9890717935,spanish_cond2,001,1064,
images/gorilla.jpg,gorilla,z,sounds/animalfarm_english.wav,,,,,,,,,0,1,1,1,0,186,186,80,962.932808804,9.30088572204e-06,964.023747838,1.09094929765,,,,,z,1,1.06718959264,2018_Nov_28_1540,59.9890717935,spanish_cond2,001,1064,
images/fireextinguisher02.jpg,fire extinguisher,z,sounds/animalfarm_english.wav,,,,,,,,,0,1,1,1,0,187,187,175,965.132876604,9.30088572204e-06,966.307667365,1.17480070353,,,,,z,1,1.15055061504,2018_Nov_28_1540,59.9890717935,spanish_cond2,001,1064,
images/electricguitar02.jpg,electric guitar,z,sounds/animalfarm_english.wav,,,,,,,,,0,1,1,1,0,188,188,100,967.408492646,8.98004509509e-06,968.308240816,0.899769016076,,,,,z,1,0.883825299097,2018_Nov_28_1540,59.9890717935,spanish_cond2,001,1064,
images/masquerademask02b.jpg,mirror,x,sounds/animalfarm_english.wav,,,,,,,,,0,1,1,1,0,189,189,204,969.411577348,9.30111855268e-06,970.3253433,0.913776536705,,,,,x,1,0.900485829217,2018_Nov_28_1540,59.9890717935,spanish_cond2,001,1064,
images/tent.jpg,tent,z,sounds/animalfarm_english.wav,,,,,,,,,0,1,1,1,0,190,190,11,971.450270817,8.98027792573e-06,972.292507171,0.842245975742,,,,,z,1,0.833781167632,2018_Nov_28_1540,59.9890717935,spanish_cond2,001,1064,
images/diploma01.jpg,glasses,x,sounds/animalfarm_english.wav,,,,,,,,,0,1,1,1,0,191,191,179,973.422642246,1.02631747723e-05,974.726456782,1.3038247989,,,,,x,1,1.28390573617,2018_Nov_28_1540,59.9890717935,spanish_cond2,001,1064,
images/cake.jpg,cake,z,sounds/animalfarm_english.wav,,,,,,,,,0,1,1,1,0,192,192,23,975.840114459,9.30088572204e-06,976.59359429,0.753489772789,,,,,z,1,0.733772764681,2018_Nov_28_1540,59.9890717935,spanish_cond2,001,1064,
images/thumbtack02a.jpg,thumb tack,z,sounds/animalfarm_english.wav,,,,,,,,,0,1,1,1,0,193,193,60,977.704044749,8.98027792573e-06,978.79415087,1.09011574206,,,,,z,1,1.06718381983,2018_Nov_28_1540,59.9890717935,spanish_cond2,001,1064,
images/nailpolish02b.jpg,nail polish,z,sounds/animalfarm_english.wav,,,,,,,,,0,1,1,1,0,194,194,94,979.902362693,9.30088572204e-06,980.561267146,0.658914716216,,,,,z,1,0.650419760495,2018_Nov_28_1540,59.9890717935,spanish_cond2,001,1064,
images/bench02.jpg,electric toothbrush,x,sounds/animalfarm_english.wav,,,,,,,,,0,1,1,1,0,195,195,172,981.668711802,8.98027792573e-06,982.378414403,0.709712543525,,,,,x,1,0.700446252245,2018_Nov_28_1540,59.9890717935,spanish_cond2,001,1064,
images/hand01a.jpg,cupcake,x,sounds/animalfarm_english.wav,,,,,,,,,0,1,1,1,0,196,196,163,983.488485449,9.30088572204e-06,984.245532988,0.75705780182,,,,,x,1,0.733773085522,2018_Nov_28_1540,59.9890717935,spanish_cond2,001,1064,
images/sportshorts02.jpg,tape,x,sounds/animalfarm_english.wav,,,,,,,,,0,1,1,1,0,197,197,230,985.35240227,9.30088572204e-06,986.212692369,0.860299400054,,,,,x,1,0.85045901686,2018_Nov_28_1540,59.9890717935,spanish_cond2,001,1064,
images/lychee02a.jpg,lychee,z,sounds/animalfarm_english.wav,,,,,,,,,0,1,1,1,0,198,198,62,987.335625959,8.98027792573e-06,988.146752949,0.811137253651,,,,,z,1,0.800688782008,2018_Nov_28_1540,59.9890717935,spanish_cond2,001,1064,
images/radish01.jpg,raisin,x,sounds/animalfarm_english.wav,,,,,,,,,0,1,1,1,0,199,199,214,989.256159781,8.98004509509e-06,990.180376771,0.92422661162,,,,,x,1,0.900481018471,2018_Nov_28_1540,59.9890717935,spanish_cond2,001,1064,
images/saltshaker03c.jpg,salt shaker,z,sounds/animalfarm_english.wav,,,,,,,,,0,1,1,1,0,200,200,63,991.292345207,9.30111855268e-06,992.114190075,0.821855131304,,,,,z,1,0.8004533723,2018_Nov_28_1540,59.9890717935,spanish_cond2,001,1064,
images/barrel01.jpg,barrel,z,sounds/animalfarm_english.wav,,,,,,,,,0,1,1,1,0,201,201,9,993.242835718,9.621726349e-06,993.897810689,0.654985233909,,,,,z,1,0.633512274828,2018_Nov_28_1540,59.9890717935,spanish_cond2,001,1064,
images/button07.jpg,radish,x,sounds/animalfarm_english.wav,,,,,,,,,0,1,1,1,0,202,202,215,995.008463846,9.30088572204e-06,995.698451363,0.689997139154,,,,,x,1,0.667110759299,2018_Nov_28_1540,59.9890717935,spanish_cond2,001,1064,
images/pipe.jpg,icecube,x,sounds/animalfarm_english.wav,,,,,,,,,0,1,1,1,0,203,203,188,996.806835734,9.62149351835e-06,998.015675273,1.20884980215,,,,,x,1,1.20054856222,2018_Nov_28_1540,59.9890717935,spanish_cond2,001,1064,
images/screwdriver02b.jpg,cola,x,sounds/animalfarm_english.wav,,,,,,,,,0,1,1,1,0,204,204,158,999.108200597,8.98004509509e-06,999.9828462,0.874655544758,,,,,x,1,0.850470562931,2018_Nov_28_1540,59.9890717935,spanish_cond2,001,1064,
images/licenseplate.jpg,license plate,z,sounds/animalfarm_english.wav,,,,,,,,,0,1,1,1,0,205,205,40,1001.09909274,9.30088572204e-06,1002.06672294,0.967640783871,,,,,z,1,0.950496284757,2018_Nov_28_1540,59.9890717935,spanish_cond2,001,1064,
images/remotecontrol01c.jpg,remote control,z,sounds/animalfarm_english.wav,,,,,,,,,0,1,1,1,0,206,206,85,1003.17520898,8.98004509509e-06,1003.78380952,0.608610479627,,,,,x,0,0.600409305189,2018_Nov_28_1540,59.9890717935,spanish_cond2,001,1064,
images/fork01.jpg,cooking pot,x,sounds/animalfarm_english.wav,,,,,,,,,0,1,1,1,0,207,207,160,1004.87614273,9.30088572204e-06,1005.71763341,0.841500939103,,,,,x,1,0.817119675223,2018_Nov_28_1540,59.9890717935,spanish_cond2,001,1064,
images/blueberry02.jpg,blueberry,z,sounds/animalfarm_english.wav,,,,,,,,,0,1,1,1,0,208,208,46,1006.83028338,8.98027792573e-06,1007.51809031,0.687816873193,,,,,z,1,0.667093119584,2018_Nov_28_1540,59.9890717935,spanish_cond2,001,1064,
images/microphone01.jpg,diaper,x,sounds/animalfarm_english.wav,,,,,,,,,0,1,1,1,0,209,209,164,1008.61660286,9.62149351835e-06,1009.38525091,0.768659588415,,,,,x,1,0.750454141758,2018_Nov_28_1540,59.9890717935,spanish_cond2,001,1064,
images/daisy.jpg,daisy,z,sounds/animalfarm_english.wav,,,,,,,,,0,1,1,1,0,210,210,6,1010.48673687,9.621726349e-06,1011.16901553,0.682288913755,,,,,z,1,0.667084460147,2018_Nov_28_1540,59.9890717935,spanish_cond2,001,1064,
images/mailbox01.jpg,mail box,z,sounds/animalfarm_english.wav,,,,,,,,,0,1,1,1,0,211,211,73,1012.2889276,9.30111855268e-06,1013.10283204,0.81391438283,,,,,z,1,0.800450485665,2018_Nov_28_1540,59.9890717935,spanish_cond2,001,1064,
images/panda.jpg,panda,z,sounds/animalfarm_english.wav,,,,,,,,,0,1,1,1,0,212,212,83,1014.21046496,9.30088572204e-06,1015.10334134,0.892886969959,,,,,z,1,0.883814394474,2018_Nov_28_1540,59.9890717935,spanish_cond2,001,1064,
images/envelope02a.jpg,grand piano,x,sounds/animalfarm_english.wav,,,,,,,,,0,1,1,1,0,213,213,182,1016.22591284,9.62149351835e-06,1016.90380241,0.677899837261,,,,,x,1,0.667096968275,2018_Nov_28_1540,59.9890717935,spanish_cond2,001,1064,
images/honeycomb.jpg,honey comb,z,sounds/animalfarm_english.wav,,,,,,,,,0,1,1,1,0,214,214,59,1018.01569099,9.30088572204e-06,1018.6542341,0.638552736957,,,,,z,1,0.617070155917,2018_Nov_28_1540,59.9890717935,spanish_cond2,001,1064,
images/pineapple01a.jpg,pineapple,z,sounds/animalfarm_english.wav,,,,,,,,,0,1,1,1,0,215,215,51,1019.76603929,8.98027792573e-06,1020.42135006,0.655321029713,,,,,z,1,0.633739986923,2018_Nov_28_1540,59.9890717935,spanish_cond2,001,1064,
images/fryingpan01.jpg,frying pan,z,sounds/animalfarm_english.wav,,,,,,,,,0,1,1,1,0,216,216,45,1021.52056179,8.98027792573e-06,1022.20515958,0.684607411036,,,,,z,1,0.667110117851,2018_Nov_28_1540,59.9890717935,spanish_cond2,001,1064,
images/wallet01.jpg,lamp,x,sounds/animalfarm_english.wav,,,,,,,,,0,1,1,1,0,217,217,193,1023.30909137,9.94256697595e-06,1024.25568575,0.946605289122,,,,,x,1,0.93385371496,2018_Nov_28_1540,59.9890717935,spanish_cond2,001,1064,
images/eraser.jpg,eraser,z,sounds/animalfarm_english.wav,,,,,,,,,0,1,1,1,0,218,218,110,1025.3612776,9.30088572204e-06,1025.90607312,0.544805783778,,,,,z,1,0.533714585938,2018_Nov_28_1540,59.9890717935,spanish_cond2,001,1064,
images/comb02a.jpg,diploma,x,sounds/animalfarm_english.wav,,,,,,,,,0,1,1,1,0,219,219,166,1027.00886828,9.62149351835e-06,1028.02328023,1.01442221343,,,,,x,1,1.00050096726,2018_Nov_28_1540,59.9890717935,spanish_cond2,001,1064,
images/giraffe.jpg,lettuce,x,sounds/animalfarm_english.wav,,,,,,,,,0,1,1,1,0,220,220,195,1029.12280947,8.98027792573e-06,1029.95709513,0.834295605309,,,,,z,0,0.817123524146,2018_Nov_28_1540,59.9890717935,spanish_cond2,001,1064,
images/calculator02b.jpg,dice,x,sounds/animalfarm_english.wav,,,,,,,,,0,1,1,1,0,221,221,165,1031.05738609,8.98027792573e-06,1032.54109471,1.48371920432,,,,,x,1,1.46729472536,2018_Nov_28_1540,59.9890717935,spanish_cond2,001,1064,
images/tie01.jpg,bench,x,sounds/animalfarm_english.wav,,,,,,,,,0,1,1,1,0,222,222,130,1033.63793599,9.30088572204e-06,1034.47494298,0.837017249549,,,,,x,1,0.817164255772,2018_Nov_28_1540,59.9890717935,spanish_cond2,001,1064,
images/screw03c.jpg,screw,z,sounds/animalfarm_english.wav,,,,,,,,,0,1,1,1,0,223,223,84,1035.56755714,8.98004509509e-06,1036.30871228,0.741165079176,,,,,z,1,0.717102613067,2018_Nov_28_1540,59.9890717935,spanish_cond2,001,1064,
images/lily.jpg,kiwi,x,sounds/animalfarm_english.wav,,,,,,,,,0,1,1,1,0,224,224,190,1037.40685248,8.98004509509e-06,1038.09248812,0.685645587044,,,,,x,1,0.667085101595,2018_Nov_28_1540,59.9890717935,spanish_cond2,001,1064,
images/grandpiano.jpg,tulip,x,sounds/animalfarm_english.wav,,,,,,,,,0,1,1,1,0,225,225,236,1039.20599249,9.621726349e-06,1040.04299146,0.837009231793,,,,,x,1,0.817128655501,2018_Nov_28_1540,59.9890717935,spanish_cond2,001,1064,
images/crocodile.jpg,triangle ruler,x,sounds/animalfarm_english.wav,,,,,,,,,0,1,1,1,0,226,226,235,1041.1393539,9.30088572204e-06,1042.02683543,0.887492110254,,,,,x,1,0.867157392437,2018_Nov_28_1540,59.9890717935,spanish_cond2,001,1064,
images/toothbrush03a.jpg,parrot,x,sounds/animalfarm_english.wav,,,,,,,,,0,1,1,1,0,227,227,210,1043.11960225,9.94233414531e-06,1043.77727193,0.657680258388,,,,,x,1,0.633742552949,2018_Nov_28_1540,59.9890717935,spanish_cond2,001,1064,
images/chessknight02b (1).jpg,cockroach,x,sounds/animalfarm_english.wav,,,,,,,,,0,1,1,1,0,228,228,155,1044.8846611,9.30111855268e-06,1045.72777046,0.84311994235,,,,,x,1,0.833779563894,2018_Nov_28_1540,59.9890717935,spanish_cond2,001,1064,
images/feather03b.jpg,feather,z,sounds/animalfarm_english.wav,,,,,,,,,0,1,1,1,0,229,229,114,1046.8270242,8.98027792573e-06,1047.46152943,0.634515812853,,,,,z,1,0.617077211849,2018_Nov_28_1540,59.9890717935,spanish_cond2,001,1064,
images/corkscrew02a.jpg,masquerade mask,x,sounds/animalfarm_english.wav,,,,,,,,,0,1,1,1,0,230,230,201,1048.56398654,9.30088572204e-06,1049.16195452,0.597978234524,,,,,x,1,0.583724720636,2018_Nov_28_1540,59.9890717935,spanish_cond2,001,1064,
images/ladder.jpg,ladder,z,sounds/animalfarm_english.wav,,,,,,,,,0,1,1,1,0,231,231,113,1050.25327072,9.30088572204e-06,1050.77903333,0.525772554567,,,,,z,1,0.517051169183,2018_Nov_28_1540,59.9890717935,spanish_cond2,001,1064,
images/battery03b.jpg,battery,z,sounds/animalfarm_english.wav,,,,,,,,,0,1,1,1,0,232,232,34,1051.88682918,9.30088572204e-06,1052.64616892,0.759349999717,,,,,z,1,0.750433615874,2018_Nov_28_1540,59.9890717935,spanish_cond2,001,1064,
