images,name,corrAns,sounds,trials_3.thisRepN,trials_3.thisTrialN,trials_3.thisN,trials_3.thisIndex,trials_4.thisRepN,trials_4.thisTrialN,trials_4.thisN,trials_4.thisIndex,trials_2.thisRepN,trials_2.thisTrialN,trials_2.thisN,trials_2.thisIndex,trials.thisRepN,trials.thisTrialN,trials.thisN,trials.thisIndex,begin_global,begin_routine,end_global,end_routine,key_resp_2.keys,key_resp_2.corr,key_resp_2.rt,begin_book,key_resp_1.keys,key_resp_1.corr,key_resp_1.rt,date,frameRate,expName,session,participant,
images/volleyball.jpg,volley ball,z,,0,0,0,0,,,,,,,,,,,,,,,,,,,,,,,,2018_Nov_28_1540,59.9808588799,chinese_cond1,001,1065,
images/puma.jpg,puma,z,,,,,,0,0,0,0,,,,,,,,,48.1848099504,1.09046231955e-05,49.532643414,1.34784468892,z,1,1.33394965739,,,,,2018_Nov_28_1540,59.9808588799,chinese_cond1,001,1065,
images/aloe02.jpg,broad sword,x,sounds/greatgatsby_english.wav,,,,,,,,,0,0,0,0,0,0,0,137,91.8288564052,8.98016151041e-06,93.0939062826,1.26505981968,,,,81.5293992942,x,1,1.25057337375,2018_Nov_28_1540,59.9808588799,chinese_cond1,001,1065,
images/mattress.jpg,cat,x,sounds/greatgatsby_english.wav,,,,,,,,,0,0,0,0,0,1,1,147,94.240502651,9.621726349e-06,95.0277336159,0.787240907433,,,,,x,1,0.767112932284,2018_Nov_28_1540,59.9808588799,chinese_cond1,001,1065,
images/radish01.jpg,raisin,x,sounds/greatgatsby_english.wav,,,,,,,,,0,0,0,0,0,2,2,214,96.1766000662,9.94245056063e-06,97.2616546967,1.08506521431,,,,,z,0,1.0671957751,2018_Nov_28_1540,59.9808588799,chinese_cond1,001,1065,
images/paintbrush03a.jpg,paint brush,z,sounds/greatgatsby_english.wav,,,,,,,,,0,0,0,0,0,3,3,0,98.448486489,9.94245056063e-06,99.2121237391,0.763647192507,,,,,z,1,0.750417983043,2018_Nov_28_1540,59.9808588799,chinese_cond1,001,1065,
images/lantern03.jpg,lantern,z,sounds/greatgatsby_english.wav,,,,,,,,,0,0,0,0,0,4,4,5,100.399846822,9.30100213736e-06,101.329335085,0.929498205427,,,,,z,1,0.917128856177,2018_Nov_28_1540,59.9808588799,chinese_cond1,001,1065,
images/tissuebox03.jpg,tissue box,z,sounds/greatgatsby_english.wav,,,,,,,,,0,0,0,0,0,5,5,58,102.540249696,9.30100213736e-06,103.363217294,0.822978182114,,,,,z,1,0.800433874945,2018_Nov_28_1540,59.9808588799,chinese_cond1,001,1065,
images/ceilingfan02.jpg,paper clip,x,sounds/greatgatsby_english.wav,,,,,,,,,0,0,0,0,0,6,6,208,104.538144145,9.30100213736e-06,105.330379682,0.792244837852,,,,,x,1,0.783766187378,2018_Nov_28_1540,59.9808588799,chinese_cond1,001,1065,
images/antelope.jpg,antelope,z,sounds/greatgatsby_english.wav,,,,,,,,,0,0,0,0,0,7,7,12,106.464083601,8.98027792573e-06,107.464124654,1.00005163648,,,,,x,0,0.983665223583,2018_Nov_28_1540,59.9808588799,chinese_cond1,001,1065,
images/cloud.jpg,ceiling fan,x,sounds/greatgatsby_english.wav,,,,,,,,,0,0,0,0,0,8,8,149,108.664254611,9.30088572204e-06,109.964919247,1.30067457806,,,,,x,1,1.28389656148,2018_Nov_28_1540,59.9808588799,chinese_cond1,001,1065,
images/puma.jpg,puma,z,sounds/greatgatsby_english.wav,,,,,,,,,0,0,0,0,0,9,9,4,111.064137675,1.02631747723e-05,111.648682836,0.584555744892,,,,,z,1,0.567025631201,2018_Nov_28_1540,59.9808588799,chinese_cond1,001,1065,
images/scissors04a.jpg,leek,x,sounds/greatgatsby_english.wav,,,,,,,,,0,0,0,0,0,10,10,194,112.816821571,9.30100213736e-06,113.649194711,0.832383082598,,,,,x,1,0.817059547873,2018_Nov_28_1540,59.9808588799,chinese_cond1,001,1065,
images/elbow.jpg,elbow,z,sounds/greatgatsby_english.wav,,,,,,,,,0,0,0,0,0,11,11,105,114.83236865,9.621726349e-06,115.566369431,0.734011043794,,,,,z,1,0.71708164562,2018_Nov_28_1540,59.9808588799,chinese_cond1,001,1065,
images/lip.jpg,boxing glove,x,sounds/greatgatsby_english.wav,,,,,,,,,0,0,0,0,0,12,12,136,116.707459936,9.30100213736e-06,117.750293222,1.04284419015,,,,,x,1,1.03385847551,2018_Nov_28_1540,59.9808588799,chinese_cond1,001,1065,
images/redfox.jpg,red fox,z,sounds/greatgatsby_english.wav,,,,,,,,,0,0,0,0,0,13,13,1,118.894231753,9.30100213736e-06,119.650760163,0.756538994145,,,,,z,1,0.733752540546,2018_Nov_28_1540,59.9808588799,chinese_cond1,001,1065,
images/clothespin02a.jpg,clothes pin,z,sounds/greatgatsby_english.wav,,,,,,,,,0,0,0,0,0,14,14,79,120.839730861,9.30100213736e-06,121.567925261,0.728204662795,,,,,z,1,0.717046366073,2018_Nov_28_1540,59.9808588799,chinese_cond1,001,1065,
images/bat.jpg,hand,x,sounds/greatgatsby_english.wav,,,,,,,,,0,0,0,0,0,15,15,185,122.754101815,9.30088572204e-06,123.73515282,0.981061268132,,,,,x,1,0.967142182286,2018_Nov_28_1540,59.9808588799,chinese_cond1,001,1065,
images/cake.jpg,cake,z,sounds/greatgatsby_english.wav,,,,,,,,,0,0,0,0,0,16,16,23,124.912753865,8.98027792573e-06,125.618970355,0.706226112088,,,,,z,1,0.683714839513,2018_Nov_28_1540,59.9808588799,chinese_cond1,001,1065,
images/computermouse02a.jpg,world map,x,sounds/greatgatsby_english.wav,,,,,,,,,0,0,0,0,0,17,17,239,126.801289886,9.621726349e-06,127.536149886,0.734869941836,,,,,x,1,0.717092550243,2018_Nov_28_1540,59.9808588799,chinese_cond1,001,1065,
images/dresser02.jpg,dresser,z,sounds/greatgatsby_english.wav,,,,,,,,,0,0,0,0,0,18,18,87,128.734973856,9.621726349e-06,129.753401355,1.01843776146,,,,,z,1,1.00050417765,2018_Nov_28_1540,59.9808588799,chinese_cond1,001,1065,
images/cockroach02.jpg,belt,x,sounds/greatgatsby_english.wav,,,,,,,,,0,0,0,0,0,19,19,129,130.947133516,9.621726349e-06,131.703878094,0.756754520349,,,,,x,1,0.733743880992,2018_Nov_28_1540,59.9808588799,chinese_cond1,001,1065,
images/desktopcomputer.jpg,desktop computer,z,sounds/greatgatsby_english.wav,,,,,,,,,0,0,0,0,0,20,20,16,132.928397482,9.94245056063e-06,133.554364103,0.62597720488,,,,,z,1,0.617054031347,2018_Nov_28_1540,59.9808588799,chinese_cond1,001,1065,
images/key03b.jpg,cigar,x,sounds/greatgatsby_english.wav,,,,,,,,,0,0,0,0,0,21,21,153,134.685796336,8.98016151041e-06,135.404852998,0.719066924998,,,,,x,1,0.700418127468,2018_Nov_28_1540,59.9808588799,chinese_cond1,001,1065,
images/gps.jpg,gps,z,sounds/greatgatsby_english.wav,,,,,,,,,0,0,0,0,0,22,22,21,136.592734198,9.94245056063e-06,137.50540275,0.912678815541,,,,,z,1,0.900464696577,2018_Nov_28_1540,59.9808588799,chinese_cond1,001,1065,
images/chessknight02b (1).jpg,cockroach,x,sounds/greatgatsby_english.wav,,,,,,,,,0,0,0,0,0,23,23,155,138.672859947,9.30100213736e-06,139.622454376,0.949604692054,,,,,x,1,0.933648690232,2018_Nov_28_1540,59.9808588799,chinese_cond1,001,1065,
images/hanger02a.jpg,hanger,z,sounds/greatgatsby_english.wav,,,,,,,,,0,0,0,0,0,24,24,88,140.796201285,9.30100213736e-06,141.606444172,0.810252829688,,,,,z,1,0.800436440739,2018_Nov_28_1540,59.9808588799,chinese_cond1,001,1065,
images/tank.jpg,wallet,x,sounds/greatgatsby_english.wav,,,,,,,,,0,0,0,0,0,25,25,237,142.784491985,9.621726349e-06,143.39026841,0.605786367902,,,,,x,1,0.583735333639,2018_Nov_28_1540,59.9808588799,chinese_cond1,001,1065,
images/fryingpan01.jpg,frying pan,z,sounds/greatgatsby_english.wav,,,,,,,,,0,0,0,0,0,26,26,45,144.576604364,9.94245056063e-06,145.190743979,0.614149878616,,,,,z,1,0.600401738426,2018_Nov_28_1540,59.9808588799,chinese_cond1,001,1065,
images/tie01.jpg,bench,x,sounds/greatgatsby_english.wav,,,,,,,,,0,0,0,0,0,27,27,130,146.35410329,8.98027792573e-06,147.007863182,0.653769513243,,,,,x,1,0.633736792952,2018_Nov_28_1540,59.9808588799,chinese_cond1,001,1065,
images/electrictoothbrush01a.jpg,banjo,x,sounds/greatgatsby_english.wav,,,,,,,,,0,0,0,0,0,28,28,127,148.188556644,9.30100213736e-06,148.941676403,0.753129380872,,,,,x,1,0.733742598095,2018_Nov_28_1540,59.9808588799,chinese_cond1,001,1065,
images/hammer02a.jpg,flower,x,sounds/greatgatsby_english.wav,,,,,,,,,0,0,0,0,0,29,29,176,150.112557646,9.30088572204e-06,151.025553978,0.913006274262,,,,,x,1,0.900464055128,2018_Nov_28_1540,59.9808588799,chinese_cond1,001,1065,
images/glasses01b.jpg,calculator,x,sounds/greatgatsby_english.wav,,,,,,,,,0,0,0,0,0,30,30,142,152.198540451,9.30100213736e-06,152.976082354,0.777552166488,,,,,x,1,0.767115498078,2018_Nov_28_1540,59.9808588799,chinese_cond1,001,1065,
images/cocktailshrimp01.jpg,cocktail shrimp,z,sounds/greatgatsby_english.wav,,,,,,,,,0,0,0,0,0,31,31,30,154.144459387,9.621726349e-06,155.259996235,1.11556154385,,,,,z,1,1.10042851896,2018_Nov_28_1540,59.9808588799,chinese_cond1,001,1065,
images/treadmill.jpg,lily,x,sounds/greatgatsby_english.wav,,,,,,,,,0,0,0,0,0,32,32,199,156.411233154,9.30100213736e-06,157.143817298,0.732594086789,,,,,x,1,0.717076834757,2018_Nov_28_1540,59.9808588799,chinese_cond1,001,1065,
images/cupcake.jpg,scissors,x,sounds/greatgatsby_english.wav,,,,,,,,,0,0,0,0,0,33,33,219,158.340556885,9.621726349e-06,158.994287912,0.653741610236,,,,,x,1,0.63371562527,2018_Nov_28_1540,59.9808588799,chinese_cond1,001,1065,
images/triangleruler02.jpg,bottle of red wine,x,sounds/greatgatsby_english.wav,,,,,,,,,0,0,0,0,0,34,34,134,160.141995588,9.621726349e-06,160.944807308,0.802822303958,,,,,x,1,0.783770356677,2018_Nov_28_1540,59.9808588799,chinese_cond1,001,1065,
images/hairdryer03a.jpg,hairdryer,z,sounds/greatgatsby_english.wav,,,,,,,,,0,0,0,0,0,35,35,119,162.126437283,9.30100213736e-06,162.845300869,0.718873849371,,,,,z,1,0.70042133471,2018_Nov_28_1540,59.9808588799,chinese_cond1,001,1065,
images/binder03b.jpg,dj mixer,x,sounds/greatgatsby_english.wav,,,,,,,,,0,0,0,0,0,36,36,167,164.048219519,9.94245056063e-06,165.062529887,1.01432063198,,,,,x,1,1.00048333057,2018_Nov_28_1540,59.9808588799,chinese_cond1,001,1065,
images/cactus.jpg,cactus,z,sounds/greatgatsby_english.wav,,,,,,,,,0,0,0,0,0,37,37,70,166.254886465,9.621726349e-06,167.179764647,0.924888444366,,,,,z,1,0.900452829665,2018_Nov_28_1540,59.9808588799,chinese_cond1,001,1065,
images/screwdriver02b.jpg,cola,x,sounds/greatgatsby_english.wav,,,,,,,,,0,0,0,0,0,38,38,158,168.348841177,9.30100213736e-06,168.996871662,0.648041067994,,,,,x,1,0.633718511788,2018_Nov_28_1540,59.9808588799,chinese_cond1,001,1065,
images/cola.jpg,comb,x,sounds/greatgatsby_english.wav,,,,,,,,,0,0,0,0,0,39,39,157,170.189454991,9.62160993367e-06,170.930721445,0.741276717396,,,,,x,1,0.717086135759,2018_Nov_28_1540,59.9808588799,chinese_cond1,001,1065,
images/radio03a.jpg,radio,z,sounds/greatgatsby_english.wav,,,,,,,,,0,0,0,0,0,40,40,37,172.143420242,9.62160993367e-06,172.914565953,0.771155974595,,,,,z,1,0.750418945332,2018_Nov_28_1540,59.9808588799,chinese_cond1,001,1065,
images/dragonfly02.jpg,dragon fly,z,sounds/greatgatsby_english.wav,,,,,,,,,0,0,0,0,0,41,41,29,174.088108561,9.621726349e-06,174.881739567,0.793641268625,,,,,z,1,0.783768753172,2018_Nov_28_1540,59.9808588799,chinese_cond1,001,1065,
images/corn01.jpg,corn,z,sounds/greatgatsby_english.wav,,,,,,,,,0,0,0,0,0,42,42,22,176.011586463,9.30100213736e-06,176.815569145,0.803992945352,,,,,x,0,0.783752396237,2018_Nov_28_1540,59.9808588799,chinese_cond1,001,1065,
images/microphone01.jpg,diaper,x,sounds/greatgatsby_english.wav,,,,,,,,,0,0,0,0,0,43,43,164,177.948530268,9.94245056063e-06,178.632710157,0.68419015198,,,,,x,1,0.667052604142,2018_Nov_28_1540,59.9808588799,chinese_cond1,001,1065,
images/pictureframe04.jpg,picture frame,z,sounds/greatgatsby_english.wav,,,,,,,,,0,0,0,0,0,44,44,41,179.830195106,9.30088572204e-06,180.699909139,0.869723975542,,,,,z,1,0.850443673087,2018_Nov_28_1540,59.9808588799,chinese_cond1,001,1065,
images/corkscrew02a.jpg,masquerade mask,x,sounds/greatgatsby_english.wav,,,,,,,,,0,0,0,0,0,45,45,201,181.896754565,9.30100213736e-06,182.91715259,1.0204076462,,,,,x,1,1.00048429274,2018_Nov_28_1540,59.9808588799,chinese_cond1,001,1065,
images/arrow02.jpg,hammer,x,sounds/greatgatsby_english.wav,,,,,,,,,0,0,0,0,0,46,46,184,184.074568571,8.98027792573e-06,184.884343522,0.809784252313,,,,,x,1,0.800451194053,2018_Nov_28_1540,59.9808588799,chinese_cond1,001,1065,
images/camera01a.jpg,bull,x,sounds/greatgatsby_english.wav,,,,,,,,,0,0,0,0,0,47,47,138,186.08307769,9.30100213736e-06,186.984898406,0.901831299998,,,,,x,1,0.883805026999,2018_Nov_28_1540,59.9808588799,chinese_cond1,001,1065,
images/teapot.jpg,light switch,x,sounds/greatgatsby_english.wav,,,,,,,,,0,0,0,0,0,48,48,197,188.178787402,9.62160993367e-06,188.902038808,0.723261669744,,,,,x,1,0.700408505625,2018_Nov_28_1540,59.9808588799,chinese_cond1,001,1065,
images/battery03b.jpg,battery,z,sounds/greatgatsby_english.wav,,,,,,,,,0,0,0,0,0,49,49,34,190.101920205,9.94245056063e-06,190.785908301,0.683998679859,,,,,z,1,0.667100712657,2018_Nov_28_1540,59.9808588799,chinese_cond1,001,1065,
images/dice05a.jpg,band aid,x,sounds/greatgatsby_english.wav,,,,,,,,,0,0,0,0,0,50,50,126,191.983603965,9.621726349e-06,192.703042288,0.719448265503,,,,,x,1,0.700423900504,2018_Nov_28_1540,59.9808588799,chinese_cond1,001,1065,
images/gorilla.jpg,gorilla,z,sounds/greatgatsby_english.wav,,,,,,,,,0,0,0,0,0,51,51,80,193.890767296,1.02631747723e-05,194.570170647,0.679413614562,,,,,z,1,0.667062867316,2018_Nov_28_1540,59.9808588799,chinese_cond1,001,1065,
images/tulip02.jpg,sport shorts,x,sounds/greatgatsby_english.wav,,,,,,,,,0,0,0,0,0,52,52,225,195.75462235,9.621726349e-06,196.72075329,0.966141203651,,,,,x,1,0.950492455158,2018_Nov_28_1540,59.9808588799,chinese_cond1,001,1065,
images/bowlingball.jpg,bowling ball,z,sounds/greatgatsby_english.wav,,,,,,,,,0,0,0,0,0,53,53,20,197.967628399,9.30100213736e-06,198.754622029,0.787003571982,,,,,z,1,0.767104593338,2018_Nov_28_1540,59.9808588799,chinese_cond1,001,1065,
images/tape01a.jpg,tie,x,sounds/greatgatsby_english.wav,,,,,,,,,0,0,0,0,0,54,54,232,199.951829552,9.94245056063e-06,200.671753451,0.719933841145,,,,,x,1,0.700411071419,2018_Nov_28_1540,59.9808588799,chinese_cond1,001,1065,
images/comb02a.jpg,diploma,x,sounds/greatgatsby_english.wav,,,,,,,,,0,0,0,0,0,55,55,166,201.811071637,9.62160993367e-06,202.505571772,0.694511039066,,,,,x,1,0.683751401957,2018_Nov_28_1540,59.9808588799,chinese_cond1,001,1065,
images/squirrel.jpg,binder,x,sounds/greatgatsby_english.wav,,,,,,,,,0,0,0,0,0,56,56,132,203.688673548,9.94245056063e-06,204.422727248,0.734063642449,,,,,x,1,0.717080683564,2018_Nov_28_1540,59.9808588799,chinese_cond1,001,1065,
images/blackolive.jpg,tank,x,sounds/greatgatsby_english.wav,,,,,,,,,0,0,0,0,0,57,57,229,205.620479681,9.94245056063e-06,206.22322174,0.602752642822,,,,,x,1,0.583738540998,2018_Nov_28_1540,59.9808588799,chinese_cond1,001,1065,
images/plant01.jpg,plant,z,sounds/greatgatsby_english.wav,,,,,,,,,0,0,0,0,0,58,58,47,207.401052102,9.94245056063e-06,207.923675788,0.522634911584,,,,,z,1,0.50039144326,2018_Nov_28_1540,59.9808588799,chinese_cond1,001,1065,
images/hand01a.jpg,cupcake,x,sounds/greatgatsby_english.wav,,,,,,,,,0,0,0,0,0,59,59,163,209.073663488,9.621726349e-06,209.740775747,0.667122521903,,,,,x,1,0.650393255288,2018_Nov_28_1540,59.9808588799,chinese_cond1,001,1065,
images/table02.jpg,table,z,sounds/greatgatsby_english.wav,,,,,,,,,0,0,0,0,0,60,60,49,210.940242448,9.62160993367e-06,211.657953033,0.717721168534,,,,,z,1,0.700404657051,2018_Nov_28_1540,59.9808588799,chinese_cond1,001,1065,
images/crocodile.jpg,triangle ruler,x,sounds/greatgatsby_english.wav,,,,,,,,,0,0,0,0,0,61,61,235,212.836481931,9.621726349e-06,213.675156649,0.838684981689,,,,,x,1,0.817133314325,2018_Nov_28_1540,59.9808588799,chinese_cond1,001,1065,
images/lightswitch02a.jpg,fork,x,sounds/greatgatsby_english.wav,,,,,,,,,0,0,0,0,0,62,62,177,214.871830489,9.621726349e-06,215.44227311,0.570453205029,,,,,x,1,0.550386487972,2018_Nov_28_1540,59.9808588799,chinese_cond1,001,1065,
images/barrel01.jpg,barrel,z,sounds/greatgatsby_english.wav,,,,,,,,,0,0,0,0,0,63,63,9,216.651247022,9.621726349e-06,217.1927299,0.54149410408,,,,,x,0,0.517048546928,2018_Nov_28_1540,59.9808588799,chinese_cond1,001,1065,
images/banjo.jpg,knife,x,sounds/greatgatsby_english.wav,,,,,,,,,0,0,0,0,0,64,64,191,218.362820559,9.94245056063e-06,219.126758007,0.763948031235,,,,,x,1,0.75062356703,2018_Nov_28_1540,59.9808588799,chinese_cond1,001,1065,
images/bench02.jpg,electric toothbrush,x,sounds/greatgatsby_english.wav,,,,,,,,,0,0,0,0,0,65,65,172,220.310280252,9.30100213736e-06,221.1437384,0.833468090743,,,,,x,1,0.817101241788,2018_Nov_28_1540,59.9808588799,chinese_cond1,001,1065,
images/grasshopper.jpg,cauliflower,x,sounds/greatgatsby_english.wav,,,,,,,,,0,0,0,0,0,66,66,148,222.310607069,9.30100213736e-06,223.210926798,0.900329351076,,,,,x,1,0.883786745719,2018_Nov_28_1540,59.9808588799,chinese_cond1,001,1065,
images/bowtie.jpg,bowtie,z,sounds/greatgatsby_english.wav,,,,,,,,,0,0,0,0,0,67,67,89,224.400749339,9.94233414531e-06,225.178110354,0.777371278265,,,,,z,1,0.767063540756,2018_Nov_28_1540,59.9808588799,chinese_cond1,001,1065,
images/ear.jpg,bullet,x,sounds/greatgatsby_english.wav,,,,,,,,,0,0,0,0,0,68,68,139,226.358537295,9.30100213736e-06,227.095288281,0.73676156986,,,,,x,1,0.717099285452,2018_Nov_28_1540,59.9808588799,chinese_cond1,001,1065,
images/peach01.jpg,peach,z,sounds/greatgatsby_english.wav,,,,,,,,,0,0,0,0,0,69,69,106,228.292632112,9.30100213736e-06,229.079116432,0.786494262749,,,,,z,1,0.767090160865,2018_Nov_28_1540,59.9808588799,chinese_cond1,001,1065,
images/leek.jpg,donut,x,sounds/greatgatsby_english.wav,,,,,,,,,0,0,0,0,0,70,70,169,230.256583414,9.621726349e-06,231.029624923,0.773052092874,,,,,x,1,0.750425680424,2018_Nov_28_1540,59.9808588799,chinese_cond1,001,1065,
images/fireextinguisher02.jpg,fire extinguisher,z,sounds/greatgatsby_english.wav,,,,,,,,,0,0,0,0,0,71,71,175,232.217048451,9.94245056063e-06,232.863438754,0.646400566562,,,,,x,0,0.633732302929,2018_Nov_28_1540,59.9808588799,chinese_cond1,001,1065,
images/eraser.jpg,eraser,z,sounds/greatgatsby_english.wav,,,,,,,,,0,0,0,0,0,72,72,110,234.071585199,9.94245056063e-06,234.980640799,0.909065863467,,,,,z,1,0.90045507485,2018_Nov_28_1540,59.9808588799,chinese_cond1,001,1065,
images/doorhandle.jpg,doll,x,sounds/greatgatsby_english.wav,,,,,,,,,0,0,0,0,0,73,73,168,236.159140191,9.621726349e-06,237.231232454,1.07210220571,,,,,x,1,1.0505011467,2018_Nov_28_1540,59.9808588799,chinese_cond1,001,1065,
images/mailbox01.jpg,mail box,z,sounds/greatgatsby_english.wav,,,,,,,,,0,0,0,0,0,74,74,73,238.39911461,9.30100213736e-06,239.131717998,0.732613650849,,,,,z,1,0.717079721391,2018_Nov_28_1540,59.9808588799,chinese_cond1,001,1065,
images/coffeepot03b.jpg,coffee pot,z,sounds/greatgatsby_english.wav,,,,,,,,,0,0,0,0,0,75,75,107,240.335393876,9.30088572204e-06,241.215866584,0.880482650595,,,,,z,1,0.867388465907,2018_Nov_28_1540,59.9808588799,chinese_cond1,001,1065,
images/marker01a.jpg,marker,z,sounds/greatgatsby_english.wav,,,,,,,,,0,0,0,0,0,76,76,95,242.387683698,9.94245056063e-06,243.066080298,0.678406863008,,,,,z,1,0.667068961076,2018_Nov_28_1540,59.9808588799,chinese_cond1,001,1065,
images/candycane01a.jpg,lip,x,sounds/greatgatsby_english.wav,,,,,,,,,0,0,0,0,0,77,77,200,244.238105562,9.62160993367e-06,244.93321411,0.695118168951,,,,,x,1,0.683718046756,2018_Nov_28_1540,59.9808588799,chinese_cond1,001,1065,
images/backpack01b.jpg,swallow,x,sounds/greatgatsby_english.wav,,,,,,,,,0,0,0,0,0,78,78,228,246.145992446,9.621726349e-06,246.967099526,0.821117664222,,,,,x,1,0.800435478566,2018_Nov_28_1540,59.9808588799,chinese_cond1,001,1065,
images/handfan01b.jpg,handfan,z,sounds/greatgatsby_english.wav,,,,,,,,,0,0,0,0,0,79,79,69,248.153241442,9.621726349e-06,249.000789301,0.847557801637,,,,,z,1,0.833609529887,2018_Nov_28_1540,59.9808588799,chinese_cond1,001,1065,
images/thumbtack02a.jpg,thumb tack,z,sounds/greatgatsby_english.wav,,,,,,,,,0,0,0,0,0,80,80,60,250.186873807,9.94245056063e-06,251.835083897,1.64822067332,,,,,x,0,1.63404276338,2018_Nov_28_1540,59.9808588799,chinese_cond1,001,1065,
images/ashtray02b.jpg,ashtray,z,sounds/greatgatsby_english.wav,,,,,,,,,0,0,0,0,0,81,81,43,253.023574792,9.621726349e-06,253.802185668,0.77862017625,,,,,z,1,0.767019281047,2018_Nov_28_1540,59.9808588799,chinese_cond1,001,1065,
images/cherry01.jpg,highlighter,x,sounds/greatgatsby_english.wav,,,,,,,,,0,0,0,0,0,82,82,187,254.945246699,9.94245056063e-06,255.635990197,0.690754082287,,,,,x,1,0.667037530104,2018_Nov_28_1540,59.9808588799,chinese_cond1,001,1065,
images/sunglasses03a.jpg,sun glasses,z,sounds/greatgatsby_english.wav,,,,,,,,,0,0,0,0,0,83,83,17,256.820407903,9.30100213736e-06,257.43646288,0.616065240349,,,,,z,1,0.600381532917,2018_Nov_28_1540,59.9808588799,chinese_cond1,001,1065,
images/dryingmachine01.jpg,drying machine,z,sounds/greatgatsby_english.wav,,,,,,,,,0,0,0,0,0,84,84,18,258.560902375,9.621726349e-06,259.320133203,0.759241411579,,,,,z,1,0.75026852591,2018_Nov_28_1540,59.9808588799,chinese_cond1,001,1065,
images/daisy.jpg,daisy,z,sounds/greatgatsby_english.wav,,,,,,,,,0,0,0,0,0,85,85,6,260.491166789,9.30100213736e-06,261.387486774,0.896330247866,,,,,z,1,0.88378001051,2018_Nov_28_1540,59.9808588799,chinese_cond1,001,1065,
images/handbag02a.jpg,candle,x,sounds/greatgatsby_english.wav,,,,,,,,,0,0,0,0,0,86,86,144,262.572274595,9.30100213736e-06,263.287837934,0.715573603055,,,,,x,1,0.700257765595,2018_Nov_28_1540,59.9808588799,chinese_cond1,001,1065,
images/apple06.jpg,apple,z,sounds/greatgatsby_english.wav,,,,,,,,,0,0,0,0,0,87,87,13,264.488324857,1.02631747723e-05,265.055141697,0.566827424103,,,,,z,1,0.550402845023,2018_Nov_28_1540,59.9808588799,chinese_cond1,001,1065,
images/masquerademask02b.jpg,mirror,x,sounds/greatgatsby_english.wav,,,,,,,,,0,0,0,0,0,88,88,204,266.243363185,9.94245056063e-06,266.92226717,0.678914889228,,,,,x,1,0.667075375561,2018_Nov_28_1540,59.9808588799,chinese_cond1,001,1065,
images/lighter02b.jpg,stapler,x,sounds/greatgatsby_english.wav,,,,,,,,,0,0,0,0,0,89,89,227,268.097118972,1.02630583569e-05,269.006128708,0.909020320745,,,,,x,1,0.90045475401,2018_Nov_28_1540,59.9808588799,chinese_cond1,001,1065,
images/notebook02b.jpg,notebook,z,sounds/greatgatsby_english.wav,,,,,,,,,0,0,0,0,0,90,90,7,270.145949469,9.621726349e-06,270.756578443,0.610638596117,,,,,z,1,0.600373193971,2018_Nov_28_1540,59.9808588799,chinese_cond1,001,1065,
images/lychee02a.jpg,lychee,z,sounds/greatgatsby_english.wav,,,,,,,,,0,0,0,0,0,91,91,62,271.953793664,9.30088572204e-06,272.673783311,0.719999910099,,,,,z,1,0.70041524095,2018_Nov_28_1540,59.9808588799,chinese_cond1,001,1065,
images/floorlamp.jpg,floor lamp,z,sounds/greatgatsby_english.wav,,,,,,,,,0,0,0,0,0,92,92,26,273.836839538,9.62160993367e-06,274.707616128,0.870786532992,,,,,z,1,0.850457464228,2018_Nov_28_1540,59.9808588799,chinese_cond1,001,1065,
images/bandaid01.jpg,door handle,x,sounds/greatgatsby_english.wav,,,,,,,,,0,0,0,0,0,93,93,170,275.898032649,9.94233414531e-06,276.958202973,1.06018090737,,,,,x,1,1.05050050525,2018_Nov_28_1540,59.9808588799,chinese_cond1,001,1065,
images/chameleon.jpg,50 dollar bill,x,sounds/greatgatsby_english.wav,,,,,,,,,0,0,0,0,0,94,94,120,278.101548807,9.94233414531e-06,278.808668134,0.707129911287,,,,,x,1,0.683726385585,2018_Nov_28_1540,59.9808588799,chinese_cond1,001,1065,
images/button07.jpg,radish,x,sounds/greatgatsby_english.wav,,,,,,,,,0,0,0,0,0,95,95,215,279.99395917,9.94245056063e-06,280.725830666,0.731882400927,,,,,x,1,0.717066892306,2018_Nov_28_1540,59.9808588799,chinese_cond1,001,1065,
images/blueberry02.jpg,blueberry,z,sounds/greatgatsby_english.wav,,,,,,,,,0,0,0,0,0,96,96,46,281.910200263,9.30100213736e-06,282.559657326,0.649467646843,,,,,z,1,0.633718832512,2018_Nov_28_1540,59.9808588799,chinese_cond1,001,1065,
images/worldmap.jpg,scooter,x,sounds/greatgatsby_english.wav,,,,,,,,,0,0,0,0,0,97,97,220,283.760188509,1.02631747723e-05,284.326795275,0.566617350094,,,,,x,1,0.550384563627,2018_Nov_28_1540,59.9808588799,chinese_cond1,001,1065,
images/aquarium.jpg,computer mouse,x,sounds/greatgatsby_english.wav,,,,,,,,,0,0,0,0,0,98,98,159,285.541642278,9.94245056063e-06,286.794092527,1.25246083236,,,,,x,1,1.23388323537,2018_Nov_28_1540,59.9808588799,chinese_cond1,001,1065,
images/parkbench03.jpg,park bench,z,sounds/greatgatsby_english.wav,,,,,,,,,0,0,0,0,0,99,99,71,287.93487642,9.94233414531e-06,288.727898372,0.793031893671,,,,,z,1,0.783746943926,2018_Nov_28_1540,59.9808588799,chinese_cond1,001,1065,
images/puzzle.jpg,puzzle,z,sounds/greatgatsby_english.wav,,,,,,,,,0,0,0,0,0,100,100,57,289.915652886,9.621726349e-06,290.511729666,0.596087363898,,,,,z,1,0.583723146236,2018_Nov_28_1540,59.9808588799,chinese_cond1,001,1065,
images/pouch01b.jpg,pouch,z,sounds/greatgatsby_english.wav,,,,,,,,,0,0,0,0,0,101,101,25,291.697291392,8.98027792573e-06,292.79563617,1.0983547197,,,,,x,0,1.08383876702,2018_Nov_28_1540,59.9808588799,chinese_cond1,001,1065,
images/lipstick04.jpg,lipstick,z,sounds/greatgatsby_english.wav,,,,,,,,,0,0,0,0,0,102,102,56,293.98510399,9.621726349e-06,294.646134045,0.661040318548,,,,,z,1,0.650411857292,2018_Nov_28_1540,59.9808588799,chinese_cond1,001,1065,
images/sock03.jpg,sock,z,sounds/greatgatsby_english.wav,,,,,,,,,0,0,0,0,0,103,103,90,295.787804098,9.94245056063e-06,296.396580252,0.608787058503,,,,,z,1,0.60039372032,2018_Nov_28_1540,59.9808588799,chinese_cond1,001,1065,
images/atm.jpg,atm,z,sounds/greatgatsby_english.wav,,,,,,,,,0,0,0,0,0,104,104,96,297.562479053,9.621726349e-06,298.163683883,0.601214452181,,,,,z,1,0.583709355094,2018_Nov_28_1540,59.9808588799,chinese_cond1,001,1065,
images/computerkeyboard01a.jpg,computer keyboard,z,sounds/greatgatsby_english.wav,,,,,,,,,0,0,0,0,0,105,105,61,299.361639013,9.621726349e-06,299.997521448,0.635892376769,,,,,z,1,0.617075840477,2018_Nov_28_1540,59.9808588799,chinese_cond1,001,1065,
images/ostrich.jpg,ostrich,z,sounds/greatgatsby_english.wav,,,,,,,,,0,0,0,0,0,106,106,76,301.131326394,9.94245056063e-06,302.098043618,0.966727165855,,,,,z,1,0.950467759394,2018_Nov_28_1540,59.9808588799,chinese_cond1,001,1065,
images/hairband.jpg,hairband,z,sounds/greatgatsby_english.wav,,,,,,,,,0,0,0,0,0,107,107,66,303.321525464,9.621726349e-06,304.265258668,0.943743467331,,,,,z,1,0.933766075061,2018_Nov_28_1540,59.9808588799,chinese_cond1,001,1065,
images/drink.jpg,drink,z,sounds/greatgatsby_english.wav,,,,,,,,,0,0,0,0,0,108,108,117,305.465925838,9.30100213736e-06,306.265780165,0.799864590517,,,,,z,1,0.783736360027,2018_Nov_28_1540,59.9808588799,chinese_cond1,001,1065,
images/graduationcap.jpg,graduation cap,z,sounds/greatgatsby_english.wav,,,,,,,,,0,0,0,0,0,109,109,35,307.444335042,9.94245056063e-06,308.282995969,0.838671190548,,,,,z,1,0.817114391597,2018_Nov_28_1540,59.9808588799,chinese_cond1,001,1065,
images/dreamcatcher.jpg,dream catcher,z,sounds/greatgatsby_english.wav,,,,,,,,,0,0,0,0,0,110,110,48,309.45508634,9.94245056063e-06,310.316844503,0.86176874605,,,,,z,1,0.850443993811,2018_Nov_28_1540,59.9808588799,chinese_cond1,001,1065,
images/bullet (2).jpg,rubber glove,x,sounds/greatgatsby_english.wav,,,,,,,,,0,0,0,0,0,111,111,217,311.556929892,9.30100213736e-06,312.267347542,0.71042662987,,,,,x,1,0.700402732706,2018_Nov_28_1540,59.9808588799,chinese_cond1,001,1065,
images/watermelon01.jpg,orange,x,sounds/greatgatsby_english.wav,,,,,,,,,0,0,0,0,0,112,112,207,313.47040763,9.62160993367e-06,314.101165221,0.630768174771,,,,,x,1,0.617060125107,2018_Nov_28_1540,59.9808588799,chinese_cond1,001,1065,
images/acousticguitar02.jpg,acoustic guitar,z,sounds/greatgatsby_english.wav,,,,,,,,,0,0,0,0,0,113,113,97,315.318091155,9.30100213736e-06,316.118375573,0.800294360262,,,,,z,1,0.783785430714,2018_Nov_28_1540,59.9808588799,chinese_cond1,001,1065,
images/lion.jpg,lion,z,sounds/greatgatsby_english.wav,,,,,,,,,0,0,0,0,0,114,114,44,317.308587151,9.94245056063e-06,317.835470048,0.526893159607,,,,,z,1,0.517037000973,2018_Nov_28_1540,59.9808588799,chinese_cond1,001,1065,
images/eyedrops.jpg,bicycle,x,sounds/greatgatsby_english.wav,,,,,,,,,0,0,0,0,0,115,115,131,319.00366523,9.94245056063e-06,319.852645441,0.848990153521,,,,,x,1,0.83377213683,2018_Nov_28_1540,59.9808588799,chinese_cond1,001,1065,
images/swallow.jpg,mattress,x,sounds/greatgatsby_english.wav,,,,,,,,,0,0,0,0,0,116,116,202,321.032693607,9.30100213736e-06,321.652958082,0.620274738292,,,,,x,1,0.600220850203,2018_Nov_28_1540,59.9808588799,chinese_cond1,001,1065,
images/magnifyingglass01b.jpg,magnifying glass,z,sounds/greatgatsby_english.wav,,,,,,,,,0,0,0,0,0,117,117,64,322.84570915,9.94245056063e-06,323.486930671,0.641233708477,,,,,z,1,0.617055634968,2018_Nov_28_1540,59.9808588799,chinese_cond1,001,1065,
images/knife04.jpg,tooth brush,x,sounds/greatgatsby_english.wav,,,,,,,,,0,0,0,0,0,118,118,233,324.657891454,1.02631747723e-05,325.387443156,0.729562606779,,,,,x,1,0.717106662109,2018_Nov_28_1540,59.9808588799,chinese_cond1,001,1065,
images/mirror02.jpg,8 ball,x,sounds/greatgatsby_english.wav,,,,,,,,,0,0,0,0,0,119,119,121,326.54908884,9.621726349e-06,327.137868515,0.588789938483,,,,,x,1,0.567025952041,2018_Nov_28_1540,59.9808588799,chinese_cond1,001,1065,
images/nailpolish02b.jpg,nail polish,z,sounds/greatgatsby_english.wav,,,,,,,,,0,0,0,0,0,120,120,94,328.326282758,9.94245056063e-06,328.95499317,0.628720033681,,,,,z,1,0.616997904726,2018_Nov_28_1540,59.9808588799,chinese_cond1,001,1065,
images/50dollarbill.jpg,cherry,x,sounds/greatgatsby_english.wav,,,,,,,,,0,0,0,0,0,121,121,151,330.159018637,9.621726349e-06,330.822147508,0.663138813339,,,,,x,1,0.650390689494,2018_Nov_28_1540,59.9808588799,chinese_cond1,001,1065,
images/cheetah.jpg,cheetah,z,sounds/greatgatsby_english.wav,,,,,,,,,0,0,0,0,0,122,122,82,332.055091985,1.02631747723e-05,332.989376029,0.934293986182,,,,,z,1,0.917118593003,2018_Nov_28_1540,59.9808588799,chinese_cond1,001,1065,
images/pingpongpaddle01c (1).jpg,ping pong paddle,z,sounds/greatgatsby_english.wav,,,,,,,,,0,0,0,0,0,123,123,10,334.209161535,9.621726349e-06,334.823184087,0.614032493788,,,,,z,1,0.600368703948,2018_Nov_28_1540,59.9808588799,chinese_cond1,001,1065,
images/weight01.jpg,weight,z,sounds/greatgatsby_english.wav,,,,,,,,,0,0,0,0,0,124,124,67,336.01163842,1.05837825686e-05,336.690567742,0.678940226324,,,,,z,1,0.667284808005,2018_Nov_28_1540,59.9808588799,chinese_cond1,001,1065,
images/hat05.jpg,hat,z,sounds/greatgatsby_english.wav,,,,,,,,,0,0,0,0,0,125,125,15,337.876768671,1.02630583569e-05,338.474146306,0.597388218972,,,,,z,1,0.583683376433,2018_Nov_28_1540,59.9808588799,chinese_cond1,001,1065,
images/baseball01a.jpg,baseball,z,sounds/greatgatsby_english.wav,,,,,,,,,0,0,0,0,0,126,126,74,339.67620285,9.30088572204e-06,340.691375645,1.01518337848,,,,,z,1,1.00044227787,2018_Nov_28_1540,59.9808588799,chinese_cond1,001,1065,
images/butterfly.jpg,butterfly,z,sounds/greatgatsby_english.wav,,,,,,,,,0,0,0,0,0,127,127,91,341.863173195,9.30100213736e-06,342.458488577,0.595325003727,,,,,z,1,0.583694601897,2018_Nov_28_1540,59.9808588799,chinese_cond1,001,1065,
images/pipe.jpg,icecube,x,sounds/greatgatsby_english.wav,,,,,,,,,0,0,0,0,0,128,128,188,343.640377056,9.30100213736e-06,345.459277878,1.81891108549,,,,,x,1,1.80068275658,2018_Nov_28_1540,59.9808588799,chinese_cond1,001,1065,
images/icecube02 (2).jpg,aloe,x,sounds/greatgatsby_english.wav,,,,,,,,,0,0,0,0,0,129,129,122,346.650890698,9.621726349e-06,347.426458547,0.775577470893,,,,,x,1,0.767086312175,2018_Nov_28_1540,59.9808588799,chinese_cond1,001,1065,
images/boxingglove02a.jpg,bracelet,x,sounds/greatgatsby_english.wav,,,,,,,,,0,0,0,0,0,130,130,135,348.615328859,9.621726349e-06,349.443482879,0.828164283652,,,,,x,1,0.816941842204,2018_Nov_28_1540,59.9808588799,chinese_cond1,001,1065,
images/scooter.jpg,pen,x,sounds/greatgatsby_english.wav,,,,,,,,,0,0,0,0,0,131,131,212,350.630567402,8.98027792573e-06,351.294140475,0.663583015557,,,,,x,1,0.650411215844,2018_Nov_28_1540,59.9808588799,chinese_cond1,001,1065,
images/showerhead01.jpg,skateboard,x,sounds/greatgatsby_english.wav,,,,,,,,,0,0,0,0,0,132,132,223,352.47706906,9.621726349e-06,353.211310705,0.734251907328,,,,,x,1,0.717102492694,2018_Nov_28_1540,59.9808588799,chinese_cond1,001,1065,
images/umbrella01.jpg,umbrella,z,sounds/greatgatsby_english.wav,,,,,,,,,0,0,0,0,0,133,133,53,354.400906493,9.94245056063e-06,354.978404073,0.577507842565,,,,,z,1,0.567026914097,2018_Nov_28_1540,59.9808588799,chinese_cond1,001,1065,
images/swan.jpg,swan,z,sounds/greatgatsby_english.wav,,,,,,,,,0,0,0,0,0,134,134,54,356.073472979,9.30100213736e-06,356.82902703,0.755564314895,,,,,z,1,0.73388788593,2018_Nov_28_1540,59.9808588799,chinese_cond1,001,1065,
images/candle08a.jpg,screw driver,x,sounds/greatgatsby_english.wav,,,,,,,,,0,0,0,0,0,135,135,221,358.062036614,9.30100213736e-06,359.346215733,1.28418906149,,,,,x,1,1.2672247045,2018_Nov_28_1540,59.9808588799,chinese_cond1,001,1065,
images/calculator02b.jpg,dice,x,sounds/greatgatsby_english.wav,,,,,,,,,0,0,0,0,0,136,136,165,360.47720184,9.94245056063e-06,361.530122847,1.05293159059,,,,,x,1,1.0338369871,2018_Nov_28_1540,59.9808588799,chinese_cond1,001,1065,
images/sportshorts02.jpg,tape,x,sounds/greatgatsby_english.wav,,,,,,,,,0,0,0,0,0,137,137,230,362.726574104,9.94245056063e-06,364.114104175,1.38754033495,,,,,x,1,1.36719779577,2018_Nov_28_1540,59.9808588799,chinese_cond1,001,1065,
images/parkingmeter.jpg,ear,x,sounds/greatgatsby_english.wav,,,,,,,,,0,0,0,0,0,138,138,171,365.245457511,1.02631747723e-05,366.047953959,0.802506711916,,,,,x,1,0.783771318966,2018_Nov_28_1540,59.9808588799,chinese_cond1,001,1065,
images/medal01.jpg,medal,z,sounds/greatgatsby_english.wav,,,,,,,,,0,0,0,0,0,139,139,115,367.237257569,8.98027792573e-06,368.031800392,0.794552765321,,,,,z,1,0.783751754789,2018_Nov_28_1540,59.9808588799,chinese_cond1,001,1065,
images/tent.jpg,tent,z,sounds/greatgatsby_english.wav,,,,,,,,,0,0,0,0,0,140,140,11,369.223407759,9.30088572204e-06,369.865599469,0.642201973125,,,,,z,1,0.63372524688,2018_Nov_28_1540,59.9808588799,chinese_cond1,001,1065,
images/bed.jpg,bed,z,sounds/greatgatsby_english.wav,,,,,,,,,0,0,0,0,0,141,141,103,371.075187567,9.30100213736e-06,371.566036519,0.490858253324,,,,,z,1,0.467002827791,2018_Nov_28_1540,59.9808588799,chinese_cond1,001,1065,
images/ruler02b.jpg,watermelon,x,sounds/greatgatsby_english.wav,,,,,,,,,0,0,0,0,0,142,142,238,372.74365777,1.02631747723e-05,373.616577436,0.872930570738,,,,,x,1,0.850450408296,2018_Nov_28_1540,59.9808588799,chinese_cond1,001,1065,
images/beachumbrella01.jpg,beach umbrella,z,sounds/greatgatsby_english.wav,,,,,,,,,0,0,0,0,0,143,143,92,374.756920976,9.30088572204e-06,375.550428503,0.793517148588,,,,,z,1,0.783768753055,2018_Nov_28_1540,59.9808588799,chinese_cond1,001,1065,
images/raisin.jpg,ruler,x,sounds/greatgatsby_english.wav,,,,,,,,,0,0,0,0,0,144,144,218,376.729093067,1.02631747723e-05,377.517608851,0.788526047138,,,,,x,1,0.767105234903,2018_Nov_28_1540,59.9808588799,chinese_cond1,001,1065,
images/nailclipper03a.jpg,aquarium,x,sounds/greatgatsby_english.wav,,,,,,,,,0,0,0,0,0,145,145,123,378.692563284,9.621726349e-06,379.501430909,0.808877245872,,,,,x,1,0.800427139853,2018_Nov_28_1540,59.9808588799,chinese_cond1,001,1065,
images/rubberglove02a.jpg,lady bug,x,sounds/greatgatsby_english.wav,,,,,,,,,0,0,0,0,0,146,146,192,380.681767726,9.62160993367e-06,381.335232873,0.653475088882,,,,,x,1,0.633710172959,2018_Nov_28_1540,59.9808588799,chinese_cond1,001,1065,
images/kiwi03.jpg,backpack,x,sounds/greatgatsby_english.wav,,,,,,,,,0,0,0,0,0,147,147,125,382.482898534,9.94245056063e-06,383.18574037,0.702851778595,,,,,x,1,0.68374627037,2018_Nov_28_1540,59.9808588799,chinese_cond1,001,1065,
images/dolphin01.jpg,dolphin,z,sounds/greatgatsby_english.wav,,,,,,,,,0,0,0,0,0,148,148,99,384.367082014,9.94245056063e-06,384.98619413,0.619122378295,,,,,z,1,0.600346253254,2018_Nov_28_1540,59.9808588799,chinese_cond1,001,1065,
images/snowman.jpg,globe,x,sounds/greatgatsby_english.wav,,,,,,,,,0,0,0,0,0,149,149,180,386.228359412,9.30100213736e-06,386.903346078,0.674996608286,,,,,x,1,0.667059660074,2018_Nov_28_1540,59.9808588799,chinese_cond1,001,1065,
images/skateboard.jpg,key,x,sounds/greatgatsby_english.wav,,,,,,,,,0,0,0,0,0,150,150,189,388.073257132,9.621726349e-06,388.787174518,0.713927970035,,,,,x,1,0.700397601118,2018_Nov_28_1540,59.9808588799,chinese_cond1,001,1065,
images/broadsword.jpg,teapot,x,sounds/greatgatsby_english.wav,,,,,,,,,0,0,0,0,0,151,151,231,389.951403952,9.30100213736e-06,390.554289053,0.60289504414,,,,,x,1,0.583701657713,2018_Nov_28_1540,59.9808588799,chinese_cond1,001,1065,
images/hairpin.jpg,hair pin,z,sounds/greatgatsby_english.wav,,,,,,,,,0,0,0,0,0,152,152,28,391.715380207,9.94245056063e-06,392.438122946,0.7227533228,,,,,z,1,0.700410750811,2018_Nov_28_1540,59.9808588799,chinese_cond1,001,1065,
images/printer03a.jpg,printer,z,sounds/greatgatsby_english.wav,,,,,,,,,0,0,0,0,0,153,153,72,393.627582427,9.94245056063e-06,394.388634965,0.761062801233,,,,,z,1,0.750427604886,2018_Nov_28_1540,59.9808588799,chinese_cond1,001,1065,
images/lettuce.jpg,mushroom,x,sounds/greatgatsby_english.wav,,,,,,,,,0,0,0,0,0,154,154,205,395.58052489,9.621726349e-06,396.505870686,0.925356059452,,,,,x,1,0.917150023859,2018_Nov_28_1540,59.9808588799,chinese_cond1,001,1065,
images/cookingpot.jpg,grasshopper,x,sounds/greatgatsby_english.wav,,,,,,,,,0,0,0,0,0,155,155,183,397.694343301,1.02631747723e-05,398.556370229,0.862036871025,,,,,x,1,0.850442069466,2018_Nov_28_1540,59.9808588799,chinese_cond1,001,1065,
images/flamingo.jpg,flamingo,z,sounds/greatgatsby_english.wav,,,,,,,,,0,0,0,0,0,156,156,52,399.736044753,9.621726349e-06,400.440199311,0.704164500465,,,,,z,1,0.683651656844,2018_Nov_28_1540,59.9808588799,chinese_cond1,001,1065,
images/diploma01.jpg,glasses,x,sounds/greatgatsby_english.wav,,,,,,,,,0,0,0,0,0,157,157,179,401.643168634,9.621726349e-06,402.657465212,1.01430652011,,,,,x,1,1.00045382394,2018_Nov_28_1540,59.9808588799,chinese_cond1,001,1065,
images/leaf01a.jpg,leaf,z,sounds/greatgatsby_english.wav,,,,,,,,,0,0,0,0,0,158,158,68,403.841859825,9.621726349e-06,404.391224167,0.549374284106,,,,,z,1,0.533688010881,2018_Nov_28_1540,59.9808588799,chinese_cond1,001,1065,
images/orange.jpg,bat,x,sounds/greatgatsby_english.wav,,,,,,,,,0,0,0,0,0,159,159,128,405.587631805,9.94233414531e-06,406.208359726,0.620738504687,,,,,x,1,0.600378967007,2018_Nov_28_1540,59.9808588799,chinese_cond1,001,1065,
images/8ball.jpg,nail clipper,x,sounds/greatgatsby_english.wav,,,,,,,,,0,0,0,0,0,160,160,206,407.398460013,9.30100213736e-06,408.04217035,0.643720278866,,,,,x,1,0.633721398306,2018_Nov_28_1540,59.9808588799,chinese_cond1,001,1065,
images/donut.jpg,rhinoceros,x,sounds/greatgatsby_english.wav,,,,,,,,,0,0,0,0,0,161,161,216,409.237813383,9.94245056063e-06,410.126031247,0.888228126918,,,,,x,1,0.867101097479,2018_Nov_28_1540,59.9808588799,chinese_cond1,001,1065,
images/paperclip04.jpg,eye drops,x,sounds/greatgatsby_english.wav,,,,,,,,,0,0,0,0,0,162,162,174,411.303772769,1.02631747723e-05,412.159894212,0.85613202781,,,,,x,1,0.833755459171,2018_Nov_28_1540,59.9808588799,chinese_cond1,001,1065,
images/bowl02b (1).jpg,bowl,z,sounds/greatgatsby_english.wav,,,,,,,,,0,0,0,0,0,163,163,24,413.35895616,9.30100213736e-06,414.110403987,0.751457769191,,,,,z,1,0.733736183611,2018_Nov_28_1540,59.9808588799,chinese_cond1,001,1065,
images/toucan.jpg,toucan,z,sounds/greatgatsby_english.wav,,,,,,,,,0,0,0,0,0,164,164,81,415.290472679,9.621726349e-06,416.32764872,1.03718566278,,,,,z,1,1.01715486695,2018_Nov_28_1540,59.9808588799,chinese_cond1,001,1065,
images/electricguitar02.jpg,electric guitar,z,sounds/greatgatsby_english.wav,,,,,,,,,0,0,0,0,0,165,165,100,417.461139358,1.05837825686e-05,418.111428057,0.650299603934,,,,,z,1,0.633706644992,2018_Nov_28_1540,59.9808588799,chinese_cond1,001,1065,
images/flower01.jpg,bus,x,sounds/greatgatsby_english.wav,,,,,,,,,0,0,0,0,0,166,166,140,419.316010942,1.02631747723e-05,419.928559447,0.612558768713,,,,,x,1,0.600361648016,2018_Nov_28_1540,59.9808588799,chinese_cond1,001,1065,
images/ant.jpg,ant,z,sounds/greatgatsby_english.wav,,,,,,,,,0,0,0,0,0,167,167,98,421.088281431,8.98027792573e-06,421.912486702,0.824215854751,,,,,z,1,0.800464985194,2018_Nov_28_1540,59.9808588799,chinese_cond1,001,1065,
images/lemon02.jpg,lemon,z,sounds/greatgatsby_english.wav,,,,,,,,,0,0,0,0,0,168,168,14,423.112596133,1.12253474072e-05,423.662984545,0.550399637665,,,,,z,1,0.533762098057,2018_Nov_28_1540,59.9808588799,chinese_cond1,001,1065,
images/cauliflower01.jpg,glue stick,x,sounds/greatgatsby_english.wav,,,,,,,,,0,0,0,0,0,169,169,181,424.866878836,9.30100213736e-06,425.530095265,0.663226370933,,,,,x,1,0.65044874046,2018_Nov_28_1540,59.9808588799,chinese_cond1,001,1065,
images/belt02a.jpg,snowman,x,sounds/greatgatsby_english.wav,,,,,,,,,0,0,0,0,0,170,170,224,426.723091686,9.621726349e-06,427.447199746,0.724118643324,,,,,x,1,0.700353982742,2018_Nov_28_1540,59.9808588799,chinese_cond1,001,1065,
images/flashlight05.jpg,flash light,z,sounds/greatgatsby_english.wav,,,,,,,,,0,0,0,0,0,171,171,8,428.62960908,9.94245056063e-06,429.247693917,0.618095100275,,,,,z,1,0.600402700598,2018_Nov_28_1540,59.9808588799,chinese_cond1,001,1065,
images/toothbrush03a.jpg,parrot,x,sounds/greatgatsby_english.wav,,,,,,,,,0,0,0,0,0,172,172,210,430.414420505,9.94245056063e-06,431.064878547,0.650468304637,,,,,x,1,0.633749301312,2018_Nov_28_1540,59.9808588799,chinese_cond1,001,1065,
images/flipflop01b.jpg,flip flop,z,sounds/greatgatsby_english.wav,,,,,,,,,0,0,0,0,0,173,173,27,432.274910205,1.09046231955e-05,432.815272476,0.540373495547,,,,,z,1,0.517007494345,2018_Nov_28_1540,59.9808588799,chinese_cond1,001,1065,
images/pineapple01a.jpg,pineapple,z,sounds/greatgatsby_english.wav,,,,,,,,,0,0,0,0,0,174,174,51,434.070855232,9.621726349e-06,434.582561806,0.511717157671,,,,,z,1,0.500493754167,2018_Nov_28_1540,59.9808588799,chinese_cond1,001,1065,
images/lamp04b.jpg,parking meter,x,sounds/greatgatsby_english.wav,,,,,,,,,0,0,0,0,0,175,175,209,435.777967504,1.02631747723e-05,436.449531407,0.671574166161,,,,,x,1,0.650372728938,2018_Nov_28_1540,59.9808588799,chinese_cond1,001,1065,
images/panda.jpg,panda,z,sounds/greatgatsby_english.wav,,,,,,,,,0,0,0,0,0,176,176,83,437.596892059,9.94233414531e-06,438.183399087,0.586517611402,,,,,z,1,0.567094907514,2018_Nov_28_1540,59.9808588799,chinese_cond1,001,1065,
images/cigar.jpg,crocodile,x,sounds/greatgatsby_english.wav,,,,,,,,,0,0,0,0,0,177,177,162,439.32001678,1.02631747723e-05,439.900473035,0.580467159627,,,,,x,1,0.567055458552,2018_Nov_28_1540,59.9808588799,chinese_cond1,001,1065,
images/charcoalbarbecue.jpg,charcoal barbecue,z,sounds/greatgatsby_english.wav,,,,,,,,,0,0,0,0,0,178,178,77,441.056575974,8.98027792573e-06,442.034398895,0.977832863806,,,,,z,1,0.96719702601,2018_Nov_28_1540,59.9808588799,chinese_cond1,001,1065,
images/bottleofredwine02.jpg,pipe,x,sounds/greatgatsby_english.wav,,,,,,,,,0,0,0,0,0,179,179,213,443.220279421,9.94245056063e-06,445.468634349,2.24836551212,,,,,x,1,2.23407150013,2018_Nov_28_1540,59.9808588799,chinese_cond1,001,1065,
images/fork01.jpg,cooking pot,x,sounds/greatgatsby_english.wav,,,,,,,,,0,0,0,0,0,180,180,160,446.649403823,1.05838989839e-05,447.585775778,0.936382859363,,,,,x,1,0.917094859527,2018_Nov_28_1540,59.9808588799,chinese_cond1,001,1065,
images/bus.jpg,microphone,x,sounds/greatgatsby_english.wav,,,,,,,,,0,0,0,0,0,181,181,203,448.778022027,9.94245056063e-06,449.502905596,0.724894794635,,,,,x,1,0.700407222845,2018_Nov_28_1540,59.9808588799,chinese_cond1,001,1065,
images/bull.jpg,button,x,sounds/greatgatsby_english.wav,,,,,,,,,0,0,0,0,0,182,182,141,450.710189936,8.98027792573e-06,451.253347633,0.543167639989,,,,,x,1,0.533687369549,2018_Nov_28_1540,59.9808588799,chinese_cond1,001,1065,
images/highlighter03b.jpg,coin,x,sounds/greatgatsby_english.wav,,,,,,,,,0,0,0,0,0,183,183,156,452.384117893,9.621726349e-06,452.970461672,0.586355646024,,,,,x,1,0.567021141178,2018_Nov_28_1540,59.9808588799,chinese_cond1,001,1065,
images/beermug01b.jpg,beer mug,z,sounds/greatgatsby_english.wav,,,,,,,,,0,0,0,0,0,184,184,111,454.129147398,9.30100213736e-06,454.687579239,0.558441783418,,,,,x,0,0.533669729717,2018_Nov_28_1540,59.9808588799,chinese_cond1,001,1065,
images/candy.jpg,candy,z,sounds/greatgatsby_english.wav,,,,,,,,,0,0,0,0,0,185,185,31,455.823948371,9.30100213736e-06,456.488049035,0.664110605954,,,,,z,1,0.650391010218,2018_Nov_28_1540,59.9808588799,chinese_cond1,001,1065,
images/headphones02b.jpg,headphones,z,sounds/greatgatsby_english.wav,,,,,,,,,0,0,0,0,0,186,186,101,457.680960144,8.98027792573e-06,458.238516409,0.557565886993,,,,,z,1,0.533705650712,2018_Nov_28_1540,59.9808588799,chinese_cond1,001,1065,
images/doll.jpg,carrot,x,sounds/greatgatsby_english.wav,,,,,,,,,0,0,0,0,0,187,187,146,459.432015726,9.94245056063e-06,460.072302979,0.640297516016,,,,,x,1,0.617040240206,2018_Nov_28_1540,59.9808588799,chinese_cond1,001,1065,
images/shotglass.jpg,shot glass,z,sounds/greatgatsby_english.wav,,,,,,,,,0,0,0,0,0,188,188,86,461.255219056,9.30100213736e-06,462.072824475,0.817615041276,,,,,z,1,0.800427139737,2018_Nov_28_1540,59.9808588799,chinese_cond1,001,1065,
images/egg01b (1).jpg,egg,z,sounds/greatgatsby_english.wav,,,,,,,,,0,0,0,0,0,189,189,19,463.223594741,9.621726349e-06,463.773274034,0.549690196989,,,,,z,1,0.533699236228,2018_Nov_28_1540,59.9808588799,chinese_cond1,001,1065,
images/gamecontroller01.jpg,game controller,z,sounds/greatgatsby_english.wav,,,,,,,,,0,0,0,0,0,190,190,112,464.965018992,1.02631747723e-05,465.64041458,0.675406172522,,,,,z,1,0.667046510382,2018_Nov_28_1540,59.9808588799,chinese_cond1,001,1065,
images/straw.jpg,straw,z,sounds/greatgatsby_english.wav,,,,,,,,,0,0,0,0,0,191,191,109,466.795098958,9.62160993367e-06,467.424240101,0.629150765366,,,,,z,1,0.617077764939,2018_Nov_28_1540,59.9808588799,chinese_cond1,001,1065,
images/carrot02.jpg,corkscrew,x,sounds/greatgatsby_english.wav,,,,,,,,,0,0,0,0,0,192,192,161,468.608504822,9.30100213736e-06,469.524762272,0.916267392458,,,,,x,1,0.900452509057,2018_Nov_28_1540,59.9808588799,chinese_cond1,001,1065,
images/parkfountain.jpg,park fountain,z,sounds/greatgatsby_english.wav,,,,,,,,,0,0,0,0,0,193,193,93,470.715081934,9.621726349e-06,471.808680001,1.09360800963,,,,,z,1,1.08383267338,2018_Nov_28_1540,59.9808588799,chinese_cond1,001,1065,
images/globe.jpg,cloud,x,sounds/greatgatsby_english.wav,,,,,,,,,0,0,0,0,0,194,194,154,473.007536685,9.621726349e-06,473.842553871,0.835027128342,,,,,x,1,0.817113429424,2018_Nov_28_1540,59.9808588799,chinese_cond1,001,1065,
images/diaper01a.jpg,camera,x,sounds/greatgatsby_english.wav,,,,,,,,,0,0,0,0,0,195,195,143,475.034344372,9.621726349e-06,475.726366595,0.692031845334,,,,,x,1,0.683730234159,2018_Nov_28_1540,59.9808588799,chinese_cond1,001,1065,
images/feather03b.jpg,feather,z,sounds/greatgatsby_english.wav,,,,,,,,,0,0,0,0,0,196,196,114,476.891882773,9.94245056063e-06,477.46015185,0.568279660773,,,,,x,0,0.550358264358,2018_Nov_28_1540,59.9808588799,chinese_cond1,001,1065,
images/honeycomb.jpg,honey comb,z,sounds/greatgatsby_english.wav,,,,,,,,,0,0,0,0,0,197,197,59,478.648017655,9.62160993367e-06,479.160595956,0.512588563724,,,,,z,1,0.500364181702,2018_Nov_28_1540,59.9808588799,chinese_cond1,001,1065,
images/licenseplate.jpg,license plate,z,sounds/greatgatsby_english.wav,,,,,,,,,0,0,0,0,0,198,198,40,480.351268735,8.98027792573e-06,481.127772776,0.776513984078,,,,,z,1,0.767095613177,2018_Nov_28_1540,59.9808588799,chinese_cond1,001,1065,
images/broom02.jpg,broom,z,sounds/greatgatsby_english.wav,,,,,,,,,0,0,0,0,0,199,199,116,482.278208848,9.94245056063e-06,482.861545843,0.583347578766,,,,,z,1,0.567034611595,2018_Nov_28_1540,59.9808588799,chinese_cond1,001,1065,
images/seagull.jpg,seagull,z,sounds/greatgatsby_english.wav,,,,,,,,,0,0,0,0,0,200,200,50,484.006619736,9.94245056063e-06,484.67868493,0.672075136565,,,,,z,1,0.65039421746,2018_Nov_28_1540,59.9808588799,chinese_cond1,001,1065,
images/mushroom01.jpg,shower head,x,sounds/greatgatsby_english.wav,,,,,,,,,0,0,0,0,0,201,201,222,485.849246412,1.02631747723e-05,486.895932551,1.04669640202,,,,,x,1,1.03381742293,2018_Nov_28_1540,59.9808588799,chinese_cond1,001,1065,
images/birthdaycandle.jpg,birthday candle,z,sounds/greatgatsby_english.wav,,,,,,,,,0,0,0,0,0,202,202,55,488.106936002,8.98027792573e-06,488.913129112,0.806203693501,,,,,z,1,0.78376907378,2018_Nov_28_1540,59.9808588799,chinese_cond1,001,1065,
images/banana04a.jpg,banana,z,sounds/greatgatsby_english.wav,,,,,,,,,0,0,0,0,0,203,203,118,490.048712792,9.30100213736e-06,490.530186029,0.481482538627,,,,,z,1,0.466997375479,2018_Nov_28_1540,59.9808588799,chinese_cond1,001,1065,
images/razor04a.jpg,razor,z,sounds/greatgatsby_english.wav,,,,,,,,,0,0,0,0,0,204,204,36,491.693329493,9.621726349e-06,492.213968862,0.520649311482,,,,,x,0,0.500352635747,2018_Nov_28_1540,59.9808588799,chinese_cond1,001,1065,
images/djmixer01.jpg,light bulb,x,sounds/greatgatsby_english.wav,,,,,,,,,0,0,0,0,0,205,205,196,493.406835712,9.94245056063e-06,494.347711268,0.940886140219,,,,,x,1,0.916965607903,2018_Nov_28_1540,59.9808588799,chinese_cond1,001,1065,
images/pen03c.jpg,pepper,x,sounds/greatgatsby_english.wav,,,,,,,,,0,0,0,0,0,206,206,211,495.523024591,9.94245056063e-06,496.298396799,0.775382471038,,,,,x,1,0.767085350119,2018_Nov_28_1540,59.9808588799,chinese_cond1,001,1065,
images/saltshaker03c.jpg,salt shaker,z,sounds/greatgatsby_english.wav,,,,,,,,,0,0,0,0,0,207,207,63,497.479249981,9.94245056063e-06,498.365565954,0.886326235603,,,,,z,1,0.867116492242,2018_Nov_28_1540,59.9808588799,chinese_cond1,001,1065,
images/basketball01.jpg,basket ball,z,sounds/greatgatsby_english.wav,,,,,,,,,0,0,0,0,0,208,208,33,499.572050409,9.621726349e-06,500.082685445,0.510645299219,,,,,z,1,0.500362578081,2018_Nov_28_1540,59.9808588799,chinese_cond1,001,1065,
images/remotecontrol01c.jpg,remote control,z,sounds/greatgatsby_english.wav,,,,,,,,,0,0,0,0,0,209,209,85,501.267235288,9.30100213736e-06,501.933159266,0.665934240795,,,,,z,1,0.650389406714,2018_Nov_28_1540,59.9808588799,chinese_cond1,001,1065,
images/highheelshoe02a.jpg,high heel shoe,z,sounds/greatgatsby_english.wav,,,,,,,,,0,0,0,0,0,210,210,75,503.114911758,9.621726349e-06,503.933687177,0.818786003278,,,,,z,1,0.800439006533,2018_Nov_28_1540,59.9808588799,chinese_cond1,001,1065,
images/gluestick.jpg,squirrel,x,sounds/greatgatsby_english.wav,,,,,,,,,0,0,0,0,0,211,211,226,505.114944151,9.30100213736e-06,505.917517894,0.802584006335,,,,,x,1,0.78375111334,2018_Nov_28_1540,59.9808588799,chinese_cond1,001,1065,
images/mitten01.jpg,mitten,z,sounds/greatgatsby_english.wav,,,,,,,,,0,0,0,0,0,212,212,102,507.109801668,9.62160993367e-06,507.784676401,0.674884355045,,,,,x,0,0.650390689494,2018_Nov_28_1540,59.9808588799,chinese_cond1,001,1065,
images/plate01b.jpg,plate,z,sounds/greatgatsby_english.wav,,,,,,,,,0,0,0,0,0,213,213,3,508.961966344,9.621726349e-06,509.601814205,0.639858445385,,,,,z,1,0.617052427726,2018_Nov_28_1540,59.9808588799,chinese_cond1,001,1065,
images/lollipop03b.jpg,lollipop,z,sounds/greatgatsby_english.wav,,,,,,,,,0,0,0,0,0,214,214,42,510.771929881,9.621726349e-06,511.302252538,0.530332920724,,,,,z,1,0.517025134177,2018_Nov_28_1540,59.9808588799,chinese_cond1,001,1065,
images/pepper05a.jpg,lighter,x,sounds/greatgatsby_english.wav,,,,,,,,,0,0,0,0,0,215,215,198,512.498747093,9.621726349e-06,513.402795876,0.904058725806,,,,,x,1,0.883776482544,2018_Nov_28_1540,59.9808588799,chinese_cond1,001,1065,
images/screw03c.jpg,screw,z,sounds/greatgatsby_english.wav,,,,,,,,,0,0,0,0,0,216,216,84,514.527971112,9.30100213736e-06,516.520265084,1.99230359436,,,,,z,1,1.98406741093,2018_Nov_28_1540,59.9808588799,chinese_cond1,001,1065,
images/ladder.jpg,ladder,z,sounds/greatgatsby_english.wav,,,,,,,,,0,0,0,0,0,217,217,113,517.67646007,9.621726349e-06,518.304066551,0.627616744139,,,,,z,1,0.617057559313,2018_Nov_28_1540,59.9808588799,chinese_cond1,001,1065,
images/apricot.jpg,apricot,z,sounds/greatgatsby_english.wav,,,,,,,,,0,0,0,0,0,218,218,32,519.459777245,9.94245056063e-06,520.304579389,0.844812407158,,,,,z,1,0.833742630086,2018_Nov_28_1540,59.9808588799,chinese_cond1,001,1065,
images/bicycle.jpg,hand bag,x,sounds/greatgatsby_english.wav,,,,,,,,,0,0,0,0,0,219,219,186,521.493138919,9.621726349e-06,522.155086886,0.661958229612,,,,,x,1,0.650409932947,2018_Nov_28_1540,59.9808588799,chinese_cond1,001,1065,
images/lily.jpg,kiwi,x,sounds/greatgatsby_english.wav,,,,,,,,,0,0,0,0,0,220,220,190,523.321863186,9.621726349e-06,524.772427002,1.4505740793,,,,,x,1,1.43394519924,2018_Nov_28_1540,59.9808588799,chinese_cond1,001,1065,
images/safe.jpg,safe,z,sounds/greatgatsby_english.wav,,,,,,,,,0,0,0,0,0,221,221,78,525.96056831,9.621726349e-06,526.739590353,0.779032306164,,,,,z,1,0.767096896074,2018_Nov_28_1540,59.9808588799,chinese_cond1,001,1065,
images/bracelet02a.jpg,chess knight,x,sounds/greatgatsby_english.wav,,,,,,,,,0,0,0,0,0,222,222,152,527.919328058,9.30100213736e-06,529.44029649,1.52097805322,,,,,x,1,1.50061434624,2018_Nov_28_1540,59.9808588799,chinese_cond1,001,1065,
images/giraffe.jpg,lettuce,x,sounds/greatgatsby_english.wav,,,,,,,,,0,0,0,0,0,223,223,195,530.622435133,9.30100213736e-06,531.340784599,0.718359408667,,,,,x,1,0.700401770533,2018_Nov_28_1540,59.9808588799,chinese_cond1,001,1065,
images/stapler03a.jpg,candy cane,x,sounds/greatgatsby_english.wav,,,,,,,,,0,0,0,0,0,224,224,145,532.533735157,9.94245056063e-06,533.224599248,0.690874674357,,,,,x,1,0.667057735729,2018_Nov_28_1540,59.9808588799,chinese_cond1,001,1065,
images/parrot01.jpg,chameleon,x,sounds/greatgatsby_english.wav,,,,,,,,,0,0,0,0,0,225,225,150,534.418964839,9.94245056063e-06,535.225118499,0.806164244539,,,,,x,1,0.783760735067,2018_Nov_28_1540,59.9808588799,chinese_cond1,001,1065,
images/ladybug03.jpg,giraffe,x,sounds/greatgatsby_english.wav,,,,,,,,,0,0,0,0,0,226,226,178,536.413208811,9.30100213736e-06,537.192295961,0.779096771614,,,,,x,1,0.767094971729,2018_Nov_28_1540,59.9808588799,chinese_cond1,001,1065,
images/croissant02b.jpg,croissant,z,sounds/greatgatsby_english.wav,,,,,,,,,0,0,0,0,0,227,227,39,538.382123312,9.30100213736e-06,538.909430206,0.527317156317,,,,,z,1,0.517045981134,2018_Nov_28_1540,59.9808588799,chinese_cond1,001,1065,
images/nametag01a.jpg,name tag,z,sounds/greatgatsby_english.wav,,,,,,,,,0,0,0,0,0,228,228,108,540.062403843,9.30100213736e-06,540.643199103,0.580805202364,,,,,x,0,0.567050006241,2018_Nov_28_1540,59.9808588799,chinese_cond1,001,1065,
images/spoon02b.jpg,spoon,z,sounds/greatgatsby_english.wav,,,,,,,,,0,0,0,0,0,229,229,38,541.802512485,9.94245056063e-06,542.443661522,0.641158659128,,,,,z,1,0.617052427726,2018_Nov_28_1540,59.9808588799,chinese_cond1,001,1065,
images/axe01.jpg,axe,z,sounds/greatgatsby_english.wav,,,,,,,,,0,0,0,0,0,230,230,104,543.617016186,1.02630583569e-05,544.310808163,0.693802560563,,,,,z,1,0.683736328036,2018_Nov_28_1540,59.9808588799,chinese_cond1,001,1065,
images/cat.jpg,black olive,x,sounds/greatgatsby_english.wav,,,,,,,,,0,0,0,0,0,231,231,133,545.513543358,1.02631747723e-05,546.328004724,0.814471949358,,,,,x,1,0.800446383189,2018_Nov_28_1540,59.9808588799,chinese_cond1,001,1065,
images/envelope02a.jpg,grand piano,x,sounds/greatgatsby_english.wav,,,,,,,,,0,0,0,0,0,232,232,182,547.521463629,9.62160993367e-06,548.378789069,0.857336345129,,,,,x,1,0.833950138418,2018_Nov_28_1540,59.9808588799,chinese_cond1,001,1065,
images/coin01b.jpg,arrow,x,sounds/greatgatsby_english.wav,,,,,,,,,0,0,0,0,0,233,233,124,549.558974185,9.94233414531e-06,550.279046258,0.72008265683,,,,,x,1,0.700421655434,2018_Nov_28_1540,59.9808588799,chinese_cond1,001,1065,
images/lightbulb03b.jpg,treadmill,x,sounds/greatgatsby_english.wav,,,,,,,,,0,0,0,0,0,234,234,234,551.452589827,9.621726349e-06,552.312891904,0.860312339966,,,,,x,1,0.85045810556,2018_Nov_28_1540,59.9808588799,chinese_cond1,001,1065,
images/lock02a.jpg,lock,z,sounds/greatgatsby_english.wav,,,,,,,,,0,0,0,0,0,235,235,65,553.505419749,9.621726349e-06,554.013319974,0.507909847074,,,,,z,1,0.483675967786,2018_Nov_28_1540,59.9808588799,chinese_cond1,001,1065,
images/wallet01.jpg,lamp,x,sounds/greatgatsby_english.wav,,,,,,,,,0,0,0,0,0,236,236,193,555.205918378,9.94245056063e-06,555.88047816,0.674570366624,,,,,x,1,0.650394538185,2018_Nov_28_1540,59.9808588799,chinese_cond1,001,1065,
images/grandpiano.jpg,tulip,x,sounds/greatgatsby_english.wav,,,,,,,,,0,0,0,0,0,237,237,236,557.051877051,9.30100213736e-06,557.814313191,0.762446082314,,,,,x,1,0.750426321989,2018_Nov_28_1540,59.9808588799,chinese_cond1,001,1065,
images/rhinoceros01.jpg,envelope,x,sounds/greatgatsby_english.wav,,,,,,,,,0,0,0,0,0,238,238,173,559.000872689,9.30100213736e-06,559.648150756,0.647288008826,,,,,x,1,0.633754112059,2018_Nov_28_1540,59.9808588799,chinese_cond1,001,1065,
images/volleyball.jpg,volley ball,z,sounds/greatgatsby_english.wav,,,,,,,,,0,0,0,0,0,239,239,2,560.782529156,9.94245056063e-06,561.281883379,0.499363844632,,,,,z,1,0.483687513857,2018_Nov_28_1540,59.9808588799,chinese_cond1,001,1065,
,,,sounds/greatgatsby_english.wav,,,,,,,,,0,0,0,0,,,,,,,,,,,,,,,,2018_Nov_28_1540,59.9808588799,chinese_cond1,001,1065,
images/bull.jpg,button,x,sounds/animalfarm_chinese.wav,,,,,,,,,0,1,1,1,0,0,0,141,582.416011936,1.02631747723e-05,583.821054161,1.40505280881,,,,572.284917746,x,1,1.38391166751,2018_Nov_28_1540,59.9808588799,chinese_cond1,001,1065,
images/remotecontrol01c.jpg,remote control,z,sounds/animalfarm_chinese.wav,,,,,,,,,0,1,1,1,0,1,1,85,584.930449472,9.30088572204e-06,585.571495236,0.641055386048,,,,,z,1,0.617049541208,2018_Nov_28_1540,59.9808588799,chinese_cond1,001,1065,
images/radio03a.jpg,radio,z,sounds/animalfarm_chinese.wav,,,,,,,,,0,1,1,1,0,2,2,37,586.685612882,9.94245056063e-06,587.505352397,0.819749777904,,,,,z,1,0.80045408057,2018_Nov_28_1540,59.9808588799,chinese_cond1,001,1065,
images/ruler02b.jpg,watermelon,x,sounds/animalfarm_chinese.wav,,,,,,,,,0,1,1,1,0,3,3,238,588.608554534,9.30100213736e-06,590.089345271,1.48080068012,,,,,x,1,1.46726261394,2018_Nov_28_1540,59.9808588799,chinese_cond1,001,1065,
images/highheelshoe02a.jpg,high heel shoe,z,sounds/animalfarm_chinese.wav,,,,,,,,,0,1,1,1,0,4,4,75,591.195325517,9.621726349e-06,591.723094894,0.527779319091,,,,,z,1,0.517030907096,2018_Nov_28_1540,59.9808588799,chinese_cond1,001,1065,
images/electricguitar02.jpg,electric guitar,z,sounds/animalfarm_chinese.wav,,,,,,,,,0,1,1,1,0,5,5,100,592.825621907,9.621726349e-06,593.357101736,0.5314900917,,,,,z,1,0.517278185114,2018_Nov_28_1540,59.9808588799,chinese_cond1,001,1065,
images/lollipop03b.jpg,lollipop,z,sounds/animalfarm_chinese.wav,,,,,,,,,0,1,1,1,0,6,6,42,594.450939384,9.30100213736e-06,595.040623179,0.589694058406,,,,,z,1,0.567043912481,2018_Nov_28_1540,59.9808588799,chinese_cond1,001,1065,
images/cheetah.jpg,cheetah,z,sounds/animalfarm_chinese.wav,,,,,,,,,0,1,1,1,0,7,7,82,596.143627429,8.98016151041e-06,596.841096182,0.697478695074,,,,,z,1,0.683739214553,2018_Nov_28_1540,59.9808588799,chinese_cond1,001,1065,
images/bracelet02a.jpg,chess knight,x,sounds/animalfarm_chinese.wav,,,,,,,,,0,1,1,1,0,8,8,152,597.949093459,9.30100213736e-06,598.724936489,0.775852972525,,,,,x,1,0.767122554011,2018_Nov_28_1540,59.9808588799,chinese_cond1,001,1065,
images/bench02.jpg,electric toothbrush,x,sounds/animalfarm_chinese.wav,,,,,,,,,0,1,1,1,0,9,9,172,599.835420977,1.02631747723e-05,600.975489657,1.14007894287,,,,,x,1,1.11718312267,2018_Nov_28_1540,59.9808588799,chinese_cond1,001,1065,
images/drink.jpg,drink,z,sounds/animalfarm_chinese.wav,,,,,,,,,0,1,1,1,0,10,10,117,602.077787032,9.621726349e-06,602.792628103,0.714851333294,,,,,z,1,0.700411392259,2018_Nov_28_1540,59.9808588799,chinese_cond1,001,1065,
images/bowlingball.jpg,bowling ball,z,sounds/animalfarm_chinese.wav,,,,,,,,,0,1,1,1,0,11,11,20,603.926081536,9.30088572204e-06,604.526418168,0.600346894702,,,,,z,1,0.583716411027,2018_Nov_28_1540,59.9808588799,chinese_cond1,001,1065,
images/coffeepot03b.jpg,coffee pot,z,sounds/animalfarm_chinese.wav,,,,,,,,,0,1,1,1,0,12,12,107,605.650329111,1.02631747723e-05,606.243532848,0.593214000575,,,,,z,1,0.583714807406,2018_Nov_28_1540,59.9808588799,chinese_cond1,001,1065,
images/gps.jpg,gps,z,sounds/animalfarm_chinese.wav,,,,,,,,,0,1,1,1,0,13,13,21,607.362508174,8.98016151041e-06,607.977388662,0.614890750265,,,,,z,1,0.600449846941,2018_Nov_28_1540,59.9808588799,chinese_cond1,001,1065,
images/cat.jpg,black olive,x,sounds/animalfarm_chinese.wav,,,,,,,,,0,1,1,1,0,14,14,133,609.108867079,9.30088572204e-06,609.844455762,0.735598625848,,,,,x,1,0.717057270696,2018_Nov_28_1540,59.9808588799,chinese_cond1,001,1065,
images/tissuebox03.jpg,tissue box,z,sounds/animalfarm_chinese.wav,,,,,,,,,0,1,1,1,0,15,15,58,610.970705743,9.62160993367e-06,611.644941274,0.674246114912,,,,,z,1,0.650412178016,2018_Nov_28_1540,59.9808588799,chinese_cond1,001,1065,
images/cherry01.jpg,highlighter,x,sounds/animalfarm_chinese.wav,,,,,,,,,0,1,1,1,0,16,16,187,612.756137127,9.30100213736e-06,613.445231144,0.689104279852,,,,,x,1,0.666910202825,2018_Nov_28_1540,59.9808588799,chinese_cond1,001,1065,
images/backpack01b.jpg,swallow,x,sounds/animalfarm_chinese.wav,,,,,,,,,0,1,1,1,0,17,17,228,614.577128426,9.94245056063e-06,615.429247881,0.852129717357,,,,,x,1,0.833772136713,2018_Nov_28_1540,59.9808588799,chinese_cond1,001,1065,
images/pepper05a.jpg,lighter,x,sounds/animalfarm_chinese.wav,,,,,,,,,0,1,1,1,0,18,18,198,616.551761751,8.98027792573e-06,617.129685572,0.577933442779,,,,,x,1,0.56705449638,2018_Nov_28_1540,59.9808588799,chinese_cond1,001,1065,
images/crocodile.jpg,triangle ruler,x,sounds/animalfarm_chinese.wav,,,,,,,,,0,1,1,1,0,19,19,235,618.228280514,9.30100213736e-06,619.130207069,0.901936818031,,,,,x,1,0.883799895411,2018_Nov_28_1540,59.9808588799,chinese_cond1,001,1065,
images/icecube02 (2).jpg,aloe,x,sounds/animalfarm_chinese.wav,,,,,,,,,0,1,1,1,0,20,20,122,620.241849049,8.98027792573e-06,621.147387594,0.905548487091,,,,,x,1,0.883797008893,2018_Nov_28_1540,59.9808588799,chinese_cond1,001,1065,
images/grasshopper.jpg,cauliflower,x,sounds/animalfarm_chinese.wav,,,,,,,,,0,1,1,1,0,21,21,148,622.241560718,9.621726349e-06,623.164565232,0.923015418113,,,,,x,1,0.900453150505,2018_Nov_28_1540,59.9808588799,chinese_cond1,001,1065,
images/dolphin01.jpg,dolphin,z,sounds/animalfarm_chinese.wav,,,,,,,,,0,1,1,1,0,22,22,99,624.265878307,9.62160993367e-06,624.831678453,0.565810729982,,,,,x,0,0.550377828535,2018_Nov_28_1540,59.9808588799,chinese_cond1,001,1065,
images/flamingo.jpg,flamingo,z,sounds/animalfarm_chinese.wav,,,,,,,,,0,1,1,1,0,23,23,52,625.930830812,9.94245056063e-06,626.532116465,0.601296236739,,,,,z,1,0.583710317267,2018_Nov_28_1540,59.9808588799,chinese_cond1,001,1065,
images/plant01.jpg,plant,z,sounds/animalfarm_chinese.wav,,,,,,,,,0,1,1,1,0,24,24,47,627.644947688,9.621726349e-06,628.132558615,0.487621830893,,,,,z,1,0.467038748902,2018_Nov_28_1540,59.9808588799,chinese_cond1,001,1065,
images/blackolive.jpg,tank,x,sounds/animalfarm_chinese.wav,,,,,,,,,0,1,1,1,0,25,25,229,629.248715422,9.94245056063e-06,629.999687615,0.750982777448,,,,,x,1,0.733762162272,2018_Nov_28_1540,59.9808588799,chinese_cond1,001,1065,
images/blueberry02.jpg,blueberry,z,sounds/animalfarm_chinese.wav,,,,,,,,,0,1,1,1,0,26,26,46,631.113088764,1.02630583569e-05,631.733640608,0.620562106604,,,,,z,1,0.600554402918,2018_Nov_28_1540,59.9808588799,chinese_cond1,001,1065,
images/beachumbrella01.jpg,beach umbrella,z,sounds/animalfarm_chinese.wav,,,,,,,,,0,1,1,1,0,27,27,92,632.840254924,9.621726349e-06,633.467238239,0.62699357816,,,,,z,1,0.617052427726,2018_Nov_28_1540,59.9808588799,chinese_cond1,001,1065,
images/gamecontroller01.jpg,game controller,z,sounds/animalfarm_chinese.wav,,,,,,,,,0,1,1,1,0,28,28,112,634.587176698,9.621726349e-06,635.167679459,0.580512702465,,,,,z,1,0.567040705355,2018_Nov_28_1540,59.9808588799,chinese_cond1,001,1065,
images/djmixer01.jpg,light bulb,x,sounds/animalfarm_chinese.wav,,,,,,,,,0,1,1,1,0,29,29,196,636.28875328,9.621726349e-06,636.951479643,0.662736305152,,,,,x,1,0.650398066267,2018_Nov_28_1540,59.9808588799,chinese_cond1,001,1065,
images/glasses01b.jpg,calculator,x,sounds/animalfarm_chinese.wav,,,,,,,,,0,1,1,1,0,30,30,142,638.044877899,9.94245056063e-06,638.935333772,0.890466457349,,,,,x,1,0.867126113968,2018_Nov_28_1540,59.9808588799,chinese_cond1,001,1065,
images/squirrel.jpg,binder,x,sounds/animalfarm_chinese.wav,,,,,,,,,0,1,1,1,0,31,31,132,640.039286082,8.98016151041e-06,640.635779161,0.596502380213,,,,,x,1,0.583722183947,2018_Nov_28_1540,59.9808588799,chinese_cond1,001,1065,
images/medal01.jpg,medal,z,sounds/animalfarm_chinese.wav,,,,,,,,,0,1,1,1,0,32,32,115,641.737964925,9.621726349e-06,642.319548524,0.581594182644,,,,,z,1,0.567053534207,2018_Nov_28_1540,59.9808588799,chinese_cond1,001,1065,
images/floorlamp.jpg,floor lamp,z,sounds/animalfarm_chinese.wav,,,,,,,,,0,1,1,1,0,33,33,26,643.41299104,9.621726349e-06,643.919942886,0.506962108775,,,,,z,1,0.48366794968,2018_Nov_28_1540,59.9808588799,chinese_cond1,001,1065,
images/bowl02b (1).jpg,bowl,z,sounds/animalfarm_chinese.wav,,,,,,,,,0,1,1,1,0,34,34,24,645.039323607,1.02631747723e-05,645.620389878,0.581076213857,,,,,z,1,0.567018896108,2018_Nov_28_1540,59.9808588799,chinese_cond1,001,1065,
images/pictureframe04.jpg,picture frame,z,sounds/animalfarm_chinese.wav,,,,,,,,,0,1,1,1,0,35,35,41,646.742986495,9.30100213736e-06,647.304169183,0.561192630208,,,,,z,1,0.550304703414,2018_Nov_28_1540,59.9808588799,chinese_cond1,001,1065,
images/50dollarbill.jpg,cherry,x,sounds/animalfarm_chinese.wav,,,,,,,,,0,1,1,1,0,36,36,151,648.425486113,9.621726349e-06,649.221319528,0.795843357337,,,,,x,1,0.783755603479,2018_Nov_28_1540,59.9808588799,chinese_cond1,001,1065,
images/worldmap.jpg,scooter,x,sounds/animalfarm_chinese.wav,,,,,,,,,0,1,1,1,0,37,37,220,650.353369154,9.94245056063e-06,651.038462464,0.685103252181,,,,,x,1,0.667068640236,2018_Nov_28_1540,59.9808588799,chinese_cond1,001,1065,
images/saltshaker03c.jpg,salt shaker,z,sounds/animalfarm_chinese.wav,,,,,,,,,0,1,1,1,0,38,38,63,652.149943761,9.621726349e-06,652.738929983,0.588996484643,,,,,z,1,0.567068928969,2018_Nov_28_1540,59.9808588799,chinese_cond1,001,1065,
images/peach01.jpg,peach,z,sounds/animalfarm_chinese.wav,,,,,,,,,0,1,1,1,0,39,39,106,653.868584765,9.621726349e-06,654.972820274,1.10424609261,,,,,z,1,1.0838448609,2018_Nov_28_1540,59.9808588799,chinese_cond1,001,1065,
images/gorilla.jpg,gorilla,z,sounds/animalfarm_chinese.wav,,,,,,,,,0,1,1,1,0,40,40,80,656.084796448,9.94245056063e-06,656.773437603,0.688650776516,,,,,z,1,0.667220342555,2018_Nov_28_1540,59.9808588799,chinese_cond1,001,1065,
images/desktopcomputer.jpg,desktop computer,z,sounds/animalfarm_chinese.wav,,,,,,,,,0,1,1,1,0,41,41,16,657.910264408,8.98027792573e-06,658.457114918,0.546859810711,,,,,z,1,0.533746382571,2018_Nov_28_1540,59.9808588799,chinese_cond1,001,1065,
images/corkscrew02a.jpg,masquerade mask,x,sounds/animalfarm_chinese.wav,,,,,,,,,0,1,1,1,0,42,42,201,659.561969423,9.621726349e-06,660.1908418,0.628882640507,,,,,x,1,0.617021958926,2018_Nov_28_1540,59.9808588799,chinese_cond1,001,1065,
images/apricot.jpg,apricot,z,sounds/animalfarm_chinese.wav,,,,,,,,,0,1,1,1,0,43,43,32,661.307219265,9.94233414531e-06,661.941294742,0.63408638176,,,,,z,1,0.617059483659,2018_Nov_28_1540,59.9808588799,chinese_cond1,001,1065,
images/camera01a.jpg,bull,x,sounds/animalfarm_chinese.wav,,,,,,,,,0,1,1,1,0,44,44,138,663.053754888,8.98027792573e-06,663.675079034,0.621333767776,,,,,x,1,0.600387626677,2018_Nov_28_1540,59.9808588799,chinese_cond1,001,1065,
images/stapler03a.jpg,candy cane,x,sounds/animalfarm_chinese.wav,,,,,,,,,0,1,1,1,0,45,45,145,664.78614275,9.621726349e-06,665.442208324,0.656075195642,,,,,x,1,0.633725888329,2018_Nov_28_1540,59.9808588799,chinese_cond1,001,1065,
images/cloud.jpg,ceiling fan,x,sounds/animalfarm_chinese.wav,,,,,,,,,0,1,1,1,0,46,46,149,666.548327763,9.94245056063e-06,667.192706808,0.644389308523,,,,,x,1,0.633783297963,2018_Nov_28_1540,59.9808588799,chinese_cond1,001,1065,
images/mailbox01.jpg,mail box,z,sounds/animalfarm_chinese.wav,,,,,,,,,0,1,1,1,0,47,47,73,668.313508977,9.30100213736e-06,668.876420686,0.562921651406,,,,,z,1,0.55036532029,2018_Nov_28_1540,59.9808588799,chinese_cond1,001,1065,
images/orange.jpg,bat,x,sounds/animalfarm_chinese.wav,,,,,,,,,0,1,1,1,0,48,48,128,670.002663931,9.94245056063e-06,670.710226498,0.707572830725,,,,,x,1,0.683730554883,2018_Nov_28_1540,59.9808588799,chinese_cond1,001,1065,
images/fryingpan01.jpg,frying pan,z,sounds/animalfarm_chinese.wav,,,,,,,,,0,1,1,1,0,49,49,45,671.812009112,9.30088572204e-06,672.34400274,0.532003570232,,,,,z,1,0.517040528939,2018_Nov_28_1540,59.9808588799,chinese_cond1,001,1065,
images/dragonfly02.jpg,dragon fly,z,sounds/animalfarm_chinese.wav,,,,,,,,,0,1,1,1,0,50,50,29,673.443125914,9.30100213736e-06,674.077771958,0.634656628477,,,,,z,1,0.617032542825,2018_Nov_28_1540,59.9808588799,chinese_cond1,001,1065,
images/dryingmachine01.jpg,drying machine,z,sounds/animalfarm_chinese.wav,,,,,,,,,0,1,1,1,0,51,51,18,675.199831364,9.621726349e-06,675.844906058,0.645084958058,,,,,z,1,0.633739038138,2018_Nov_28_1540,59.9808588799,chinese_cond1,001,1065,
images/eraser.jpg,eraser,z,sounds/animalfarm_chinese.wav,,,,,,,,,0,1,1,1,0,52,52,110,676.953859091,9.62160993367e-06,677.47865087,0.524802041356,,,,,z,1,0.500357767218,2018_Nov_28_1540,59.9808588799,chinese_cond1,001,1065,
images/ashtray02b.jpg,ashtray,z,sounds/animalfarm_chinese.wav,,,,,,,,,0,1,1,1,0,53,53,43,678.593388795,9.94245056063e-06,679.21246531,0.619086777791,,,,,z,1,0.600395003217,2018_Nov_28_1540,59.9808588799,chinese_cond1,001,1065,
images/doll.jpg,carrot,x,sounds/animalfarm_chinese.wav,,,,,,,,,0,1,1,1,0,54,54,146,680.323819921,1.02631747723e-05,681.012912655,0.689102676115,,,,,x,1,0.667078261962,2018_Nov_28_1540,59.9808588799,chinese_cond1,001,1065,
images/honeycomb.jpg,honey comb,z,sounds/animalfarm_chinese.wav,,,,,,,,,0,1,1,1,0,55,55,59,682.126591551,9.621726349e-06,682.59664863,0.470067342394,,,,,z,1,0.450343799777,2018_Nov_28_1540,59.9808588799,chinese_cond1,001,1065,
images/knife04.jpg,tooth brush,x,sounds/animalfarm_chinese.wav,,,,,,,,,0,1,1,1,0,56,56,233,683.695191935,9.30088572204e-06,684.697205759,1.00202376617,,,,,x,1,0.983835207066,2018_Nov_28_1540,59.9808588799,chinese_cond1,001,1065,
images/sock03.jpg,sock,z,sounds/animalfarm_chinese.wav,,,,,,,,,0,1,1,1,0,57,57,90,685.80394195,9.94245056063e-06,686.447644269,0.643712902325,,,,,z,1,0.633682590676,2018_Nov_28_1540,59.9808588799,chinese_cond1,001,1065,
images/nametag01a.jpg,name tag,z,sounds/animalfarm_chinese.wav,,,,,,,,,0,1,1,1,0,58,58,108,687.567355015,9.94245056063e-06,688.098079218,0.530734787462,,,,,z,1,0.517014871002,2018_Nov_28_1540,59.9808588799,chinese_cond1,001,1065,
images/pineapple01a.jpg,pineapple,z,sounds/animalfarm_chinese.wav,,,,,,,,,0,1,1,1,0,59,59,51,689.211983904,9.621726349e-06,689.715166284,0.503192643635,,,,,z,1,0.483683985774,2018_Nov_28_1540,59.9808588799,chinese_cond1,001,1065,
images/apple06.jpg,apple,z,sounds/animalfarm_chinese.wav,,,,,,,,,0,1,1,1,0,60,60,13,690.843987827,9.621726349e-06,691.298912202,0.454934958834,,,,,z,1,0.433681564406,2018_Nov_28_1540,59.9808588799,chinese_cond1,001,1065,
images/bus.jpg,microphone,x,sounds/animalfarm_chinese.wav,,,,,,,,,0,1,1,1,0,61,61,203,692.417096623,9.30100213736e-06,693.232761023,0.81567498378,,,,,x,1,0.800463702297,2018_Nov_28_1540,59.9808588799,chinese_cond1,001,1065,
images/watermelon01.jpg,orange,x,sounds/animalfarm_chinese.wav,,,,,,,,,0,1,1,1,0,62,62,207,694.363134227,9.621726349e-06,695.033208689,0.670084084151,,,,,x,1,0.650400952669,2018_Nov_28_1540,59.9808588799,chinese_cond1,001,1065,
images/hairband.jpg,hairband,z,sounds/animalfarm_chinese.wav,,,,,,,,,0,1,1,1,0,63,63,66,696.14429678,9.62160993367e-06,697.100395164,0.956108647049,,,,,z,1,0.933798147365,2018_Nov_28_1540,59.9808588799,chinese_cond1,001,1065,
images/lychee02a.jpg,lychee,z,sounds/animalfarm_chinese.wav,,,,,,,,,0,1,1,1,0,64,64,62,698.225304519,9.621726349e-06,698.750981815,0.525725725456,,,,,z,1,0.517092165421,2018_Nov_28_1540,59.9808588799,chinese_cond1,001,1065,
images/elbow.jpg,elbow,z,sounds/animalfarm_chinese.wav,,,,,,,,,0,1,1,1,0,65,65,105,699.863920481,9.30100213736e-06,700.417934995,0.554024135694,,,,,z,1,0.533703405643,2018_Nov_28_1540,59.9808588799,chinese_cond1,001,1065,
images/swan.jpg,swan,z,sounds/animalfarm_chinese.wav,,,,,,,,,0,1,1,1,0,66,66,54,701.511798301,9.621726349e-06,702.185065246,0.67327688809,,,,,z,1,0.650405442808,2018_Nov_28_1540,59.9808588799,chinese_cond1,001,1065,
images/birthdaycandle.jpg,birthday candle,z,sounds/animalfarm_chinese.wav,,,,,,,,,0,1,1,1,0,67,67,55,703.281206973,9.30100213736e-06,703.985518365,0.70432197582,,,,,z,1,0.683736648643,2018_Nov_28_1540,59.9808588799,chinese_cond1,001,1065,
images/pen03c.jpg,pepper,x,sounds/animalfarm_chinese.wav,,,,,,,,,0,1,1,1,0,68,68,211,705.079684434,9.30100213736e-06,705.819334441,0.739660270279,,,,,x,1,0.717084211414,2018_Nov_28_1540,59.9808588799,chinese_cond1,001,1065,
images/lock02a.jpg,lock,z,sounds/animalfarm_chinese.wav,,,,,,,,,0,1,1,1,0,69,69,65,706.929767293,1.02631747723e-05,707.436413488,0.506656138343,,,,,z,1,0.483684627339,2018_Nov_28_1540,59.9808588799,chinese_cond1,001,1065,
images/candycane01a.jpg,lip,x,sounds/animalfarm_chinese.wav,,,,,,,,,0,1,1,1,0,70,70,200,708.531908315,9.621726349e-06,709.186876694,0.654980245046,,,,,x,1,0.633733264985,2018_Nov_28_1540,59.9808588799,chinese_cond1,001,1065,
images/diploma01.jpg,glasses,x,sounds/animalfarm_chinese.wav,,,,,,,,,0,1,1,1,0,71,71,179,710.321083507,9.621726349e-06,711.103873732,0.782800167683,,,,,x,1,0.766931081889,2018_Nov_28_1540,59.9808588799,chinese_cond1,001,1065,
images/lion.jpg,lion,z,sounds/animalfarm_chinese.wav,,,,,,,,,0,1,1,1,0,72,72,44,712.217748911,1.02631747723e-05,712.687776484,0.470038156491,,,,,z,1,0.450306595885,2018_Nov_28_1540,59.9808588799,chinese_cond1,001,1065,
images/donut.jpg,rhinoceros,x,sounds/animalfarm_chinese.wav,,,,,,,,,0,1,1,1,0,73,73,216,713.814734943,8.98027792573e-06,714.438228784,0.623504104791,,,,,x,1,0.600378967123,2018_Nov_28_1540,59.9808588799,chinese_cond1,001,1065,
images/graduationcap.jpg,graduation cap,z,sounds/animalfarm_chinese.wav,,,,,,,,,0,1,1,1,0,74,74,35,715.541822525,9.30100213736e-06,716.138693737,0.596881475649,,,,,z,1,0.583735975204,2018_Nov_28_1540,59.9808588799,chinese_cond1,001,1065,
images/pipe.jpg,icecube,x,sounds/animalfarm_chinese.wav,,,,,,,,,0,1,1,1,0,75,75,188,717.248823505,9.621726349e-06,718.189220221,0.940406337613,,,,,x,1,0.917148741079,2018_Nov_28_1540,59.9808588799,chinese_cond1,001,1065,
images/banana04a.jpg,banana,z,sounds/animalfarm_chinese.wav,,,,,,,,,0,1,1,1,0,76,76,118,719.295909907,9.30100213736e-06,719.839724447,0.543824161286,,,,,z,1,0.533780379337,2018_Nov_28_1540,59.9808588799,chinese_cond1,001,1065,
images/hand01a.jpg,cupcake,x,sounds/animalfarm_chinese.wav,,,,,,,,,0,1,1,1,0,77,77,163,720.952438286,9.621726349e-06,721.590267833,0.637839489966,,,,,x,1,0.617242616834,2018_Nov_28_1540,59.9808588799,chinese_cond1,001,1065,
images/weight01.jpg,weight,z,sounds/animalfarm_chinese.wav,,,,,,,,,0,1,1,1,0,78,78,67,722.695840759,9.621726349e-06,723.673952332,0.978122156579,,,,,z,1,0.967137050699,2018_Nov_28_1540,59.9808588799,chinese_cond1,001,1065,
images/nailpolish02b.jpg,nail polish,z,sounds/animalfarm_chinese.wav,,,,,,,,,0,1,1,1,0,79,79,94,724.783646557,9.621726349e-06,725.391081445,0.607444509282,,,,,z,1,0.58372731565,2018_Nov_28_1540,59.9808588799,chinese_cond1,001,1065,
images/flipflop01b.jpg,flip flop,z,sounds/animalfarm_chinese.wav,,,,,,,,,0,1,1,1,0,80,80,27,726.509714559,9.30100213736e-06,727.041530185,0.531825889368,,,,,z,1,0.517055282253,2018_Nov_28_1540,59.9808588799,chinese_cond1,001,1065,
images/showerhead01.jpg,skateboard,x,sounds/animalfarm_chinese.wav,,,,,,,,,0,1,1,1,0,81,81,223,728.15051946,9.621726349e-06,728.908654375,0.758145178086,,,,,x,1,0.733757351409,2018_Nov_28_1540,59.9808588799,chinese_cond1,001,1065,
images/hanger02a.jpg,hanger,z,sounds/animalfarm_chinese.wav,,,,,,,,,0,1,1,1,0,82,82,88,730.004450041,1.05838989839e-05,730.609219715,0.604779937072,,,,,z,1,0.583850152791,2018_Nov_28_1540,59.9808588799,chinese_cond1,001,1065,
images/lighter02b.jpg,stapler,x,sounds/animalfarm_chinese.wav,,,,,,,,,0,1,1,1,0,83,83,227,731.712583176,9.30100213736e-06,732.693016146,0.980443233741,,,,,x,1,0.967203440377,2018_Nov_28_1540,59.9808588799,chinese_cond1,001,1065,
images/gluestick.jpg,squirrel,x,sounds/animalfarm_chinese.wav,,,,,,,,,0,1,1,1,0,84,84,226,733.802288299,9.621726349e-06,734.693594732,0.891316695721,,,,,x,1,0.867221689667,2018_Nov_28_1540,59.9808588799,chinese_cond1,001,1065,
images/volleyball.jpg,volley ball,z,sounds/animalfarm_chinese.wav,,,,,,,,,0,1,1,1,0,85,85,2,735.827197623,1.02631747723e-05,736.393941979,0.566755261272,,,,,z,1,0.550378790707,2018_Nov_28_1540,59.9808588799,chinese_cond1,001,1065,
images/puzzle.jpg,puzzle,z,sounds/animalfarm_chinese.wav,,,,,,,,,0,1,1,1,0,86,86,57,737.517365743,1.02631747723e-05,738.161084097,0.643729259144,,,,,z,1,0.633756998577,2018_Nov_28_1540,59.9808588799,chinese_cond1,001,1065,
images/butterfly.jpg,butterfly,z,sounds/animalfarm_chinese.wav,,,,,,,,,0,1,1,1,0,87,87,91,739.271250428,9.30088572204e-06,739.811492747,0.540252261912,,,,,z,1,0.517037321697,2018_Nov_28_1540,59.9808588799,chinese_cond1,001,1065,
images/broadsword.jpg,teapot,x,sounds/animalfarm_chinese.wav,,,,,,,,,0,1,1,1,0,88,88,231,740.906417648,8.98027792573e-06,741.578863541,0.67245615623,,,,,x,1,0.650646306342,2018_Nov_28_1540,59.9808588799,chinese_cond1,001,1065,
images/antelope.jpg,antelope,z,sounds/animalfarm_chinese.wav,,,,,,,,,0,1,1,1,0,89,89,12,742.685936492,9.621726349e-06,743.495862504,0.809936275473,,,,,z,1,0.800470437505,2018_Nov_28_1540,59.9808588799,chinese_cond1,001,1065,
images/mushroom01.jpg,shower head,x,sounds/animalfarm_chinese.wav,,,,,,,,,0,1,1,1,0,90,90,222,744.616585454,1.05838989839e-05,745.296253082,0.679678211571,,,,,x,1,0.667047472554,2018_Nov_28_1540,59.9808588799,chinese_cond1,001,1065,
images/flower01.jpg,bus,x,sounds/animalfarm_chinese.wav,,,,,,,,,0,1,1,1,0,91,91,140,746.414479839,9.94245056063e-06,747.096691447,0.682221550145,,,,,x,1,0.667044265429,2018_Nov_28_1540,59.9808588799,chinese_cond1,001,1065,
images/screwdriver02b.jpg,cola,x,sounds/animalfarm_chinese.wav,,,,,,,,,0,1,1,1,0,92,92,158,748.195274843,9.30100213736e-06,748.813845897,0.618581317365,,,,,x,1,0.600407190737,2018_Nov_28_1540,59.9808588799,chinese_cond1,001,1065,
images/acousticguitar02.jpg,acoustic guitar,z,sounds/animalfarm_chinese.wav,,,,,,,,,0,1,1,1,0,93,93,97,749.933202243,9.621726349e-06,750.430939056,0.497747076792,,,,,z,1,0.483718623989,2018_Nov_28_1540,59.9808588799,chinese_cond1,001,1065,
images/bicycle.jpg,hand bag,x,sounds/animalfarm_chinese.wav,,,,,,,,,0,1,1,1,0,94,94,186,751.544136546,1.05838989839e-05,752.098245994,0.554120352841,,,,,x,1,0.533902254305,2018_Nov_28_1540,59.9808588799,chinese_cond1,001,1065,
images/aloe02.jpg,broad sword,x,sounds/animalfarm_chinese.wav,,,,,,,,,0,1,1,1,0,95,95,137,753.222152768,9.94245056063e-06,753.931843658,0.70970083226,,,,,x,1,0.70044089877,2018_Nov_28_1540,59.9808588799,chinese_cond1,001,1065,
images/plate01b.jpg,plate,z,sounds/animalfarm_chinese.wav,,,,,,,,,0,1,1,1,0,96,96,3,755.036682768,9.621726349e-06,755.548937138,0.512264953693,,,,,z,1,0.500406838022,2018_Nov_28_1540,59.9808588799,chinese_cond1,001,1065,
images/toucan.jpg,toucan,z,sounds/animalfarm_chinese.wav,,,,,,,,,0,1,1,1,0,97,97,81,756.653758288,9.621726349e-06,757.449411777,0.795663431287,,,,,x,0,0.783786072163,2018_Nov_28_1540,59.9808588799,chinese_cond1,001,1065,
images/lip.jpg,boxing glove,x,sounds/animalfarm_chinese.wav,,,,,,,,,0,1,1,1,0,98,98,136,758.554436586,1.09046231955e-05,759.716627822,1.16220181924,,,,,x,1,1.15050855547,2018_Nov_28_1540,59.9808588799,chinese_cond1,001,1065,
images/bandaid01.jpg,door handle,x,sounds/animalfarm_chinese.wav,,,,,,,,,0,1,1,1,0,99,99,170,760.824792516,9.621726349e-06,761.550552623,0.725769728771,,,,,x,1,0.717191653908,2018_Nov_28_1540,59.9808588799,chinese_cond1,001,1065,
images/handfan01b.jpg,handfan,z,sounds/animalfarm_chinese.wav,,,,,,,,,0,1,1,1,0,100,100,69,762.666047777,1.21875200421e-05,763.150868728,0.484833138646,,,,,z,1,0.467034579488,2018_Nov_28_1540,59.9808588799,chinese_cond1,001,1065,
images/wallet01.jpg,lamp,x,sounds/animalfarm_chinese.wav,,,,,,,,,0,1,1,1,0,101,101,193,764.256189886,1.05838989839e-05,765.151393753,0.895214771037,,,,,x,1,0.883771671681,2018_Nov_28_1540,59.9808588799,chinese_cond1,001,1065,
images/panda.jpg,panda,z,sounds/animalfarm_chinese.wav,,,,,,,,,0,1,1,1,0,102,102,83,766.262583512,9.621726349e-06,766.885210117,0.622636868036,,,,,z,1,0.600418095361,2018_Nov_28_1540,59.9808588799,chinese_cond1,001,1065,
images/pouch01b.jpg,pouch,z,sounds/animalfarm_chinese.wav,,,,,,,,,0,1,1,1,0,103,103,25,767.998897993,9.30100213736e-06,769.06907265,1.07018459891,,,,,z,1,1.05052263523,2018_Nov_28_1540,59.9808588799,chinese_cond1,001,1065,
images/tent.jpg,tent,z,sounds/animalfarm_chinese.wav,,,,,,,,,0,1,1,1,0,104,104,11,770.197673214,2.5337212719e-05,770.752821486,0.555174250854,,,,,z,1,0.533701802022,2018_Nov_28_1540,59.9808588799,chinese_cond1,001,1065,
images/mattress.jpg,cat,x,sounds/animalfarm_chinese.wav,,,,,,,,,0,1,1,1,0,105,105,147,771.858879347,1.05838989839e-05,772.569950952,0.711082188995,,,,,x,1,0.700397280394,2018_Nov_28_1540,59.9808588799,chinese_cond1,001,1065,
images/ladybug03.jpg,giraffe,x,sounds/animalfarm_chinese.wav,,,,,,,,,0,1,1,1,0,106,106,178,773.673648607,1.02630583569e-05,774.370459876,0.696822173777,,,,,x,1,0.683759099338,2018_Nov_28_1540,59.9808588799,chinese_cond1,001,1065,
images/treadmill.jpg,lily,x,sounds/animalfarm_chinese.wav,,,,,,,,,0,1,1,1,0,107,107,199,775.478913542,9.621726349e-06,776.187623018,0.708719097078,,,,,x,1,0.7003947146,2018_Nov_28_1540,59.9808588799,chinese_cond1,001,1065,
images/raisin.jpg,ruler,x,sounds/animalfarm_chinese.wav,,,,,,,,,0,1,1,1,0,108,108,218,777.294525023,8.98027792573e-06,777.888072255,0.593556854175,,,,,x,1,0.583769651246,2018_Nov_28_1540,59.9808588799,chinese_cond1,001,1065,
images/giraffe.jpg,lettuce,x,sounds/animalfarm_chinese.wav,,,,,,,,,0,1,1,1,0,109,109,195,778.989825363,9.30088572204e-06,779.671830745,0.682015324826,,,,,x,1,0.667101033381,2018_Nov_28_1540,59.9808588799,chinese_cond1,001,1065,
images/bullet (2).jpg,rubber glove,x,sounds/animalfarm_chinese.wav,,,,,,,,,0,1,1,1,0,110,110,217,780.778371615,9.621726349e-06,781.338928571,0.560567219043,,,,,x,1,0.55039931694,2018_Nov_28_1540,59.9808588799,chinese_cond1,001,1065,
images/arrow02.jpg,hammer,x,sounds/animalfarm_chinese.wav,,,,,,,,,0,1,1,1,0,111,111,184,782.439029952,9.621726349e-06,783.072688809,0.633668478928,,,,,x,1,0.617055634968,2018_Nov_28_1540,59.9808588799,chinese_cond1,001,1065,
images/bottleofredwine02.jpg,pipe,x,sounds/animalfarm_chinese.wav,,,,,,,,,0,1,1,1,0,112,112,213,784.172786983,9.621726349e-06,784.739779259,0.567002218449,,,,,x,1,0.550308231497,2018_Nov_28_1540,59.9808588799,chinese_cond1,001,1065,
images/ant.jpg,ant,z,sounds/animalfarm_chinese.wav,,,,,,,,,0,1,1,1,0,113,113,98,785.837834743,9.621726349e-06,786.423600578,0.58577641903,,,,,z,1,0.567055458669,2018_Nov_28_1540,59.9808588799,chinese_cond1,001,1065,
images/mitten01.jpg,mitten,z,sounds/animalfarm_chinese.wav,,,,,,,,,0,1,1,1,0,114,114,102,787.547852771,1.05838989839e-05,788.357502961,0.809661736013,,,,,z,1,0.800531054265,2018_Nov_28_1540,59.9808588799,chinese_cond1,001,1065,
images/dice05a.jpg,band aid,x,sounds/animalfarm_chinese.wav,,,,,,,,,0,1,1,1,0,115,115,126,789.475031824,1.09045067802e-05,790.107871553,0.632851274917,,,,,x,1,0.617034787894,2018_Nov_28_1540,59.9808588799,chinese_cond1,001,1065,
images/flashlight05.jpg,flash light,z,sounds/animalfarm_chinese.wav,,,,,,,,,0,1,1,1,0,116,116,8,791.215452209,9.94245056063e-06,791.891668529,0.676226583542,,,,,z,1,0.667091732379,2018_Nov_28_1540,59.9808588799,chinese_cond1,001,1065,
images/magnifyingglass01b.jpg,magnifying glass,z,sounds/animalfarm_chinese.wav,,,,,,,,,0,1,1,1,0,117,117,64,793.002844819,8.98016151041e-06,793.692102725,0.689267528011,,,,,z,1,0.667051000521,2018_Nov_28_1540,59.9808588799,chinese_cond1,001,1065,
images/binder03b.jpg,dj mixer,x,sounds/animalfarm_chinese.wav,,,,,,,,,0,1,1,1,0,118,118,167,794.808269475,9.621726349e-06,795.559303889,0.751044677221,,,,,x,1,0.733780443436,2018_Nov_28_1540,59.9808588799,chinese_cond1,001,1065,
images/coin01b.jpg,arrow,x,sounds/animalfarm_chinese.wav,,,,,,,,,0,1,1,1,0,119,119,124,796.664717736,1.02631747723e-05,797.309732776,0.645025624195,,,,,x,1,0.633672648342,2018_Nov_28_1540,59.9808588799,chinese_cond1,001,1065,
images/leek.jpg,donut,x,sounds/animalfarm_chinese.wav,,,,,,,,,0,1,1,1,0,120,120,169,798.417116188,9.30100213736e-06,799.010212162,0.593106558197,,,,,x,1,0.583760029403,2018_Nov_28_1540,59.9808588799,chinese_cond1,001,1065,
images/nailclipper03a.jpg,aquarium,x,sounds/animalfarm_chinese.wav,,,,,,,,,0,1,1,1,0,121,121,123,800.115549356,9.81413759291e-05,800.777336319,0.661846617702,,,,,x,1,0.650291265221,2018_Nov_28_1540,59.9808588799,chinese_cond1,001,1065,
images/pingpongpaddle01c (1).jpg,ping pong paddle,z,sounds/animalfarm_chinese.wav,,,,,,,,,0,1,1,1,0,122,122,10,801.89124325,1.05838989839e-05,802.511066089,0.619833422475,,,,,z,1,0.600384098594,2018_Nov_28_1540,59.9808588799,chinese_cond1,001,1065,
images/safe.jpg,safe,z,sounds/animalfarm_chinese.wav,,,,,,,,,0,1,1,1,0,123,123,78,803.624803036,9.62160993367e-06,804.278181587,0.65338913491,,,,,z,1,0.633699268335,2018_Nov_28_1540,59.9808588799,chinese_cond1,001,1065,
images/parkbench03.jpg,park bench,z,sounds/animalfarm_chinese.wav,,,,,,,,,0,1,1,1,0,124,124,71,805.387485171,9.94245056063e-06,806.07862797,0.691152741783,,,,,z,1,0.667045227485,2018_Nov_28_1540,59.9808588799,chinese_cond1,001,1065,
images/banjo.jpg,knife,x,sounds/animalfarm_chinese.wav,,,,,,,,,0,1,1,1,0,125,125,191,807.181694762,1.02631747723e-05,807.879113802,0.697429624386,,,,,x,1,0.683645242476,2018_Nov_28_1540,59.9808588799,chinese_cond1,001,1065,
images/chessknight02b (1).jpg,cockroach,x,sounds/animalfarm_chinese.wav,,,,,,,,,0,1,1,1,0,126,126,155,808.994456292,9.62160993367e-06,809.963073482,0.968628094881,,,,,x,1,0.950535432086,2018_Nov_28_1540,59.9808588799,chinese_cond1,001,1065,
images/carrot02.jpg,corkscrew,x,sounds/animalfarm_chinese.wav,,,,,,,,,0,1,1,1,0,127,127,161,811.068104385,9.30100213736e-06,811.730183207,0.662089084857,,,,,x,1,0.650459003751,2018_Nov_28_1540,59.9808588799,chinese_cond1,001,1065,
images/tie01.jpg,bench,x,sounds/animalfarm_chinese.wav,,,,,,,,,0,1,1,1,0,128,128,130,812.83159282,9.30100213736e-06,813.697327955,0.865745077957,,,,,x,1,0.850477669737,2018_Nov_28_1540,59.9808588799,chinese_cond1,001,1065,
images/headphones02b.jpg,headphones,z,sounds/animalfarm_chinese.wav,,,,,,,,,0,1,1,1,0,129,129,101,814.807636366,1.05838989839e-05,815.314725802,0.507099699113,,,,,x,0,0.484010161832,2018_Nov_28_1540,59.9808588799,chinese_cond1,001,1065,
images/toothbrush03a.jpg,parrot,x,sounds/animalfarm_chinese.wav,,,,,,,,,0,1,1,1,0,130,130,210,816.411103581,9.621726349e-06,817.098188906,0.687095587607,,,,,x,1,0.667042982415,2018_Nov_28_1540,59.9808588799,chinese_cond1,001,1065,
images/notebook02b.jpg,notebook,z,sounds/animalfarm_chinese.wav,,,,,,,,,0,1,1,1,0,131,131,7,818.208048624,9.621726349e-06,818.831948502,0.62390982022,,,,,z,1,0.600375118433,2018_Nov_28_1540,59.9808588799,chinese_cond1,001,1065,
images/electrictoothbrush01a.jpg,banjo,x,sounds/animalfarm_chinese.wav,,,,,,,,,0,1,1,1,0,132,132,127,819.929603723,9.621726349e-06,820.465791775,0.536197994254,,,,,x,1,0.517094089766,2018_Nov_28_1540,59.9808588799,chinese_cond1,001,1065,
images/rubberglove02a.jpg,lady bug,x,sounds/animalfarm_chinese.wav,,,,,,,,,0,1,1,1,0,133,133,192,821.576752538,9.30100213736e-06,822.41623099,0.839488394442,,,,,x,1,0.817025230266,2018_Nov_28_1540,59.9808588799,chinese_cond1,001,1065,
images/straw.jpg,straw,z,sounds/animalfarm_chinese.wav,,,,,,,,,0,1,1,1,0,134,134,109,823.510920159,9.621726349e-06,824.250057009,0.739147112356,,,,,z,1,0.717069458216,2018_Nov_28_1540,59.9808588799,chinese_cond1,001,1065,
images/candle08a.jpg,screw driver,x,sounds/animalfarm_chinese.wav,,,,,,,,,0,1,1,1,0,135,135,221,825.369474934,9.30100213736e-06,826.083834918,0.714369285619,,,,,x,1,0.700402411981,2018_Nov_28_1540,59.9808588799,chinese_cond1,001,1065,
images/scissors04a.jpg,leek,x,sounds/animalfarm_chinese.wav,,,,,,,,,0,1,1,1,0,136,136,194,827.18038685,1.09046231955e-05,827.834680105,0.654304159572,,,,,x,1,0.634083174518,2018_Nov_28_1540,59.9808588799,chinese_cond1,001,1065,
images/hammer02a.jpg,flower,x,sounds/animalfarm_chinese.wav,,,,,,,,,0,1,1,1,0,137,137,176,828.933093838,9.94245056063e-06,829.601487388,0.668403812917,,,,,x,1,0.650462852442,2018_Nov_28_1540,59.9808588799,chinese_cond1,001,1065,
images/table02.jpg,table,z,sounds/animalfarm_chinese.wav,,,,,,,,,0,1,1,1,0,138,138,49,830.71937065,1.02631747723e-05,831.318578655,0.599217947456,,,,,z,1,0.583759708796,2018_Nov_28_1540,59.9808588799,chinese_cond1,001,1065,
images/key03b.jpg,cigar,x,sounds/animalfarm_chinese.wav,,,,,,,,,0,1,1,1,0,139,139,153,832.42437256,1.02630583569e-05,832.985654031,0.561292054481,,,,,x,1,0.550392261008,2018_Nov_28_1540,59.9808588799,chinese_cond1,001,1065,
images/computermouse02a.jpg,world map,x,sounds/animalfarm_chinese.wav,,,,,,,,,0,1,1,1,0,140,140,239,834.090005321,9.62160993367e-06,834.752798073,0.662802374223,,,,,x,1,0.650448740576,2018_Nov_28_1540,59.9808588799,chinese_cond1,001,1065,
images/lamp04b.jpg,parking meter,x,sounds/animalfarm_chinese.wav,,,,,,,,,0,1,1,1,0,141,141,209,835.878036812,9.94233414531e-06,836.970038958,1.09201497515,,,,,x,1,1.06720090669,2018_Nov_28_1540,59.9808588799,chinese_cond1,001,1065,
images/handbag02a.jpg,candle,x,sounds/animalfarm_chinese.wav,,,,,,,,,0,1,1,1,0,142,142,144,838.089379589,1.05838989839e-05,838.820490329,0.731121323653,,,,,x,1,0.71699312597,2018_Nov_28_1540,59.9808588799,chinese_cond1,001,1065,
images/egg01b (1).jpg,egg,z,sounds/animalfarm_chinese.wav,,,,,,,,,0,1,1,1,0,143,143,19,839.93519554,9.30100213736e-06,840.487617341,0.552432063501,,,,,z,1,0.533743816894,2018_Nov_28_1540,59.9808588799,chinese_cond1,001,1065,
images/cola.jpg,comb,x,sounds/animalfarm_chinese.wav,,,,,,,,,0,1,1,1,0,144,144,157,841.610367264,9.30100213736e-06,842.221384635,0.611027633888,,,,,x,1,0.6003680625,2018_Nov_28_1540,59.9808588799,chinese_cond1,001,1065,
images/shotglass.jpg,shot glass,z,sounds/animalfarm_chinese.wav,,,,,,,,,0,1,1,1,0,145,145,86,843.330660315,9.30100213736e-06,843.988532526,0.65788311488,,,,,z,1,0.633784901467,2018_Nov_28_1540,59.9808588799,chinese_cond1,001,1065,
images/basketball01.jpg,basket ball,z,sounds/animalfarm_chinese.wav,,,,,,,,,0,1,1,1,0,146,146,33,845.130082628,9.94245056063e-06,845.588894494,0.458821808919,,,,,z,1,0.45031204808,2018_Nov_28_1540,59.9808588799,chinese_cond1,001,1065,
images/highlighter03b.jpg,coin,x,sounds/animalfarm_chinese.wav,,,,,,,,,0,1,1,1,0,147,147,156,846.692480538,9.30100213736e-06,847.222909676,0.530449343496,,,,,x,1,0.517235528794,2018_Nov_28_1540,59.9808588799,chinese_cond1,001,1065,
images/fireextinguisher02.jpg,fire extinguisher,z,sounds/animalfarm_chinese.wav,,,,,,,,,0,1,1,1,0,148,148,175,848.335528259,9.62160993367e-06,849.123129018,0.787610701751,,,,,z,1,0.767091764486,2018_Nov_28_1540,59.9808588799,chinese_cond1,001,1065,
images/lightswitch02a.jpg,fork,x,sounds/animalfarm_chinese.wav,,,,,,,,,0,1,1,1,0,149,149,177,850.236671607,9.94245056063e-06,850.923593683,0.686932018492,,,,,x,1,0.66706767818,2018_Nov_28_1540,59.9808588799,chinese_cond1,001,1065,
images/teapot.jpg,light switch,x,sounds/animalfarm_chinese.wav,,,,,,,,,0,1,1,1,0,150,150,197,852.041934297,9.621726349e-06,852.824094621,0.782170587103,,,,,x,1,0.767102348385,2018_Nov_28_1540,59.9808588799,chinese_cond1,001,1065,
images/tank.jpg,wallet,x,sounds/animalfarm_chinese.wav,,,,,,,,,0,1,1,1,0,151,151,237,853.930412268,9.621726349e-06,854.674577743,0.744176059379,,,,,x,1,0.733763124328,2018_Nov_28_1540,59.9808588799,chinese_cond1,001,1065,
images/cocktailshrimp01.jpg,cocktail shrimp,z,sounds/animalfarm_chinese.wav,,,,,,,,,0,1,1,1,0,152,152,30,855.791215956,9.94233414531e-06,856.47503439,0.683828696259,,,,,z,1,0.667068961076,2018_Nov_28_1540,59.9808588799,chinese_cond1,001,1065,
images/lightbulb03b.jpg,treadmill,x,sounds/animalfarm_chinese.wav,,,,,,,,,0,1,1,1,0,153,153,234,857.578305482,9.62160993367e-06,858.175482986,0.597187766689,,,,,x,1,0.583724429016,2018_Nov_28_1540,59.9808588799,chinese_cond1,001,1065,
images/lemon02.jpg,lemon,z,sounds/animalfarm_chinese.wav,,,,,,,,,0,1,1,1,0,154,154,14,859.289413008,9.621726349e-06,859.842581453,0.553178708185,,,,,z,1,0.533710461692,2018_Nov_28_1540,59.9808588799,chinese_cond1,001,1065,
images/radish01.jpg,raisin,x,sounds/animalfarm_chinese.wav,,,,,,,,,0,1,1,1,0,155,155,214,860.955153211,9.621726349e-06,862.676661164,1.72151885752,,,,,x,1,1.70067855506,2018_Nov_28_1540,59.9808588799,chinese_cond1,001,1065,
images/leaf01a.jpg,leaf,z,sounds/animalfarm_chinese.wav,,,,,,,,,0,1,1,1,0,156,156,68,863.781956023,3.33552015945e-05,864.393763015,0.611833933159,,,,,z,1,0.600395003217,2018_Nov_28_1540,59.9808588799,chinese_cond1,001,1065,
images/envelope02a.jpg,grand piano,x,sounds/animalfarm_chinese.wav,,,,,,,,,0,1,1,1,0,157,157,182,865.517020965,8.98027792573e-06,866.027517769,0.510506746592,,,,,x,1,0.500367388944,2018_Nov_28_1540,59.9808588799,chinese_cond1,001,1065,
images/licenseplate.jpg,license plate,z,sounds/animalfarm_chinese.wav,,,,,,,,,0,1,1,1,0,158,158,40,867.145693531,9.621726349e-06,867.911322796,0.765639848425,,,,,z,1,0.750422473182,2018_Nov_28_1540,59.9808588799,chinese_cond1,001,1065,
images/hat05.jpg,hat,z,sounds/animalfarm_chinese.wav,,,,,,,,,0,1,1,1,0,159,159,15,869.017107079,9.30100213736e-06,869.628451909,0.611354451277,,,,,z,1,0.600396927679,2018_Nov_28_1540,59.9808588799,chinese_cond1,001,1065,
images/fork01.jpg,cooking pot,x,sounds/animalfarm_chinese.wav,,,,,,,,,0,1,1,1,0,160,160,160,870.723000601,9.621726349e-06,871.478927654,0.755937637179,,,,,x,1,0.733761200099,2018_Nov_28_1540,59.9808588799,chinese_cond1,001,1065,
images/cauliflower01.jpg,glue stick,x,sounds/animalfarm_chinese.wav,,,,,,,,,0,1,1,1,0,161,161,181,872.596742923,9.30100213736e-06,873.496128064,0.899395083077,,,,,x,1,0.883807913517,2018_Nov_28_1540,59.9808588799,chinese_cond1,001,1065,
images/charcoalbarbecue.jpg,charcoal barbecue,z,sounds/animalfarm_chinese.wav,,,,,,,,,0,1,1,1,0,162,162,77,874.613556219,9.621726349e-06,875.279930172,0.6663835746,,,,,z,1,0.650417630328,2018_Nov_28_1540,59.9808588799,chinese_cond1,001,1065,
images/paperclip04.jpg,eye drops,x,sounds/animalfarm_chinese.wav,,,,,,,,,0,1,1,1,0,163,163,174,876.387242062,9.621726349e-06,876.997032023,0.609800224425,,,,,x,1,0.600399493473,2018_Nov_28_1540,59.9808588799,chinese_cond1,001,1065,
images/scooter.jpg,pen,x,sounds/animalfarm_chinese.wav,,,,,,,,,0,1,1,1,0,164,164,212,878.092300099,9.30100213736e-06,878.747474061,0.655183583847,,,,,x,1,0.633734547999,2018_Nov_28_1540,59.9808588799,chinese_cond1,001,1065,
images/grandpiano.jpg,tulip,x,sounds/animalfarm_chinese.wav,,,,,,,,,0,1,1,1,0,165,165,236,879.862908919,9.621726349e-06,880.431090117,0.568191461731,,,,,x,1,0.550201109727,2018_Nov_28_1540,59.9808588799,chinese_cond1,001,1065,
images/mirror02.jpg,8 ball,x,sounds/animalfarm_chinese.wav,,,,,,,,,0,1,1,1,0,166,166,121,881.534893932,9.94245056063e-06,882.198369184,0.66348583647,,,,,x,1,0.65040255629,2018_Nov_28_1540,59.9808588799,chinese_cond1,001,1065,
images/lettuce.jpg,mushroom,x,sounds/animalfarm_chinese.wav,,,,,,,,,0,1,1,1,0,167,167,205,883.323564625,1.02631747723e-05,883.815457212,0.491903491667,,,,,x,1,0.483666987508,2018_Nov_28_1540,59.9808588799,chinese_cond1,001,1065,
images/parrot01.jpg,chameleon,x,sounds/animalfarm_chinese.wav,,,,,,,,,0,1,1,1,0,168,168,150,884.929426043,8.98027792573e-06,886.116049044,1.18663262285,,,,,x,1,1.16719516576,2018_Nov_28_1540,59.9808588799,chinese_cond1,001,1065,
images/cake.jpg,cake,z,sounds/animalfarm_chinese.wav,,,,,,,,,0,1,1,1,0,169,169,23,887.232304954,9.621726349e-06,887.966541788,0.734246775624,,,,,z,1,0.717092550243,2018_Nov_28_1540,59.9808588799,chinese_cond1,001,1065,
images/lantern03.jpg,lantern,z,sounds/animalfarm_chinese.wav,,,,,,,,,0,1,1,1,0,170,170,5,889.075602904,8.98027792573e-06,889.616954286,0.541361645097,,,,,z,1,0.517029303592,2018_Nov_28_1540,59.9808588799,chinese_cond1,001,1065,
images/dresser02.jpg,dresser,z,sounds/animalfarm_chinese.wav,,,,,,,,,0,1,1,1,0,171,171,87,890.741098716,3.17515805364e-05,891.334083078,0.593008095981,,,,,z,1,0.583720259718,2018_Nov_28_1540,59.9808588799,chinese_cond1,001,1065,
images/tulip02.jpg,sport shorts,x,sounds/animalfarm_chinese.wav,,,,,,,,,0,1,1,1,0,172,172,225,892.430606787,9.30100213736e-06,893.217889067,0.787292223191,,,,,x,1,0.767093047383,2018_Nov_28_1540,59.9808588799,chinese_cond1,001,1065,
images/swallow.jpg,mattress,x,sounds/animalfarm_chinese.wav,,,,,,,,,0,1,1,1,0,173,173,202,894.321030588,9.621726349e-06,894.935012407,0.613991761813,,,,,x,1,0.600402700598,2018_Nov_28_1540,59.9808588799,chinese_cond1,001,1065,
images/button07.jpg,radish,x,sounds/animalfarm_chinese.wav,,,,,,,,,0,1,1,1,0,174,174,215,896.048914206,9.621726349e-06,896.701968185,0.65306456259,,,,,x,1,0.633563281503,2018_Nov_28_1540,59.9808588799,chinese_cond1,001,1065,
images/axe01.jpg,axe,z,sounds/animalfarm_chinese.wav,,,,,,,,,0,1,1,1,0,175,175,104,897.805197263,9.30100213736e-06,898.335897412,0.530710091814,,,,,z,1,0.517049829941,2018_Nov_28_1540,59.9808588799,chinese_cond1,001,1065,
images/redfox.jpg,red fox,z,sounds/animalfarm_chinese.wav,,,,,,,,,0,1,1,1,0,176,176,1,899.45109301,8.98027792573e-06,900.019648493,0.568565104855,,,,,z,1,0.550369489705,2018_Nov_28_1540,59.9808588799,chinese_cond1,001,1065,
images/cactus.jpg,cactus,z,sounds/animalfarm_chinese.wav,,,,,,,,,0,1,1,1,0,177,177,70,901.133631756,9.94245056063e-06,901.703422346,0.569801494596,,,,,z,1,0.550376224797,2018_Nov_28_1540,59.9808588799,chinese_cond1,001,1065,
images/screw03c.jpg,screw,z,sounds/animalfarm_chinese.wav,,,,,,,,,0,1,1,1,0,178,178,84,902.797933834,9.621726349e-06,903.720626925,0.922703354037,,,,,z,1,0.900452188333,2018_Nov_28_1540,59.9808588799,chinese_cond1,001,1065,
images/chameleon.jpg,50 dollar bill,x,sounds/animalfarm_chinese.wav,,,,,,,,,0,1,1,1,0,179,179,120,904.832620097,9.621726349e-06,905.604431631,0.77182179701,,,,,x,1,0.750420228229,2018_Nov_28_1540,59.9808588799,chinese_cond1,001,1065,
images/triangleruler02.jpg,bottle of red wine,x,sounds/animalfarm_chinese.wav,,,,,,,,,0,1,1,1,0,180,180,134,906.717262855,9.62160993367e-06,907.788339386,1.07108647376,,,,,x,1,1.05050659901,2018_Nov_28_1540,59.9808588799,chinese_cond1,001,1065,
images/tape01a.jpg,tie,x,sounds/animalfarm_chinese.wav,,,,,,,,,0,1,1,1,0,181,181,232,908.916156422,9.62160993367e-06,909.555454243,0.639307121397,,,,,x,1,0.617053069291,2018_Nov_28_1540,59.9808588799,chinese_cond1,001,1065,
images/parkingmeter.jpg,ear,x,sounds/animalfarm_chinese.wav,,,,,,,,,0,1,1,1,0,182,182,171,910.659163444,8.98027792573e-06,911.355921793,0.696768292342,,,,,x,1,0.683740497334,2018_Nov_28_1540,59.9808588799,chinese_cond1,001,1065,
images/candy.jpg,candy,z,sounds/animalfarm_chinese.wav,,,,,,,,,0,1,1,1,0,183,183,31,912.458503972,9.30100213736e-06,913.156388061,0.69789403223,,,,,z,1,0.683736969368,2018_Nov_28_1540,59.9808588799,chinese_cond1,001,1065,
images/hairpin.jpg,hair pin,z,sounds/animalfarm_chinese.wav,,,,,,,,,0,1,1,1,0,184,184,28,914.249111836,9.621726349e-06,914.840166404,0.591065152199,,,,,z,1,0.566986182239,2018_Nov_28_1540,59.9808588799,chinese_cond1,001,1065,
images/thumbtack02a.jpg,thumb tack,z,sounds/animalfarm_chinese.wav,,,,,,,,,0,1,1,1,0,185,185,60,915.953072998,9.621726349e-06,916.673996592,0.720934178215,,,,,z,1,0.700430635712,2018_Nov_28_1540,59.9808588799,chinese_cond1,001,1065,
images/croissant02b.jpg,croissant,z,sounds/animalfarm_chinese.wav,,,,,,,,,0,1,1,1,0,186,186,39,917.785967314,9.30100213736e-06,918.324398828,0.538441456156,,,,,z,1,0.517032831558,2018_Nov_28_1540,59.9808588799,chinese_cond1,001,1065,
images/feather03b.jpg,feather,z,sounds/animalfarm_chinese.wav,,,,,,,,,0,1,1,1,0,187,187,114,919.425600611,9.30100213736e-06,920.074855297,0.64926494949,,,,,z,1,0.633731340757,2018_Nov_28_1540,59.9808588799,chinese_cond1,001,1065,
images/ladder.jpg,ladder,z,sounds/animalfarm_chinese.wav,,,,,,,,,0,1,1,1,0,188,188,113,921.16829621,9.621726349e-06,921.775294593,0.607008325052,,,,,z,1,0.583718656097,2018_Nov_28_1540,59.9808588799,chinese_cond1,001,1065,
images/globe.jpg,cloud,x,sounds/animalfarm_chinese.wav,,,,,,,,,0,1,1,1,0,189,189,154,922.904185732,9.94245056063e-06,923.775812882,0.871637412929,,,,,x,1,0.850458747125,2018_Nov_28_1540,59.9808588799,chinese_cond1,001,1065,
images/battery03b.jpg,battery,z,sounds/animalfarm_chinese.wav,,,,,,,,,0,1,1,1,0,190,190,34,924.886646639,9.94245056063e-06,925.54293736,0.656300343573,,,,,z,1,0.633736472228,2018_Nov_28_1540,59.9808588799,chinese_cond1,001,1065,
images/diaper01a.jpg,camera,x,sounds/animalfarm_chinese.wav,,,,,,,,,0,1,1,1,0,191,191,143,926.663850499,9.62160993367e-06,927.293397358,0.629557122244,,,,,x,1,0.617069746833,2018_Nov_28_1540,59.9808588799,chinese_cond1,001,1065,
