images,name,corrAns,sounds,trials_3.thisRepN,trials_3.thisTrialN,trials_3.thisN,trials_3.thisIndex,trials_4.thisRepN,trials_4.thisTrialN,trials_4.thisN,trials_4.thisIndex,trials_2.thisRepN,trials_2.thisTrialN,trials_2.thisN,trials_2.thisIndex,trials.thisRepN,trials.thisTrialN,trials.thisN,trials.thisIndex,begin_global,begin_routine,end_global,end_routine,key_resp_2.keys,key_resp_2.corr,begin_book,key_resp_1.keys,key_resp_1.corr,key_resp_1.rt,date,frameRate,expName,session,participant,
images/volleyball.jpg,volley ball,z,,0,0,0,0,,,,,,,,,,,,,,,,,,,,,,,2018_Nov_29_1541,59.9880716268,spanish_cond1,001,1067,
images/puma.jpg,puma,z,,,,,,0,0,0,0,,,,,,,,,48.1576327428,1.02629419416e-05,51.0078149757,2.85019377875,None,0,,,,,2018_Nov_29_1541,59.9880716268,spanish_cond1,001,1067,
images/paperclip04.jpg,eye drops,x,sounds/animalfarm_spanish.wav,,,,,,,,,0,0,0,1,0,0,0,174,93.1925478866,1.02629419416e-05,94.6854952618,1.49295763788,,,83.0045118839,x,1,1.48396081058,2018_Nov_29_1541,59.9880716268,spanish_cond1,001,1067,
images/swallow.jpg,mattress,x,sounds/animalfarm_spanish.wav,,,,,,,,,0,0,0,1,0,1,1,202,95.7954799698,9.30088572204e-06,96.7359906454,0.940520617878,,,,x,1,0.917151060188,2018_Nov_29_1541,59.9880716268,spanish_cond1,001,1067,
images/fryingpan01.jpg,frying pan,z,sounds/animalfarm_spanish.wav,,,,,,,,,0,0,0,1,0,2,2,45,97.8384936056,9.30088572204e-06,98.9198826295,1.08139896626,,,,z,1,1.06720391475,2018_Nov_29_1541,59.9880716268,spanish_cond1,001,1067,
images/sunglasses03a.jpg,sun glasses,z,sounds/animalfarm_spanish.wav,,,,,,,,,0,0,0,1,0,3,3,17,100.030956181,8.98004509509e-06,100.953711175,0.922764295479,,,,z,1,0.900490957778,2018_Nov_29_1541,59.9880716268,spanish_cond1,001,1067,
images/bench02.jpg,electric toothbrush,x,sounds/animalfarm_spanish.wav,,,,,,,,,0,0,0,1,0,4,4,172,102.06474175,9.30088572204e-06,103.054234333,0.989502525423,,,,x,1,0.967179796658,2018_Nov_29_1541,59.9880716268,spanish_cond1,001,1067,
images/candy.jpg,candy,z,sounds/animalfarm_spanish.wav,,,,,,,,,0,0,0,1,0,5,5,31,104.157728959,9.3006528914e-06,105.121393668,0.96367529314,,,,z,1,0.950489546405,2018_Nov_29_1541,59.9880716268,spanish_cond1,001,1067,
images/plate01b.jpg,plate,z,sounds/animalfarm_spanish.wav,,,,,,,,,0,0,0,1,0,6,6,3,106.222764167,9.30088572204e-06,107.35527943,1.13252552599,,,,z,1,1.11720122071,2018_Nov_29_1541,59.9880716268,spanish_cond1,001,1067,
images/broadsword.jpg,teapot,x,sounds/animalfarm_spanish.wav,,,,,,,,,0,0,0,1,0,7,7,231,108.450486339,9.30088572204e-06,109.388959162,0.938482444501,,,,x,1,0.916988455458,2018_Nov_29_1541,59.9880716268,spanish_cond1,001,1067,
images/charcoalbarbecue.jpg,charcoal barbecue,z,sounds/animalfarm_spanish.wav,,,,,,,,,0,0,0,1,0,8,8,77,110.507299579,9.30088572204e-06,111.522984053,1.01569409505,,,,z,1,1.00050930283,2018_Nov_29_1541,59.9880716268,spanish_cond1,001,1067,
images/cauliflower01.jpg,glue stick,x,sounds/animalfarm_spanish.wav,,,,,,,,,0,0,0,1,0,9,9,181,112.639388606,9.30088572204e-06,113.506793484,0.867415140849,,,,x,1,0.850463503972,2018_Nov_29_1541,59.9880716268,spanish_cond1,001,1067,
images/watermelon01.jpg,orange,x,sounds/animalfarm_spanish.wav,,,,,,,,,0,0,0,1,0,10,10,207,114.6364537,8.98004509509e-06,116.240804968,1.60436153063,,,,x,1,1.58397113788,2018_Nov_29_1541,59.9880716268,spanish_cond1,001,1067,
images/handbag02a.jpg,candle,x,sounds/animalfarm_spanish.wav,,,,,,,,,0,0,0,1,0,11,11,144,117.35699496,9.621726349e-06,118.224639094,0.867654718459,,,,x,1,0.850474408595,2018_Nov_29_1541,59.9880716268,spanish_cond1,001,1067,
images/mitten01.jpg,mitten,z,sounds/animalfarm_spanish.wav,,,,,,,,,0,0,0,1,0,12,12,102,119.345212041,8.98004509509e-06,120.258575081,0.913381321589,,,,x,0,0.900498654926,2018_Nov_29_1541,59.9880716268,spanish_cond1,001,1067,
images/hanger02a.jpg,hanger,z,sounds/animalfarm_spanish.wav,,,,,,,,,0,0,0,1,0,13,13,88,121.35447699,8.98027792573e-06,122.275631914,0.921165187377,,,,z,1,0.900479732547,2018_Nov_29_1541,59.9880716268,spanish_cond1,001,1067,
images/tulip02.jpg,sport shorts,x,sounds/animalfarm_spanish.wav,,,,,,,,,0,0,0,1,0,14,14,225,123.371681995,8.98004509509e-06,124.909602603,1.53793022921,,,,x,1,1.51729159965,2018_Nov_29_1541,59.9880716268,spanish_cond1,001,1067,
images/camera01a.jpg,bull,x,sounds/animalfarm_spanish.wav,,,,,,,,,0,0,0,1,0,15,15,138,126.020655307,9.62149351835e-06,126.860098884,0.839453840163,,,,x,1,0.817136884434,2018_Nov_29_1541,59.9880716268,spanish_cond1,001,1067,
images/chameleon.jpg,50 dollar bill,x,sounds/animalfarm_spanish.wav,,,,,,,,,0,0,0,1,0,16,16,120,127.971644535,8.98004509509e-06,128.893932241,0.922296686098,,,,x,1,0.900488391751,2018_Nov_29_1541,59.9880716268,spanish_cond1,001,1067,
images/blueberry02.jpg,blueberry,z,sounds/animalfarm_spanish.wav,,,,,,,,,0,0,0,1,0,17,17,46,130.006995858,9.30088572204e-06,130.727718644,0.720733049791,,,,z,1,0.70042764768,2018_Nov_29_1541,59.9880716268,spanish_cond1,001,1067,
images/candle08a.jpg,screw driver,x,sounds/animalfarm_spanish.wav,,,,,,,,,0,0,0,1,0,18,18,221,131.842237366,8.65943729877e-06,132.778233912,0.936006488744,,,,x,1,0.917165492428,2018_Nov_29_1541,59.9880716268,spanish_cond1,001,1067,
images/hairband.jpg,hairband,z,sounds/animalfarm_spanish.wav,,,,,,,,,0,0,0,1,0,19,19,66,133.888005663,8.98027792573e-06,134.69537022,0.807375461329,,,,z,1,0.783803529805,2018_Nov_29_1541,59.9880716268,spanish_cond1,001,1067,
images/donut.jpg,rhinoceros,x,sounds/animalfarm_spanish.wav,,,,,,,,,0,0,0,1,0,20,20,216,135.821546459,8.98004509509e-06,136.629179779,0.807642620755,,,,x,1,0.783794549527,2018_Nov_29_1541,59.9880716268,spanish_cond1,001,1067,
images/banjo.jpg,knife,x,sounds/animalfarm_spanish.wav,,,,,,,,,0,0,0,1,0,21,21,191,137.726690738,8.98027792573e-06,138.629665028,0.902984553017,,,,x,1,0.883810649626,2018_Nov_29_1541,59.9880716268,spanish_cond1,001,1067,
images/lantern03.jpg,lantern,z,sounds/animalfarm_spanish.wav,,,,,,,,,0,0,0,1,0,22,22,5,139.737706175,8.98004509509e-06,140.546816088,0.809120176127,,,,z,1,0.800467160298,2018_Nov_29_1541,59.9880716268,spanish_cond1,001,1067,
images/fireextinguisher02.jpg,fire extinguisher,x,sounds/animalfarm_spanish.wav,,,,,,,,,0,0,0,1,0,23,23,175,141.657535244,8.65943729877e-06,143.064090369,1.40656506713,,,,z,0,1.38393508899,2018_Nov_29_1541,59.9880716268,spanish_cond1,001,1067,
images/basketball01.jpg,basket ball,z,sounds/animalfarm_spanish.wav,,,,,,,,,0,0,0,1,0,24,24,33,144.20383818,9.94233414531e-06,146.664982995,2.46115539898,,,,z,1,2.45086799562,2018_Nov_29_1541,59.9880716268,spanish_cond1,001,1067,
images/toucan.jpg,toucan,z,sounds/animalfarm_spanish.wav,,,,,,,,,0,0,0,1,0,25,25,81,147.767272356,8.98027792573e-06,148.882184601,1.1149225079,,,,z,1,1.10052315774,2018_Nov_29_1541,59.9880716268,spanish_cond1,001,1067,
images/glasses01b.jpg,calculator,x,sounds/animalfarm_spanish.wav,,,,,,,,,0,0,0,1,0,26,26,142,149.977480991,8.98004509509e-06,150.816009876,0.83853914775,,,,x,1,0.817129828734,2018_Nov_29_1541,59.9880716268,spanish_cond1,001,1067,
images/gluestick.jpg,squirrel,x,sounds/animalfarm_spanish.wav,,,,,,,,,0,0,0,1,0,27,27,226,151.928062584,8.65943729877e-06,153.149903399,1.22185043688,,,,x,1,1.20048409421,2018_Nov_29_1541,59.9880716268,spanish_cond1,001,1067,
images/puzzle.jpg,puzzle,z,sounds/animalfarm_spanish.wav,,,,,,,,,0,0,0,1,0,28,28,57,154.272270772,9.94210131466e-06,155.200409367,0.928148857318,,,,z,1,0.917146570282,2018_Nov_29_1541,59.9880716268,spanish_cond1,001,1067,
images/handfan01b.jpg,handfan,z,sounds/animalfarm_spanish.wav,,,,,,,,,0,0,0,1,0,29,29,69,156.317049969,9.30088572204e-06,157.417635988,1.10059564048,,,,z,1,1.08386241389,2018_Nov_29_1541,59.9880716268,spanish_cond1,001,1067,
images/doll.jpg,carrot,x,sounds/animalfarm_spanish.wav,,,,,,,,,0,0,0,1,0,30,30,146,158.529169452,8.98004509509e-06,159.484814566,0.955655056983,,,,x,1,0.933836499695,2018_Nov_29_1541,59.9880716268,spanish_cond1,001,1067,
images/microphone01.jpg,diaper,x,sounds/animalfarm_spanish.wav,,,,,,,,,0,0,0,1,0,31,31,164,160.58444452,8.98027792573e-06,161.968772491,1.38433791278,,,,x,1,1.36728107999,2018_Nov_29_1541,59.9880716268,spanish_cond1,001,1067,
images/lip.jpg,boxing glove,x,sounds/animalfarm_spanish.wav,,,,,,,,,0,0,0,1,0,32,32,136,163.072120547,8.98004509509e-06,163.919234455,0.84712385037,,,,x,1,0.83379185549,2018_Nov_29_1541,59.9880716268,spanish_cond1,001,1067,
images/8ball.jpg,nail clipper,x,sounds/animalfarm_spanish.wav,,,,,,,,,0,0,0,1,0,33,33,206,165.043269891,1.09043903649e-05,166.386512392,1.34325308492,,,,x,1,1.33381879609,2018_Nov_29_1541,59.9880716268,spanish_cond1,001,1067,
images/lion.jpg,lion,z,sounds/animalfarm_spanish.wav,,,,,,,,,0,0,0,1,0,34,34,44,167.498972094,8.98004509509e-06,168.536868006,1.03790617525,,,,z,1,1.01699621673,2018_Nov_29_1541,59.9880716268,spanish_cond1,001,1067,
images/antelope.jpg,antelope,z,sounds/animalfarm_spanish.wav,,,,,,,,,0,0,0,1,0,35,35,12,169.642752313,9.62149351835e-06,170.987630805,1.34488875512,,,,z,1,1.33390891831,2018_Nov_29_1541,59.9880716268,spanish_cond1,001,1067,
images/grasshopper.jpg,cauliflower,x,sounds/animalfarm_spanish.wav,,,,,,,,,0,0,0,1,0,36,36,148,172.081562213,8.65943729877e-06,173.471599955,1.39004768478,,,,x,1,1.3672743449,2018_Nov_29_1541,59.9880716268,spanish_cond1,001,1067,
images/fork01.jpg,cooking pot,x,sounds/animalfarm_spanish.wav,,,,,,,,,0,0,0,1,0,37,37,160,174.56639057,9.3006528914e-06,175.922210092,1.35582978511,,,,x,1,1.33393746219,2018_Nov_29_1541,59.9880716268,spanish_cond1,001,1067,
images/pictureframe04.jpg,picture frame,z,sounds/animalfarm_spanish.wav,,,,,,,,,0,0,0,1,0,38,38,41,177.046155405,9.621726349e-06,178.139413622,1.09326880029,,,,z,1,1.08385086781,2018_Nov_29_1541,59.9880716268,spanish_cond1,001,1067,
images/bowtie.jpg,bowtie,z,sounds/animalfarm_spanish.wav,,,,,,,,,0,0,0,1,0,39,39,89,179.249907633,9.30088572204e-06,180.039871225,0.789973855019,,,,z,1,0.76710558217,2018_Nov_29_1541,59.9880716268,spanish_cond1,001,1067,
images/belt02a.jpg,snowman,x,sounds/animalfarm_spanish.wav,,,,,,,,,0,0,0,1,0,40,40,224,181.143363605,8.98027792573e-06,181.907003491,0.763649828034,,,,x,1,0.750425274251,2018_Nov_29_1541,59.9880716268,spanish_cond1,001,1067,
images/ostrich.jpg,ostrich,z,sounds/animalfarm_spanish.wav,,,,,,,,,0,0,0,1,0,41,41,76,183.007582454,8.98027792573e-06,184.891073346,1.88350051385,,,,x,0,1.8673821066,2018_Nov_29_1541,59.9880716268,spanish_cond1,001,1067,
images/worldmap.jpg,scooter,x,sounds/animalfarm_spanish.wav,,,,,,,,,0,0,0,1,0,42,42,220,186.022441074,9.62149351835e-06,187.241654875,1.21922438429,,,,x,1,1.20055465261,2018_Nov_29_1541,59.9880716268,spanish_cond1,001,1067,
images/parrot01.jpg,chameleon,x,sounds/animalfarm_spanish.wav,,,,,,,,,0,0,0,1,0,43,43,150,188.355485974,9.30088572204e-06,189.308826397,0.953351007076,,,,x,1,0.933821426006,2018_Nov_29_1541,59.9880716268,spanish_cond1,001,1067,
images/radio03a.jpg,radio,z,sounds/animalfarm_spanish.wav,,,,,,,,,0,0,0,1,0,44,44,37,190.423047491,8.98027792573e-06,191.292647695,0.869610466762,,,,z,1,0.850461579859,2018_Nov_29_1541,59.9880716268,spanish_cond1,001,1067,
images/showerhead01.jpg,skateboard,x,sounds/animalfarm_spanish.wav,,,,,,,,,0,0,0,1,0,45,45,223,192.400791472,8.98004509509e-06,193.243124733,0.842343203258,,,,x,1,0.833789610537,2018_Nov_29_1541,59.9880716268,spanish_cond1,001,1067,
images/icecube02 (2).jpg,aloe,x,sounds/animalfarm_spanish.wav,,,,,,,,,0,0,0,1,0,46,46,122,194.354453898,8.98004509509e-06,195.843957065,1.48951278836,,,,x,1,1.46747133089,2018_Nov_29_1541,59.9880716268,spanish_cond1,001,1067,
images/electrictoothbrush01a.jpg,banjo,x,sounds/animalfarm_spanish.wav,,,,,,,,,0,0,0,1,0,47,47,127,196.939533443,9.30088572204e-06,197.927617425,0.988094245316,,,,x,1,0.967154780403,2018_Nov_29_1541,59.9880716268,spanish_cond1,001,1067,
images/triangleruler02.jpg,bottle of red wine,x,sounds/animalfarm_spanish.wav,,,,,,,,,0,0,0,1,0,48,48,134,199.038580969,9.30088572204e-06,199.894767074,0.856195726199,,,,x,1,0.833789289929,2018_Nov_29_1541,59.9880716268,spanish_cond1,001,1067,
images/paintbrush03a.jpg,paint brush,z,sounds/animalfarm_spanish.wav,,,,,,,,,0,0,0,1,0,49,49,0,200.995827117,9.62149351835e-06,202.178664254,1.18284772104,,,,z,1,1.16720526177,2018_Nov_29_1541,59.9880716268,spanish_cond1,001,1067,
images/lightbulb03b.jpg,treadmill,x,sounds/animalfarm_spanish.wav,,,,,,,,,0,0,0,1,0,50,50,234,203.281491783,9.62149351835e-06,204.129156366,0.847674846649,,,,x,1,0.8338078917,2018_Nov_29_1541,59.9880716268,spanish_cond1,001,1067,
images/mattress.jpg,cat,x,sounds/animalfarm_spanish.wav,,,,,,,,,0,0,0,1,0,51,51,147,205.233766134,8.65920446813e-06,206.029656945,0.795900433091,,,,x,1,0.783807378262,2018_Nov_29_1541,59.9880716268,spanish_cond1,001,1067,
images/weight01.jpg,weight,z,sounds/animalfarm_spanish.wav,,,,,,,,,0,0,0,1,0,52,52,67,207.134691346,8.98027792573e-06,208.080128275,0.945446230238,,,,z,1,0.933817256475,2018_Nov_29_1541,59.9880716268,spanish_cond1,001,1067,
images/apple06.jpg,apple,z,sounds/animalfarm_spanish.wav,,,,,,,,,0,0,0,1,0,53,53,13,209.207704456,9.30088572204e-06,210.230659323,1.02296480932,,,,z,1,1.00051218923,2018_Nov_29_1541,59.9880716268,spanish_cond1,001,1067,
images/lock02a.jpg,lock,z,sounds/animalfarm_spanish.wav,,,,,,,,,0,0,0,1,0,54,54,65,211.341215232,9.30088572204e-06,212.397850152,1.05664518289,,,,z,1,1.03383560153,2018_Nov_29_1541,59.9880716268,spanish_cond1,001,1067,
images/egg01b (1).jpg,egg,z,sounds/animalfarm_spanish.wav,,,,,,,,,0,0,0,1,0,55,55,19,213.51086951,9.62149351835e-06,214.448373117,0.937513550278,,,,z,1,0.917161643971,2018_Nov_29_1541,59.9880716268,spanish_cond1,001,1067,
images/teapot.jpg,light switch,x,sounds/animalfarm_spanish.wav,,,,,,,,,0,0,0,1,0,56,56,197,215.565484537,9.621726349e-06,216.482206474,0.916731879814,,,,x,1,0.900490316097,2018_Nov_29_1541,59.9880716268,spanish_cond1,001,1067,
images/flashlight05.jpg,flash light,z,sounds/animalfarm_spanish.wav,,,,,,,,,0,0,0,1,0,57,57,8,217.585642087,9.621726349e-06,218.482692364,0.897060219664,,,,z,1,0.883810328785,2018_Nov_29_1541,59.9880716268,spanish_cond1,001,1067,
images/butterfly.jpg,butterfly,z,sounds/animalfarm_spanish.wav,,,,,,,,,0,0,0,1,0,58,58,91,219.592331657,9.62149351835e-06,220.699904233,1.1075825179,,,,z,1,1.08382232394,2018_Nov_29_1541,59.9880716268,spanish_cond1,001,1067,
images/floorlamp.jpg,floor lamp,z,sounds/animalfarm_spanish.wav,,,,,,,,,0,0,0,1,0,59,59,26,221.793329865,8.98027792573e-06,223.083819438,1.29049887299,,,,z,1,1.26721270266,2018_Nov_29_1541,59.9880716268,spanish_cond1,001,1067,
images/calculator02b.jpg,dice,x,sounds/animalfarm_spanish.wav,,,,,,,,,0,0,0,1,0,60,60,165,224.185872107,9.94233414531e-06,225.584439709,1.39857754437,,,,x,1,1.38393733394,2018_Nov_29_1541,59.9880716268,spanish_cond1,001,1067,
images/diaper01a.jpg,camera,x,sounds/animalfarm_spanish.wav,,,,,,,,,0,0,0,1,0,61,61,143,226.705049538,9.30088572204e-06,227.684953887,0.979914611438,,,,x,1,0.967158308486,2018_Nov_29_1541,59.9880716268,spanish_cond1,001,1067,
images/lighter02b.jpg,stapler,x,sounds/animalfarm_spanish.wav,,,,,,,,,0,0,0,1,0,62,62,227,228.78842061,9.30088572204e-06,229.818839585,1.03042955906,,,,x,1,1.01717100898,2018_Nov_29_1541,59.9880716268,spanish_cond1,001,1067,
images/pouch01b.jpg,pouch,z,sounds/animalfarm_spanish.wav,,,,,,,,,0,0,0,1,0,63,63,25,230.932879472,9.30088572204e-06,231.752643051,0.819773520576,,,,z,1,0.800462349551,2018_Nov_29_1541,59.9880716268,spanish_cond1,001,1067,
images/globe.jpg,cloud,x,sounds/animalfarm_spanish.wav,,,,,,,,,0,0,0,1,0,64,64,154,232.882873186,9.62149351835e-06,233.619762167,0.736898923293,,,,x,1,0.717104748357,2018_Nov_29_1541,59.9880716268,spanish_cond1,001,1067,
images/feather03b.jpg,feather,z,sounds/animalfarm_spanish.wav,,,,,,,,,0,0,0,1,0,65,65,114,234.722726964,8.98027792573e-06,235.653610598,0.930893576238,,,,z,1,0.917170303408,2018_Nov_29_1541,59.9880716268,spanish_cond1,001,1067,
images/highlighter03b.jpg,coin,x,sounds/animalfarm_spanish.wav,,,,,,,,,0,0,0,1,0,66,66,156,236.757281619,9.62149351835e-06,237.554056975,0.796785619343,,,,x,1,0.783778192941,2018_Nov_29_1541,59.9880716268,spanish_cond1,001,1067,
images/ashtray02b.jpg,ashtray,z,sounds/animalfarm_spanish.wav,,,,,,,,,0,0,0,1,0,67,67,43,238.669161652,8.98027792573e-06,239.671247292,1.0020959028,,,,z,1,0.983822901035,2018_Nov_29_1541,59.9880716268,spanish_cond1,001,1067,
images/crocodile.jpg,triangle ruler,x,sounds/animalfarm_spanish.wav,,,,,,,,,0,0,0,1,0,68,68,235,240.769220728,8.98004509509e-06,241.405028178,0.635817392496,,,,x,1,0.617091214051,2018_Nov_29_1541,59.9880716268,spanish_cond1,001,1067,
images/parkfountain.jpg,park fountain,z,sounds/animalfarm_spanish.wav,,,,,,,,,0,0,0,1,0,69,69,93,242.526001704,8.98004509509e-06,243.605609451,1.07961736852,,,,z,1,1.06723342091,2018_Nov_29_1541,59.9880716268,spanish_cond1,001,1067,
images/hairdryer03a.jpg,hairdryer,z,sounds/animalfarm_spanish.wav,,,,,,,,,0,0,0,1,0,70,70,119,244.706652816,9.30088572204e-06,246.306218946,1.59957607277,,,,z,1,1.58397979708,2018_Nov_29_1541,59.9880716268,spanish_cond1,001,1067,
images/parkbench03.jpg,park bench,z,sounds/animalfarm_spanish.wav,,,,,,,,,0,0,0,1,0,71,71,71,247.412790556,8.98027792573e-06,248.173349288,0.760568353813,,,,z,1,0.750436820323,2018_Nov_29_1541,59.9880716268,spanish_cond1,001,1067,
images/coin01b.jpg,arrow,x,sounds/animalfarm_spanish.wav,,,,,,,,,0,0,0,1,0,72,72,124,249.27685129,8.65943729877e-06,250.173837744,0.896995754912,,,,x,1,0.883783067809,2018_Nov_29_1541,59.9880716268,spanish_cond1,001,1067,
images/elbow.jpg,elbow,z,sounds/animalfarm_spanish.wav,,,,,,,,,0,0,0,1,0,73,73,105,251.286120729,9.30088572204e-06,252.507575398,1.22146493196,,,,z,1,1.20037889807,2018_Nov_29_1541,59.9880716268,spanish_cond1,001,1067,
images/cloud.jpg,ceiling fan,x,sounds/animalfarm_spanish.wav,,,,,,,,,0,0,0,1,0,74,74,149,253.615344575,8.98004509509e-06,254.374875721,0.759541409323,,,,x,1,0.750445158686,2018_Nov_29_1541,59.9880716268,spanish_cond1,001,1067,
images/squirrel.jpg,binder,x,sounds/animalfarm_spanish.wav,,,,,,,,,0,0,0,1,0,75,75,132,255.480071764,9.62149351835e-06,256.675444549,1.19538272754,,,,x,1,1.18388524908,2018_Nov_29_1541,59.9880716268,spanish_cond1,001,1067,
images/cookingpot.jpg,grasshopper,x,sounds/animalfarm_spanish.wav,,,,,,,,,0,0,0,1,0,76,76,183,257.790667572,9.621726349e-06,258.642602858,0.851945228875,,,,x,1,0.833797307685,2018_Nov_29_1541,59.9880716268,spanish_cond1,001,1067,
images/masquerademask02b.jpg,mirror,x,sounds/animalfarm_spanish.wav,,,,,,,,,0,0,0,1,0,77,77,204,259.749114493,9.30088572204e-06,261.29324744,1.54414321017,,,,x,1,1.5339574751,2018_Nov_29_1541,59.9880716268,spanish_cond1,001,1067,
images/pingpongpaddle01c (1).jpg,ping pong paddle,z,sounds/animalfarm_spanish.wav,,,,,,,,,0,0,0,1,0,78,78,10,262.406472379,9.30088572204e-06,263.410437436,1.00397531991,,,,z,1,0.983834446874,2018_Nov_29_1541,59.9880716268,spanish_cond1,001,1067,
images/screwdriver02b.jpg,cola,x,sounds/animalfarm_spanish.wav,,,,,,,,,0,0,0,1,0,79,79,158,264.505835815,8.65943729877e-06,265.41075559,0.904929396696,,,,x,1,0.883622066583,2018_Nov_29_1541,59.9880716268,spanish_cond1,001,1067,
images/cupcake.jpg,scissors,x,sounds/animalfarm_spanish.wav,,,,,,,,,0,0,0,1,0,80,80,219,266.532325654,9.30088572204e-06,267.344751487,0.812435775995,,,,x,1,0.800463632215,2018_Nov_29_1541,59.9880716268,spanish_cond1,001,1067,
images/djmixer01.jpg,light bulb,x,sounds/animalfarm_spanish.wav,,,,,,,,,0,0,0,1,0,81,81,196,268.467995387,9.94233414531e-06,269.528618135,1.06063333154,,,,x,1,1.05052488972,2018_Nov_29_1541,59.9880716268,spanish_cond1,001,1067,
images/corkscrew02a.jpg,masquerade mask,x,sounds/animalfarm_spanish.wav,,,,,,,,,0,0,0,1,0,82,82,201,270.635768002,9.30088572204e-06,271.762507104,1.12674872391,,,,x,1,1.11720474879,2018_Nov_29_1541,59.9880716268,spanish_cond1,001,1067,
images/magnifyingglass01b.jpg,magnifying glass,z,sounds/animalfarm_spanish.wav,,,,,,,,,0,0,0,1,0,83,83,64,272.870572947,9.3006528914e-06,273.746150723,0.875588039402,,,,z,1,0.866949455813,2018_Nov_29_1541,59.9880716268,spanish_cond1,001,1067,
images/notebook02b.jpg,notebook,z,sounds/animalfarm_spanish.wav,,,,,,,,,0,0,0,1,0,84,84,7,274.854877569,9.62149351835e-06,275.713463939,0.858596312581,,,,z,1,0.850457731169,2018_Nov_29_1541,59.9880716268,spanish_cond1,001,1067,
images/key03b.jpg,cigar,x,sounds/animalfarm_spanish.wav,,,,,,,,,0,0,0,1,0,85,85,153,276.818790836,9.30088572204e-06,277.480562786,0.661781892646,,,,x,1,0.650403721957,2018_Nov_29_1541,59.9880716268,spanish_cond1,001,1067,
images/headphones02b.jpg,headphones,z,sounds/animalfarm_spanish.wav,,,,,,,,,0,0,0,1,0,86,86,101,278.590477577,9.3006528914e-06,279.181038221,0.590570585802,,,,z,1,0.56710417103,2018_Nov_29_1541,59.9880716268,spanish_cond1,001,1067,
images/nailpolish02b.jpg,nail polish,z,sounds/animalfarm_spanish.wav,,,,,,,,,0,0,0,1,0,87,87,94,280.292244229,8.98004509509e-06,281.148287934,0.856053326512,,,,z,1,0.833937462186,2018_Nov_29_1541,59.9880716268,spanish_cond1,001,1067,
images/rhinoceros01.jpg,envelope,x,sounds/animalfarm_spanish.wav,,,,,,,,,0,0,0,1,0,88,88,173,282.262536931,9.94233414531e-06,283.682092106,1.41956575844,,,,x,1,1.40059294645,2018_Nov_29_1541,59.9880716268,spanish_cond1,001,1067,
images/binder03b.jpg,dj mixer,x,sounds/animalfarm_spanish.wav,,,,,,,,,0,0,0,1,0,89,89,167,284.796265412,9.621726349e-06,285.649252659,0.852997509995,,,,x,1,0.833771329606,2018_Nov_29_1541,59.9880716268,spanish_cond1,001,1067,
images/croissant02b.jpg,croissant,z,sounds/animalfarm_spanish.wav,,,,,,,,,0,0,0,1,0,90,90,39,286.762533724,8.98004509509e-06,287.849798332,1.08727487084,,,,z,1,1.06718659587,2018_Nov_29_1541,59.9880716268,spanish_cond1,001,1067,
images/ear.jpg,bullet,x,sounds/animalfarm_spanish.wav,,,,,,,,,0,0,0,1,0,91,91,139,288.9550861,9.30088572204e-06,289.700252535,0.745176697383,,,,x,1,0.733765492449,2018_Nov_29_1541,59.9880716268,spanish_cond1,001,1067,
images/pipe.jpg,icecube,x,sounds/animalfarm_spanish.wav,,,,,,,,,0,0,0,1,0,92,92,188,290.811337311,9.30088572204e-06,292.284215013,1.47288764408,,,,x,1,1.45060211886,2018_Nov_29_1541,59.9880716268,spanish_cond1,001,1067,
images/scooter.jpg,pen,x,sounds/animalfarm_spanish.wav,,,,,,,,,0,0,0,1,0,93,93,212,293.379018778,8.98004509509e-06,294.184691217,0.805681740865,,,,x,1,0.783782362239,2018_Nov_29_1541,59.9880716268,spanish_cond1,001,1067,
images/backpack01b.jpg,swallow,x,sounds/animalfarm_spanish.wav,,,,,,,,,0,0,0,1,0,94,94,228,295.318469795,9.94233414531e-06,296.385244587,1.06678473414,,,,x,1,1.05052328622,2018_Nov_29_1541,59.9880716268,spanish_cond1,001,1067,
images/orange.jpg,bat,x,sounds/animalfarm_spanish.wav,,,,,,,,,0,0,0,1,0,95,95,128,297.512285166,9.62149351835e-06,298.269027976,0.756753072841,,,,x,1,0.733756512403,2018_Nov_29_1541,59.9880716268,spanish_cond1,001,1067,
images/skateboard.jpg,key,x,sounds/animalfarm_spanish.wav,,,,,,,,,0,0,0,1,0,96,96,189,299.362881448,9.62149351835e-06,300.002791865,0.639920038171,,,,x,1,0.61706908443,2018_Nov_29_1541,59.9880716268,spanish_cond1,001,1067,
images/barrel01.jpg,barrel,z,sounds/animalfarm_spanish.wav,,,,,,,,,0,0,0,1,0,97,97,9,301.134830859,9.30088572204e-06,302.520094369,1.38527345192,,,,z,1,1.36726825102,2018_Nov_29_1541,59.9880716268,spanish_cond1,001,1067,
images/dice05a.jpg,band aid,x,sounds/animalfarm_spanish.wav,,,,,,,,,0,0,0,1,0,98,98,126,303.634985446,4.32969536632e-05,304.420559989,0.785596352303,,,,x,1,0.767113921,2018_Nov_29_1541,59.9880716268,spanish_cond1,001,1067,
images/computermouse02a.jpg,world map,x,sounds/animalfarm_spanish.wav,,,,,,,,,0,0,0,1,0,99,99,239,305.52456071,8.98004509509e-06,306.854505534,1.32995476574,,,,x,1,1.31725523015,2018_Nov_29_1541,59.9880716268,spanish_cond1,001,1067,
images/ruler02b.jpg,watermelon,x,sounds/animalfarm_spanish.wav,,,,,,,,,0,0,0,1,0,100,100,238,307.958885345,9.30088572204e-06,309.588485908,1.62961050519,,,,x,1,1.6173153969,2018_Nov_29_1541,59.9880716268,spanish_cond1,001,1067,
images/tie01.jpg,bench,x,sounds/animalfarm_spanish.wav,,,,,,,,,0,0,0,1,0,101,101,130,310.689064871,9.30088572204e-06,311.405842165,0.716805196134,,,,x,1,0.700574537041,2018_Nov_29_1541,59.9880716268,spanish_cond1,001,1067,
images/beermug01b.jpg,beer mug,z,sounds/animalfarm_spanish.wav,,,,,,,,,0,0,0,1,0,102,102,111,312.52483685,8.98004509509e-06,313.406118625,0.881291717524,,,,z,1,0.867153754225,2018_Nov_29_1541,59.9880716268,spanish_cond1,001,1067,
images/lily.jpg,kiwi,x,sounds/animalfarm_spanish.wav,,,,,,,,,0,0,0,1,0,103,103,190,314.507837105,9.30088572204e-06,315.023176484,0.515349000692,,,,x,1,0.500383259961,2018_Nov_29_1541,59.9880716268,spanish_cond1,001,1067,
images/cherry01.jpg,highlighter,x,sounds/animalfarm_spanish.wav,,,,,,,,,0,0,0,1,0,104,104,187,316.134040606,9.30088572204e-06,317.073671547,0.93964120443,,,,x,1,0.917151380796,2018_Nov_29_1541,59.9880716268,spanish_cond1,001,1067,
images/eraser.jpg,eraser,z,sounds/animalfarm_spanish.wav,,,,,,,,,0,0,0,1,0,105,105,110,318.182408977,9.30088572204e-06,318.840772639,0.658373284386,,,,z,1,0.650410136208,2018_Nov_29_1541,59.9880716268,spanish_cond1,001,1067,
images/snowman.jpg,globe,x,sounds/animalfarm_spanish.wav,,,,,,,,,0,0,0,1,0,106,106,180,319.953817013,9.94233414531e-06,321.258042366,1.304235616,,,,x,1,1.28391129151,2018_Nov_29_1541,59.9880716268,spanish_cond1,001,1067,
images/aquarium.jpg,computer mouse,x,sounds/animalfarm_spanish.wav,,,,,,,,,0,0,0,1,0,107,107,159,322.396277022,8.98027792573e-06,323.525427295,1.12916021491,,,,z,0,1.1173477897,2018_Nov_29_1541,59.9880716268,spanish_cond1,001,1067,
images/leaf01a.jpg,leaf,z,sounds/animalfarm_spanish.wav,,,,,,,,,0,0,0,1,0,108,108,68,324.630659579,9.621726349e-06,325.775827553,1.14517855761,,,,z,1,1.13388056657,2018_Nov_29_1541,59.9880716268,spanish_cond1,001,1067,
images/scissors04a.jpg,leek,x,sounds/animalfarm_spanish.wav,,,,,,,,,0,0,0,1,0,109,109,194,326.872118494,9.621726349e-06,327.893002154,1.02089392277,,,,x,1,1.00050160568,2018_Nov_29_1541,59.9880716268,spanish_cond1,001,1067,
images/button07.jpg,radish,x,sounds/animalfarm_spanish.wav,,,,,,,,,0,0,0,1,0,110,110,215,329.007309521,8.98004509509e-06,329.976855588,0.969556008466,,,,x,1,0.950483452762,2018_Nov_29_1541,59.9880716268,spanish_cond1,001,1067,
images/printer03a.jpg,printer,z,sounds/animalfarm_spanish.wav,,,,,,,,,0,0,0,1,0,111,111,72,331.088091102,8.98004509509e-06,331.944019348,0.855937867425,,,,z,1,0.833808212075,2018_Nov_29_1541,59.9880716268,spanish_cond1,001,1067,
images/hat05.jpg,hat,z,sounds/animalfarm_spanish.wav,,,,,,,,,0,0,0,1,0,112,112,15,333.050250675,9.621726349e-06,334.244701711,1.19448727835,,,,z,1,1.18394329934,2018_Nov_29_1541,59.9880716268,spanish_cond1,001,1067,
images/bandaid01.jpg,door handle,x,sounds/animalfarm_spanish.wav,,,,,,,,,0,0,0,1,0,113,113,170,335.353970894,9.30088572204e-06,336.111702482,0.757741210051,,,,x,1,0.733773189597,2018_Nov_29_1541,59.9880716268,spanish_cond1,001,1067,
images/desktopcomputer.jpg,desktop computer,z,sounds/animalfarm_spanish.wav,,,,,,,,,0,0,0,1,0,114,114,16,337.24974599,8.98004509509e-06,337.94549979,0.695763742551,,,,z,1,0.683771393495,2018_Nov_29_1541,59.9880716268,spanish_cond1,001,1067,
images/marker01a.jpg,marker,z,sounds/animalfarm_spanish.wav,,,,,,,,,0,0,0,1,0,115,115,95,339.046042512,8.65943729877e-06,339.962649311,0.916617382783,,,,z,1,0.900472035166,2018_Nov_29_1541,59.9880716268,spanish_cond1,001,1067,
images/bowlingball.jpg,bowling ball,z,sounds/animalfarm_spanish.wav,,,,,,,,,0,0,0,1,0,116,116,20,341.096503899,9.30088572204e-06,341.863133534,0.766640217975,,,,z,1,0.750451252563,2018_Nov_29_1541,59.9880716268,spanish_cond1,001,1067,
images/thumbtack02a.jpg,thumb tack,z,sounds/animalfarm_spanish.wav,,,,,,,,,0,0,0,1,0,117,117,60,342.975615686,9.30088572204e-06,343.663579526,0.687974103726,,,,x,0,0.667103272863,2018_Nov_29_1541,59.9880716268,spanish_cond1,001,1067,
images/clothespin02a.jpg,clothes pin,z,sounds/animalfarm_spanish.wav,,,,,,,,,0,0,0,1,0,118,118,79,344.770545621,9.62149351835e-06,346.480916219,1.71038246457,,,,z,1,1.70066882879,2018_Nov_29_1541,59.9880716268,spanish_cond1,001,1067,
images/honeycomb.jpg,honey comb,z,sounds/animalfarm_spanish.wav,,,,,,,,,0,0,0,1,0,119,119,59,347.5961479,8.98004509509e-06,348.464764457,0.86862649885,,,,z,1,0.850446505938,2018_Nov_29_1541,59.9880716268,spanish_cond1,001,1067,
images/carrot02.jpg,corkscrew,x,sounds/animalfarm_spanish.wav,,,,,,,,,0,0,0,1,0,120,120,161,349.569949596,8.98004509509e-06,350.932026679,1.3620867047,,,,x,1,1.35057607666,2018_Nov_29_1541,59.9880716268,spanish_cond1,001,1067,
images/wallet01.jpg,lamp,x,sounds/animalfarm_spanish.wav,,,,,,,,,0,0,0,1,0,121,121,193,352.039710865,8.98004509509e-06,352.949206347,0.909504783107,,,,x,1,0.900495447684,2018_Nov_29_1541,59.9880716268,spanish_cond1,001,1067,
images/bus.jpg,microphone,x,sounds/animalfarm_spanish.wav,,,,,,,,,0,0,0,1,0,122,122,203,354.070082053,9.621726349e-06,355.533413855,1.46334174485,,,,x,1,1.45085580833,2018_Nov_29_1541,59.9880716268,spanish_cond1,001,1067,
images/bicycle.jpg,hand bag,x,sounds/animalfarm_spanish.wav,,,,,,,,,0,0,0,1,0,123,123,186,356.64569684,9.62149351835e-06,358.067113793,1.42142689461,,,,x,1,1.40060000238,2018_Nov_29_1541,59.9880716268,spanish_cond1,001,1067,
images/tape01a.jpg,tie,x,sounds/animalfarm_spanish.wav,,,,,,,,,0,0,0,1,0,124,124,232,359.195298058,9.621726349e-06,359.934225853,0.738938058726,,,,x,1,0.717080052942,2018_Nov_29_1541,59.9880716268,spanish_cond1,001,1067,
images/bull.jpg,button,x,sounds/animalfarm_spanish.wav,,,,,,,,,0,0,0,1,0,125,125,141,361.042622678,9.30088572204e-06,362.184790961,1.14217854594,,,,x,1,1.13385522971,2018_Nov_29_1541,59.9880716268,spanish_cond1,001,1067,
images/gorilla.jpg,gorilla,z,sounds/animalfarm_spanish.wav,,,,,,,,,0,0,0,1,0,126,126,80,363.298374465,9.30088572204e-06,364.151952477,0.853588596219,,,,z,1,0.833797307685,2018_Nov_29_1541,59.9880716268,spanish_cond1,001,1067,
images/parkingmeter.jpg,ear,x,sounds/animalfarm_spanish.wav,,,,,,,,,0,0,0,1,0,127,127,171,365.256167439,9.30088572204e-06,365.985733749,0.729576252401,,,,x,1,0.717100258218,2018_Nov_29_1541,59.9880716268,spanish_cond1,001,1067,
images/gps.jpg,gps,z,sounds/animalfarm_spanish.wav,,,,,,,,,0,0,0,1,0,128,128,21,367.106796755,9.30088572204e-06,368.186279742,1.07949357084,,,,z,1,1.0671865961,2018_Nov_29_1541,59.9880716268,spanish_cond1,001,1067,
images/nametag01a.jpg,name tag,z,sounds/animalfarm_spanish.wav,,,,,,,,,0,0,0,1,0,129,129,108,369.309537432,9.30088572204e-06,370.220132021,0.910604851553,,,,z,1,0.90048935404,2018_Nov_29_1541,59.9880716268,spanish_cond1,001,1067,
images/giraffe.jpg,lettuce,x,sounds/animalfarm_spanish.wav,,,,,,,,,0,0,0,1,0,130,130,195,371.324630499,9.30088572204e-06,371.987210021,0.662589464802,,,,x,1,0.650405325461,2018_Nov_29_1541,59.9880716268,spanish_cond1,001,1067,
images/mushroom01.jpg,shower head,x,sounds/animalfarm_spanish.wav,,,,,,,,,0,0,0,1,0,131,131,222,373.105899381,8.65943729877e-06,373.837670639,0.731780558592,,,,x,1,0.71709608892,2018_Nov_29_1541,59.9880716268,spanish_cond1,001,1067,
images/rubberglove02a.jpg,lady bug,x,sounds/animalfarm_spanish.wav,,,,,,,,,0,0,0,1,0,132,132,192,374.94474642,9.94210131466e-06,375.754814643,0.810078807175,,,,x,1,0.800456255907,2018_Nov_29_1541,59.9880716268,spanish_cond1,001,1067,
images/blackolive.jpg,tank,x,sounds/animalfarm_spanish.wav,,,,,,,,,0,0,0,1,0,133,133,229,376.872439214,9.62149351835e-06,377.688611374,0.816182422685,,,,x,1,0.800444389228,2018_Nov_29_1541,59.9880716268,spanish_cond1,001,1067,
images/grandpiano.jpg,tulip,x,sounds/animalfarm_spanish.wav,,,,,,,,,0,0,0,1,0,134,134,236,378.805152233,8.98004509509e-06,379.589087899,0.783945287811,,,,x,1,0.767095319228,2018_Nov_29_1541,59.9880716268,spanish_cond1,001,1067,
images/cigar.jpg,crocodile,x,sounds/animalfarm_spanish.wav,,,,,,,,,0,0,0,1,0,135,135,162,380.689502012,9.30088572204e-06,382.173063206,1.48357145698,,,,x,1,1.46727825771,2018_Nov_29_1541,59.9880716268,spanish_cond1,001,1067,
images/cactus.jpg,cactus,z,sounds/animalfarm_spanish.wav,,,,,,,,,0,0,0,1,0,136,136,70,383.287513935,8.65943729877e-06,384.140226005,0.852721370291,,,,z,1,0.833808853757,2018_Nov_29_1541,59.9880716268,spanish_cond1,001,1067,
images/peach01.jpg,peach,z,sounds/animalfarm_spanish.wav,,,,,,,,,0,0,0,1,0,137,137,106,385.271363135,9.30088572204e-06,386.524142171,1.25278929877,,,,z,1,1.23389762896,2018_Nov_29_1541,59.9880716268,spanish_cond1,001,1067,
images/pen03c.jpg,pepper,x,sounds/animalfarm_spanish.wav,,,,,,,,,0,0,0,1,0,138,138,211,387.620756719,9.30088572204e-06,389.758255644,2.13750886801,,,,x,1,2.11742829042,2018_Nov_29_1541,59.9880716268,spanish_cond1,001,1067,
images/dolphin01.jpg,dolphin,z,sounds/animalfarm_spanish.wav,,,,,,,,,0,0,0,1,0,139,139,99,390.860421528,8.98004509509e-06,391.575383869,0.714972283458,,,,z,1,0.700425723335,2018_Nov_29_1541,59.9880716268,spanish_cond1,001,1067,
images/eyedrops.jpg,bicycle,x,sounds/animalfarm_spanish.wav,,,,,,,,,0,0,0,1,0,140,140,131,392.678219737,8.98004509509e-06,393.375826976,0.697617181111,,,,x,1,0.683752791956,2018_Nov_29_1541,59.9880716268,spanish_cond1,001,1067,
images/raisin.jpg,ruler,x,sounds/animalfarm_spanish.wav,,,,,,,,,0,0,0,1,0,141,141,218,394.482337328,9.30088572204e-06,395.609706003,1.12737861741,,,,x,1,1.11719352356,2018_Nov_29_1541,59.9880716268,spanish_cond1,001,1067,
images/comb02a.jpg,diploma,x,sounds/animalfarm_spanish.wav,,,,,,,,,0,0,0,1,0,142,142,166,396.716056316,9.30088572204e-06,397.660282528,0.94424770074,,,,x,1,0.933825595072,2018_Nov_29_1541,59.9880716268,spanish_cond1,001,1067,
images/broom02.jpg,broom,z,sounds/animalfarm_spanish.wav,,,,,,,,,0,0,0,1,0,143,143,116,398.756305028,9.30088572204e-06,399.127250971,0.370955885621,,,,x,0,0.350347082829,2018_Nov_29_1541,59.9880716268,spanish_cond1,001,1067,
images/remotecontrol01c.jpg,remote control,z,sounds/animalfarm_spanish.wav,,,,,,,,,0,0,0,1,0,144,144,85,400.239195597,9.30088572204e-06,401.177582787,0.938397133024,,,,z,1,0.916961515089,2018_Nov_29_1541,59.9880716268,spanish_cond1,001,1067,
images/gamecontroller01.jpg,game controller,z,sounds/animalfarm_spanish.wav,,,,,,,,,0,0,0,1,0,145,145,112,402.299707375,8.98027792573e-06,403.028225253,0.728527819971,,,,z,1,0.717115011532,2018_Nov_29_1541,59.9880716268,spanish_cond1,001,1067,
images/lettuce.jpg,mushroom,x,sounds/animalfarm_spanish.wav,,,,,,,,,0,0,0,1,0,146,146,205,404.154100016,8.98004509509e-06,404.895333786,0.741243391531,,,,x,1,0.717096409528,2018_Nov_29_1541,59.9880716268,spanish_cond1,001,1067,
images/bracelet02a.jpg,chess knight,x,sounds/animalfarm_spanish.wav,,,,,,,,,0,0,0,1,0,147,147,152,406.006459935,8.98004509509e-06,406.879395623,0.87295108242,,,,x,1,0.850679027615,2018_Nov_29_1541,59.9880716268,spanish_cond1,001,1067,
images/radish01.jpg,raisin,x,sounds/animalfarm_spanish.wav,,,,,,,,,0,0,0,1,0,148,148,214,407.993851163,8.98027792573e-06,408.81295919,0.819117648993,,,,z,0,0.800448558526,2018_Nov_29_1541,59.9880716268,spanish_cond1,001,1067,
images/straw.jpg,straw,z,sounds/animalfarm_spanish.wav,,,,,,,,,0,0,0,1,0,149,149,109,409.906368145,9.94233414531e-06,410.896805568,0.990447686287,,,,z,1,0.967144517461,2018_Nov_29_1541,59.9880716268,spanish_cond1,001,1067,
images/ant.jpg,ant,z,sounds/animalfarm_spanish.wav,,,,,,,,,0,0,0,1,0,150,150,98,411.993772266,9.94233414531e-06,412.86397414,0.87021181616,,,,z,1,0.850477615604,2018_Nov_29_1541,59.9880716268,spanish_cond1,001,1067,
images/lipstick04.jpg,lipstick,z,sounds/animalfarm_spanish.wav,,,,,,,,,0,0,0,1,0,151,151,56,413.965808079,9.62149351835e-06,415.414589473,1.44879165664,,,,z,1,1.43393752631,2018_Nov_29_1541,59.9880716268,spanish_cond1,001,1067,
images/cocktailshrimp01.jpg,cocktail shrimp,z,sounds/animalfarm_spanish.wav,,,,,,,,,0,0,0,1,0,152,152,30,416.585344459,8.98004509509e-06,417.465099609,0.87976509193,,,,z,1,0.86713643535,2018_Nov_29_1541,59.9880716268,spanish_cond1,001,1067,
images/screw03c.jpg,screw,z,sounds/animalfarm_spanish.wav,,,,,,,,,0,0,0,1,0,153,153,84,418.561381571,8.98004509509e-06,419.548959778,0.98758782912,,,,z,1,0.967173703248,2018_Nov_29_1541,59.9880716268,spanish_cond1,001,1067,
images/stapler03a.jpg,candy cane,x,sounds/animalfarm_spanish.wav,,,,,,,,,0,0,0,1,0,154,154,145,420.662448348,8.98027792573e-06,421.482753943,0.820314895362,,,,x,1,0.800448558526,2018_Nov_29_1541,59.9880716268,spanish_cond1,001,1067,
images/hand01a.jpg,cupcake,x,sounds/animalfarm_spanish.wav,,,,,,,,,0,0,0,1,0,155,155,163,422.596680295,9.30088572204e-06,423.383224695,0.786554342136,,,,x,1,0.76709820563,2018_Nov_29_1541,59.9880716268,spanish_cond1,001,1067,
images/swan.jpg,swan,z,sounds/animalfarm_spanish.wav,,,,,,,,,0,0,0,1,0,156,156,54,424.477687214,8.98004509509e-06,426.433976654,1.95629938273,,,,z,1,1.93406324857,2018_Nov_29_1541,59.9880716268,spanish_cond1,001,1067,
images/lollipop03b.jpg,lollipop,z,sounds/animalfarm_spanish.wav,,,,,,,,,0,0,0,1,0,157,157,42,427.529987928,8.98004509509e-06,428.717889229,1.18791156355,,,,z,1,1.16721937363,2018_Nov_29_1541,59.9880716268,spanish_cond1,001,1067,
images/cola.jpg,comb,x,sounds/animalfarm_spanish.wav,,,,,,,,,0,0,0,1,0,158,158,157,429.839873021,9.94233414531e-06,430.818402123,0.978540007258,,,,x,1,0.967169533717,2018_Nov_29_1541,59.9880716268,spanish_cond1,001,1067,
images/flower01.jpg,bus,x,sounds/animalfarm_spanish.wav,,,,,,,,,0,0,0,1,0,159,159,140,431.935230668,9.62149351835e-06,432.818900522,0.883680437459,,,,x,1,0.86714862287,2018_Nov_29_1541,59.9880716268,spanish_cond1,001,1067,
images/mailbox01.jpg,mail box,z,sounds/animalfarm_spanish.wav,,,,,,,,,0,0,0,1,0,160,160,73,433.940629342,9.621726349e-06,434.71936967,0.778750271071,,,,z,1,0.76712129754,2018_Nov_29_1541,59.9880716268,spanish_cond1,001,1067,
images/bottleofredwine02.jpg,pipe,x,sounds/animalfarm_spanish.wav,,,,,,,,,0,0,0,1,0,161,161,213,435.820340874,9.94233414531e-06,436.669836446,0.849505835213,,,,x,1,0.83376170788,2018_Nov_29_1541,59.9880716268,spanish_cond1,001,1067,
images/pepper05a.jpg,lighter,x,sounds/animalfarm_spanish.wav,,,,,,,,,0,0,0,1,0,162,162,198,437.793372521,8.65943729877e-06,440.537473525,2.74411062524,,,,x,1,2.73427607794,2018_Nov_29_1541,59.9880716268,spanish_cond1,001,1067,
images/battery03b.jpg,battery,z,sounds/animalfarm_spanish.wav,,,,,,,,,0,0,0,1,0,163,163,34,441.649068566,9.62149351835e-06,442.454587702,0.805529399076,,,,z,1,0.783770495793,2018_Nov_29_1541,59.9880716268,spanish_cond1,001,1067,
images/dragonfly02.jpg,dragon fly,z,sounds/animalfarm_spanish.wav,,,,,,,,,0,0,0,1,0,164,164,29,443.554410729,9.62149351835e-06,445.205288154,1.65088736708,,,,z,1,1.63400083641,2018_Nov_29_1541,59.9880716268,spanish_cond1,001,1067,
images/electricguitar02.jpg,electric guitar,z,sounds/animalfarm_spanish.wav,,,,,,,,,0,0,0,1,0,165,165,100,446.309783745,9.30088572204e-06,447.039072953,0.7292988298,,,,z,1,0.717110200552,2018_Nov_29_1541,59.9880716268,spanish_cond1,001,1067,
images/50dollarbill.jpg,cherry,x,sounds/animalfarm_spanish.wav,,,,,,,,,0,0,0,1,0,166,166,151,448.162216789,8.98027792573e-06,448.889516573,0.727309726877,,,,x,1,0.717098333873,2018_Nov_29_1541,59.9880716268,spanish_cond1,001,1067,
images/graduationcap.jpg,graduation cap,z,sounds/animalfarm_spanish.wav,,,,,,,,,0,0,0,1,0,167,167,35,449.993735062,9.30088572204e-06,450.789987646,0.796262846561,,,,z,1,0.783785569249,2018_Nov_29_1541,59.9880716268,spanish_cond1,001,1067,
images/cake.jpg,cake,z,sounds/animalfarm_spanish.wav,,,,,,,,,0,0,0,1,0,168,168,23,451.905438058,1.02631747723e-05,452.740481041,0.83505356661,,,,z,1,0.817126300652,2018_Nov_29_1541,59.9880716268,spanish_cond1,001,1067,
images/safe.jpg,safe,z,sounds/animalfarm_spanish.wav,,,,,,,,,0,0,0,1,0,169,169,78,453.853567108,8.98027792573e-06,454.607614269,0.754057103535,,,,z,1,0.733787942678,2018_Nov_29_1541,59.9880716268,spanish_cond1,001,1067,
images/licenseplate.jpg,license plate,z,sounds/animalfarm_spanish.wav,,,,,,,,,0,0,0,1,0,170,170,40,455.726918449,9.30088572204e-06,456.474725368,0.747817181982,,,,z,1,0.733770303195,2018_Nov_29_1541,59.9880716268,spanish_cond1,001,1067,
images/puma.jpg,puma,z,sounds/animalfarm_spanish.wav,,,,,,,,,0,0,0,1,0,171,171,4,457.574824855,9.621726349e-06,458.441875017,0.867060745601,,,,z,1,0.850463503972,2018_Nov_29_1541,59.9880716268,spanish_cond1,001,1067,
images/sock03.jpg,sock,z,sounds/animalfarm_spanish.wav,,,,,,,,,0,0,0,1,0,172,172,90,459.550191983,9.30088572204e-06,460.525732941,0.97555186227,,,,z,1,0.967176910257,2018_Nov_29_1541,59.9880716268,spanish_cond1,001,1067,
images/lemon02.jpg,lemon,z,sounds/animalfarm_spanish.wav,,,,,,,,,0,0,0,1,0,173,173,14,461.639888929,8.98004509509e-06,462.342848016,0.702969030011,,,,z,1,0.683772676392,2018_Nov_29_1541,59.9880716268,spanish_cond1,001,1067,
images/kiwi03.jpg,backpack,x,sounds/animalfarm_spanish.wav,,,,,,,,,0,0,0,1,0,174,174,125,463.473725043,8.98027792573e-06,464.176628646,0.70291322493,,,,x,1,0.683764016954,2018_Nov_29_1541,59.9880716268,spanish_cond1,001,1067,
images/lightswitch02a.jpg,fork,x,sounds/animalfarm_spanish.wav,,,,,,,,,0,0,0,1,0,175,175,177,465.290412599,9.30088572204e-06,466.177113254,0.886710917344,,,,x,1,0.867138038855,2018_Nov_29_1541,59.9880716268,spanish_cond1,001,1067,
images/bat.jpg,hand,x,sounds/animalfarm_spanish.wav,,,,,,,,,0,0,0,1,0,176,176,185,467.277499785,9.94233414531e-06,468.677731601,1.40024207905,,,,x,1,1.38393027801,2018_Nov_29_1541,59.9880716268,spanish_cond1,001,1067,
images/cockroach02.jpg,belt,x,sounds/animalfarm_spanish.wav,,,,,,,,,0,0,0,1,0,177,177,129,469.77881217,8.65943729877e-06,470.94498247,1.1661808833,,,,x,1,1.15056183655,2018_Nov_29_1541,59.9880716268,spanish_cond1,001,1067,
images/leek.jpg,donut,x,sounds/animalfarm_spanish.wav,,,,,,,,,0,0,0,1,0,178,178,169,472.048534825,8.98027792573e-06,472.645686257,0.597161374753,,,,x,1,0.583980438765,2018_Nov_29_1541,59.9880716268,spanish_cond1,001,1067,
images/pineapple01a.jpg,pineapple,z,sounds/animalfarm_spanish.wav,,,,,,,,,0,0,0,1,0,179,179,51,473.761740584,9.30088572204e-06,474.512508066,0.750777424313,,,,z,1,0.733767095953,2018_Nov_29_1541,59.9880716268,spanish_cond1,001,1067,
images/redfox.jpg,red fox,z,sounds/animalfarm_spanish.wav,,,,,,,,,0,0,0,1,0,180,180,1,475.627498887,9.30088572204e-06,476.479655791,0.85216716677,,,,z,1,0.833774216007,2018_Nov_29_1541,59.9880716268,spanish_cond1,001,1067,
images/atm.jpg,atm,z,sounds/animalfarm_spanish.wav,,,,,,,,,0,0,0,1,0,181,181,96,477.619800974,9.30088572204e-06,478.663539757,1.04374936642,,,,z,1,1.03385805199,2018_Nov_29_1541,59.9880716268,spanish_cond1,001,1067,
images/diploma01.jpg,glasses,x,sounds/animalfarm_spanish.wav,,,,,,,,,0,0,0,1,0,182,182,179,479.797788189,9.3006528914e-06,480.58066067,0.782882102067,,,,x,1,0.767107185908,2018_Nov_29_1541,59.9880716268,spanish_cond1,001,1067,
images/mirror02.jpg,8 ball,x,sounds/animalfarm_spanish.wav,,,,,,,,,0,0,0,1,0,183,183,121,481.685892633,8.98027792573e-06,482.764369202,1.07848683186,,,,x,1,1.06700891722,2018_Nov_29_1541,59.9880716268,spanish_cond1,001,1067,
images/treadmill.jpg,lily,x,sounds/animalfarm_spanish.wav,,,,,,,,,0,0,0,1,0,184,184,199,483.872518432,9.3006528914e-06,485.181797364,1.30928919534,,,,x,1,1.30057267705,2018_Nov_29_1541,59.9880716268,spanish_cond1,001,1067,
images/banana04a.jpg,banana,z,sounds/animalfarm_spanish.wav,,,,,,,,,0,0,0,1,0,185,185,118,486.290154099,8.65943729877e-06,487.4990372,1.20889240107,,,,z,1,1.20055144536,2018_Nov_29_1541,59.9880716268,spanish_cond1,001,1067,
images/axe01.jpg,axe,z,sounds/animalfarm_spanish.wav,,,,,,,,,0,0,0,1,0,186,186,104,488.605621959,9.62149351835e-06,489.44952386,0.843912163749,,,,z,1,0.833788648248,2018_Nov_29_1541,59.9880716268,spanish_cond1,001,1067,
images/highheelshoe02a.jpg,high heel shoe,z,sounds/animalfarm_spanish.wav,,,,,,,,,0,0,0,1,0,187,187,75,490.558470719,9.62149351835e-06,491.550046376,0.991585920099,,,,z,1,0.967166647082,2018_Nov_29_1541,59.9880716268,spanish_cond1,001,1067,
images/shotglass.jpg,shot glass,z,sounds/animalfarm_spanish.wav,,,,,,,,,0,0,0,1,0,188,188,86,492.660579194,9.62149351835e-06,493.583879733,0.923311443068,,,,x,0,0.900479732314,2018_Nov_29_1541,59.9880716268,spanish_cond1,001,1067,
images/cheetah.jpg,cheetah,z,sounds/animalfarm_spanish.wav,,,,,,,,,0,0,0,1,0,189,189,82,494.688740624,9.30088572204e-06,495.701062031,1.01233134978,,,,z,1,1.00050417124,2018_Nov_29_1541,59.9880716268,spanish_cond1,001,1067,
images/hairpin.jpg,hair pin,z,sounds/animalfarm_spanish.wav,,,,,,,,,0,0,0,1,0,190,190,28,496.794568485,8.98027792573e-06,498.285045998,1.49048745539,,,,z,1,1.46729653864,2018_Nov_29_1541,59.9880716268,spanish_cond1,001,1067,
images/dryingmachine01.jpg,drying machine,z,sounds/animalfarm_spanish.wav,,,,,,,,,0,0,0,1,0,191,191,18,499.409349555,8.98004509509e-06,500.418900586,1.00956033194,,,,z,1,1.00051251007,2018_Nov_29_1541,59.9880716268,spanish_cond1,001,1067,
images/ladybug03.jpg,giraffe,x,sounds/animalfarm_spanish.wav,,,,,,,,,0,0,0,1,0,192,192,178,501.523042424,9.94233414531e-06,502.269347413,0.746315252036,,,,x,1,0.733747211285,2018_Nov_29_1541,59.9880716268,spanish_cond1,001,1067,
images/arrow02.jpg,hammer,x,sounds/animalfarm_spanish.wav,,,,,,,,,0,0,0,1,0,193,193,184,503.368602124,9.30088572204e-06,504.853326889,1.48473470705,,,,x,1,1.4672891621,2018_Nov_29_1541,59.9880716268,spanish_cond1,001,1067,
images/birthdaycandle.jpg,birthday candle,z,sounds/animalfarm_spanish.wav,,,,,,,,,0,0,0,1,0,194,194,55,505.952139649,9.30088572204e-06,506.803821888,0.851692501688,,,,z,1,0.833806929411,2018_Nov_29_1541,59.9880716268,spanish_cond1,001,1067,
images/flamingo.jpg,flamingo,z,sounds/animalfarm_spanish.wav,,,,,,,,,0,0,0,1,0,195,195,52,507.904749794,8.98004509509e-06,508.954332089,1.0495925576,,,,z,1,1.03384458181,2018_Nov_29_1541,59.9880716268,spanish_cond1,001,1067,
images/panda.jpg,panda,z,sounds/animalfarm_spanish.wav,,,,,,,,,0,0,0,1,0,196,196,83,510.065754262,9.30088572204e-06,510.871469037,0.805724717444,,,,z,1,0.783751252573,2018_Nov_29_1541,59.9880716268,spanish_cond1,001,1067,
images/doorhandle.jpg,doll,x,sounds/animalfarm_spanish.wav,,,,,,,,,0,0,0,1,0,197,197,168,511.976426786,9.3006528914e-06,512.805295274,0.828878751257,,,,x,1,0.817141695181,2018_Nov_29_1541,59.9880716268,spanish_cond1,001,1067,
images/plant01.jpg,plant,z,sounds/animalfarm_spanish.wav,,,,,,,,,0,0,0,1,0,198,198,47,513.919007386,9.62149351835e-06,514.755771671,0.836773906602,,,,z,1,0.817127583548,2018_Nov_29_1541,59.9880716268,spanish_cond1,001,1067,
images/knife04.jpg,tooth brush,x,sounds/animalfarm_spanish.wav,,,,,,,,,0,0,0,1,0,199,199,233,515.854080901,8.98027792573e-06,517.156355637,1.30228531989,,,,x,1,1.28389589698,2018_Nov_29_1541,59.9880716268,spanish_cond1,001,1067,
images/acousticguitar02.jpg,acoustic guitar,z,sounds/animalfarm_spanish.wav,,,,,,,,,0,0,0,1,0,200,200,97,518.272504577,9.30088572204e-06,518.940132226,0.667637591949,,,,z,1,0.650419437094,2018_Nov_29_1541,59.9880716268,spanish_cond1,001,1067,
images/table02.jpg,table,z,sounds/animalfarm_spanish.wav,,,,,,,,,0,0,0,1,0,201,201,49,520.057571421,8.98004509509e-06,520.890617603,0.833055483177,,,,z,1,0.817134639481,2018_Nov_29_1541,59.9880716268,spanish_cond1,001,1067,
images/chessknight02b (1).jpg,cockroach,x,sounds/animalfarm_spanish.wav,,,,,,,,,0,0,0,1,0,202,202,155,522.002496482,8.65943729877e-06,523.257880402,1.25539386296,,,,x,1,1.23390949564,2018_Nov_29_1541,59.9880716268,spanish_cond1,001,1067,
images/nailclipper03a.jpg,aquarium,x,sounds/animalfarm_spanish.wav,,,,,,,,,0,0,0,1,0,203,203,123,524.359412224,9.30088572204e-06,525.37505789,1.01565560885,,,,x,1,1.00050898199,2018_Nov_29_1541,59.9880716268,spanish_cond1,001,1067,
images/envelope02a.jpg,grand piano,x,sounds/animalfarm_spanish.wav,,,,,,,,,0,0,0,1,0,204,204,182,526.500433292,9.30088572204e-06,527.325538136,0.825114785694,,,,x,1,0.817138808779,2018_Nov_29_1541,59.9880716268,spanish_cond1,001,1067,
images/saltshaker03c.jpg,salt shaker,z,sounds/animalfarm_spanish.wav,,,,,,,,,0,0,0,1,0,205,205,63,528.439043063,9.94233414531e-06,529.159315879,0.720282759285,,,,x,0,0.700428288896,2018_Nov_29_1541,59.9880716268,spanish_cond1,001,1067,
images/razor04a.jpg,razor,z,sounds/animalfarm_spanish.wav,,,,,,,,,0,0,0,1,0,206,206,36,530.261327176,9.62149351835e-06,531.026451994,0.765134118497,,,,z,1,0.750444838079,2018_Nov_29_1541,59.9880716268,spanish_cond1,001,1067,
images/lychee02a.jpg,lychee,z,sounds/animalfarm_spanish.wav,,,,,,,,,0,0,0,1,0,207,207,62,532.152944463,9.30088572204e-06,533.427043337,1.27410881617,,,,z,1,1.25056959805,2018_Nov_29_1541,59.9880716268,spanish_cond1,001,1067,
images/hammer02a.jpg,flower,x,sounds/animalfarm_spanish.wav,,,,,,,,,0,0,0,1,0,208,208,176,534.524660775,8.98004509509e-06,536.027700876,1.503051006,,,,x,1,1.48397107353,2018_Nov_29_1541,59.9880716268,spanish_cond1,001,1067,
images/bowl02b (1).jpg,bowl,z,sounds/animalfarm_spanish.wav,,,,,,,,,0,0,0,1,0,209,209,24,537.147276064,8.98004509509e-06,537.778107228,0.630841106409,,,,z,1,0.617039578035,2018_Nov_29_1541,59.9880716268,spanish_cond1,001,1067,
images/bed.jpg,bed,z,sounds/animalfarm_spanish.wav,,,,,,,,,0,0,0,1,0,210,210,103,538.900027839,9.62149351835e-06,539.545227243,0.645209346432,,,,z,1,0.633750995854,2018_Nov_29_1541,59.9880716268,spanish_cond1,001,1067,
images/drink.jpg,drink,z,sounds/animalfarm_spanish.wav,,,,,,,,,0,0,0,1,0,211,211,117,540.647842455,9.30088572204e-06,541.712413903,1.06458139047,,,,z,1,1.0505123816,2018_Nov_29_1541,59.9880716268,spanish_cond1,001,1067,
images/beachumbrella01.jpg,beach umbrella,z,sounds/animalfarm_spanish.wav,,,,,,,,,0,0,0,1,0,212,212,92,542.822975906,9.621726349e-06,543.696253802,0.873287838185,,,,z,1,0.850484030088,2018_Nov_29_1541,59.9880716268,spanish_cond1,001,1067,
images/aloe02.jpg,broad sword,x,sounds/animalfarm_spanish.wav,,,,,,,,,0,0,0,1,0,213,213,137,544.819735034,8.65943729877e-06,546.280228788,1.46050305525,,,,x,1,1.4506377189,2018_Nov_29_1541,59.9880716268,spanish_cond1,001,1067,
images/cat.jpg,black olive,x,sounds/animalfarm_spanish.wav,,,,,,,,,0,0,0,1,0,214,214,133,547.413615126,9.30088572204e-06,548.880854256,1.46724843071,,,,x,1,1.45061238226,2018_Nov_29_1541,59.9880716268,spanish_cond1,001,1067,
images/flipflop01b.jpg,flip flop,z,sounds/animalfarm_spanish.wav,,,,,,,,,0,0,0,1,0,215,215,27,550.000007377,8.98027792573e-06,551.38145753,1.38146009552,,,,z,1,1.36725862953,2018_Nov_29_1541,59.9880716268,spanish_cond1,001,1067,
images/lamp04b.jpg,parking meter,x,sounds/animalfarm_spanish.wav,,,,,,,,,0,0,0,1,0,216,216,209,552.505304062,9.621726349e-06,555.498985884,2.99369272753,,,,None,0,,2018_Nov_29_1541,59.9880716268,spanish_cond1,001,1067,
images/tank.jpg,wallet,x,sounds/animalfarm_spanish.wav,,,,,,,,,0,0,0,1,0,217,217,237,556.606442039,8.98027792573e-06,557.799734316,1.19330254011,,,,x,1,1.18389390851,2018_Nov_29_1541,59.9880716268,spanish_cond1,001,1067,
images/ladder.jpg,ladder,z,sounds/animalfarm_spanish.wav,,,,,,,,,0,0,0,1,0,218,218,113,558.895332824,1.53945293278e-05,559.650181463,0.754858581815,,,,z,1,0.733772868989,2018_Nov_29_1541,59.9880716268,spanish_cond1,001,1067,
images/corn01.jpg,corn,z,sounds/animalfarm_spanish.wav,,,,,,,,,0,0,0,1,0,219,219,22,560.75241085,9.30088572204e-06,561.667339323,0.914938736241,,,,z,1,0.900479091099,2018_Nov_29_1541,59.9880716268,spanish_cond1,001,1067,
images/dreamcatcher.jpg,dream catcher,z,sounds/animalfarm_spanish.wav,,,,,,,,,0,0,0,1,0,220,220,48,562.769455174,8.98027792573e-06,563.651168638,0.881723406259,,,,z,1,0.867150226375,2018_Nov_29_1541,59.9880716268,spanish_cond1,001,1067,
,,,sounds/animalfarm_spanish.wav,,,,,,,,,0,0,0,1,,,,,,,,,,,,,,,2018_Nov_29_1541,59.9880716268,spanish_cond1,001,1067,
images/hairdryer03a.jpg,hairdryer,z,sounds/greatgatsby_english.wav,,,,,,,,,0,1,1,0,0,0,0,119,584.776117804,9.30088572204e-06,586.673523759,1.89741621842,,,574.654044852,z,1,1.88407909195,2018_Nov_29_1541,59.9880716268,spanish_cond1,001,1067,
images/diaper01a.jpg,camera,x,sounds/greatgatsby_english.wav,,,,,,,,,0,1,1,0,0,1,1,143,587.793244554,9.30088572204e-06,588.557293357,0.764058424858,,,,x,1,0.750438744435,2018_Nov_29_1541,59.9880716268,spanish_cond1,001,1067,
images/dolphin01.jpg,dolphin,z,sounds/greatgatsby_english.wav,,,,,,,,,0,1,1,0,0,2,2,99,589.657435821,9.30088572204e-06,590.441106893,0.783681014786,,,,z,1,0.767118731514,2018_Nov_29_1541,59.9880716268,spanish_cond1,001,1067,
images/gluestick.jpg,squirrel,x,sounds/greatgatsby_english.wav,,,,,,,,,0,1,1,0,0,3,3,226,591.548648038,8.65943729877e-06,592.158184701,0.609546284424,,,,x,1,0.600383324316,2018_Nov_29_1541,59.9880716268,spanish_cond1,001,1067,
images/dresser02.jpg,dresser,z,sounds/greatgatsby_english.wav,,,,,,,,,0,1,1,0,0,4,4,87,593.281452975,9.30088572204e-06,593.941997852,0.660554819508,,,,z,1,0.650455999188,2018_Nov_29_1541,59.9880716268,spanish_cond1,001,1067,
images/dreamcatcher.jpg,dream catcher,z,sounds/greatgatsby_english.wav,,,,,,,,,0,1,1,0,0,5,5,48,595.040148326,8.98004509509e-06,595.859101767,0.818963062018,,,,z,1,0.800454972778,2018_Nov_29_1541,59.9880716268,spanish_cond1,001,1067,
images/marker01a.jpg,marker,z,sounds/greatgatsby_english.wav,,,,,,,,,0,1,1,0,0,6,6,95,596.957606957,8.98027792573e-06,597.642884771,0.685287756147,,,,z,1,0.66709750006,2018_Nov_29_1541,59.9880716268,spanish_cond1,001,1067,
images/aquarium.jpg,computer mouse,x,sounds/greatgatsby_english.wav,,,,,,,,,0,1,1,0,0,7,7,159,598.779505245,9.30088572204e-06,599.676806646,0.897337321425,,,,x,1,0.883838872891,2018_Nov_29_1541,59.9880716268,spanish_cond1,001,1067,
images/bat.jpg,hand,x,sounds/greatgatsby_english.wav,,,,,,,,,0,1,1,0,0,8,8,185,600.775051091,8.65943729877e-06,601.610500104,0.835458956193,,,,x,1,0.817104491638,2018_Nov_29_1541,59.9880716268,spanish_cond1,001,1067,
images/safe.jpg,safe,z,sounds/greatgatsby_english.wav,,,,,,,,,0,1,1,0,0,9,9,78,602.721643573,9.62149351835e-06,603.344275539,0.622641908703,,,,z,1,0.600400963798,2018_Nov_29_1541,59.9880716268,spanish_cond1,001,1067,
images/lily.jpg,kiwi,x,sounds/greatgatsby_english.wav,,,,,,,,,0,1,1,0,0,10,10,190,604.443926019,9.62149351835e-06,605.111380159,0.667464082595,,,,x,1,0.650408211863,2018_Nov_29_1541,59.9880716268,spanish_cond1,001,1067,
images/broadsword.jpg,teapot,x,sounds/greatgatsby_english.wav,,,,,,,,,0,1,1,0,0,11,11,231,606.204212781,9.94233414531e-06,606.811800751,0.607598874718,,,,x,1,0.583729635924,2018_Nov_29_1541,59.9880716268,spanish_cond1,001,1067,
images/hammer02a.jpg,flower,x,sounds/greatgatsby_english.wav,,,,,,,,,0,1,1,0,0,12,12,176,607.907587521,9.94233414531e-06,608.678927244,0.771349665243,,,,x,1,0.750439065276,2018_Nov_29_1541,59.9880716268,spanish_cond1,001,1067,
images/camera01a.jpg,bull,x,sounds/greatgatsby_english.wav,,,,,,,,,0,1,1,0,0,13,13,138,609.790018435,8.98027792573e-06,610.429370158,0.639361023903,,,,x,1,0.617088968866,2018_Nov_29_1541,59.9880716268,spanish_cond1,001,1067,
images/battery03b.jpg,battery,z,sounds/greatgatsby_english.wav,,,,,,,,,0,1,1,0,0,14,14,34,611.53896872,8.98004509509e-06,612.263136035,0.724176616408,,,,z,1,0.700423798757,2018_Nov_29_1541,59.9880716268,spanish_cond1,001,1067,
images/computermouse02a.jpg,world map,x,sounds/greatgatsby_english.wav,,,,,,,,,0,1,1,0,0,15,15,239,613.364949448,9.3006528914e-06,614.3136497,0.948710514465,,,,x,1,0.93381565297,2018_Nov_29_1541,59.9880716268,spanish_cond1,001,1067,
images/binder03b.jpg,dj mixer,x,sounds/greatgatsby_english.wav,,,,,,,,,0,1,1,0,0,16,16,167,615.426317228,8.98004509509e-06,616.130774397,0.7044671115,,,,z,0,0.683764979243,2018_Nov_29_1541,59.9880716268,spanish_cond1,001,1067,
images/birthdaycandle.jpg,birthday candle,z,sounds/greatgatsby_english.wav,,,,,,,,,0,1,1,0,0,17,17,55,617.227006647,8.65943729877e-06,617.947874398,0.72087705275,,,,z,1,0.700419308851,2018_Nov_29_1541,59.9880716268,spanish_cond1,001,1067,
images/mitten01.jpg,mitten,z,sounds/greatgatsby_english.wav,,,,,,,,,0,1,1,0,0,18,18,102,619.068434195,8.98004509509e-06,619.848350924,0.779926670482,,,,z,1,0.767119052587,2018_Nov_29_1541,59.9880716268,spanish_cond1,001,1067,
images/dice05a.jpg,band aid,x,sounds/greatgatsby_english.wav,,,,,,,,,0,1,1,0,0,19,19,126,620.961015244,8.98004509509e-06,622.132245859,1.17124119774,,,,x,1,1.15053874487,2018_Nov_29_1541,59.9880716268,spanish_cond1,001,1067,
images/mattress.jpg,cat,x,sounds/greatgatsby_english.wav,,,,,,,,,0,1,1,0,0,20,20,147,623.236550301,9.621726349e-06,623.999371069,0.762830710039,,,,z,0,0.750440027332,2018_Nov_29_1541,59.9880716268,spanish_cond1,001,1067,
images/hairpin.jpg,hair pin,z,sounds/greatgatsby_english.wav,,,,,,,,,0,1,1,0,0,21,21,28,625.090605224,9.30088572204e-06,625.949854842,0.859259560937,,,,z,1,0.850471201353,2018_Nov_29_1541,59.9880716268,spanish_cond1,001,1067,
images/puzzle.jpg,puzzle,z,sounds/greatgatsby_english.wav,,,,,,,,,0,1,1,0,0,22,22,57,627.068355298,9.62149351835e-06,628.100385248,1.032040213,,,,z,1,1.01717966842,2018_Nov_29_1541,59.9880716268,spanish_cond1,001,1067,
images/parrot01.jpg,chameleon,x,sounds/greatgatsby_english.wav,,,,,,,,,0,1,1,0,0,23,23,150,629.213607301,8.33882950246e-06,630.050691023,0.837093022885,,,,x,1,0.816947339103,2018_Nov_29_1541,59.9880716268,spanish_cond1,001,1067,
images/bench02.jpg,electric toothbrush,x,sounds/greatgatsby_english.wav,,,,,,,,,0,1,1,0,0,24,24,172,631.159551929,9.3006528914e-06,632.785124574,1.62558900146,,,,x,1,1.60087306285,2018_Nov_29_1541,59.9880716268,spanish_cond1,001,1067,
images/bracelet02a.jpg,chess knight,x,sounds/greatgatsby_english.wav,,,,,,,,,0,1,1,0,0,25,25,152,633.893649366,9.30088572204e-06,635.318861394,1.42522261152,,,,x,1,1.40062598046,2018_Nov_29_1541,59.9880716268,spanish_cond1,001,1067,
images/wallet01.jpg,lamp,x,sounds/greatgatsby_english.wav,,,,,,,,,0,1,1,0,0,26,26,193,636.424146276,9.94233414531e-06,637.135956906,0.711820892291,,,,x,1,0.700386595447,2018_Nov_29_1541,59.9880716268,spanish_cond1,001,1067,
images/giraffe.jpg,lettuce,x,sounds/greatgatsby_english.wav,,,,,,,,,0,1,1,0,0,27,27,195,638.238690784,9.30088572204e-06,639.703244849,1.46456368663,,,,x,1,1.45061366493,2018_Nov_29_1541,59.9880716268,spanish_cond1,001,1067,
images/acousticguitar02.jpg,acoustic guitar,z,sounds/greatgatsby_english.wav,,,,,,,,,0,1,1,0,0,28,28,97,640.817013728,9.62149351835e-06,642.270559412,1.45355594694,,,,z,1,1.43395869387,2018_Nov_29_1541,59.9880716268,spanish_cond1,001,1067,
images/screw03c.jpg,screw,z,sounds/greatgatsby_english.wav,,,,,,,,,0,1,1,0,0,29,29,84,643.365091848,9.30088572204e-06,644.137671794,0.772590208799,,,,z,1,0.750445158919,2018_Nov_29_1541,59.9880716268,spanish_cond1,001,1067,
images/butterfly.jpg,butterfly,z,sounds/greatgatsby_english.wav,,,,,,,,,0,1,1,0,0,30,30,91,645.245979779,9.94233414531e-06,645.821416567,0.575447051087,,,,z,1,0.567041951232,2018_Nov_29_1541,59.9880716268,spanish_cond1,001,1067,
images/printer03a.jpg,printer,z,sounds/greatgatsby_english.wav,,,,,,,,,0,1,1,0,0,31,31,72,646.930825263,8.98027792573e-06,647.605187704,0.674372704467,,,,z,1,0.650411098264,2018_Nov_29_1541,59.9880716268,spanish_cond1,001,1067,
images/chessknight02b (1).jpg,cockroach,x,sounds/greatgatsby_english.wav,,,,,,,,,0,1,1,0,0,32,32,155,648.714199349,1.02629419416e-05,649.555672761,0.841483995318,,,,x,1,0.817110585282,2018_Nov_29_1541,59.9880716268,spanish_cond1,001,1067,
images/pipe.jpg,icecube,x,sounds/greatgatsby_english.wav,,,,,,,,,0,1,1,0,0,33,33,188,650.665493902,9.62149351835e-06,652.68977751,2.02429323015,,,,x,1,2.00074599381,2018_Nov_29_1541,59.9880716268,spanish_cond1,001,1067,
images/swallow.jpg,mattress,x,sounds/greatgatsby_english.wav,,,,,,,,,0,1,1,0,0,34,34,202,653.792423512,9.30088572204e-06,654.623609841,0.831196271349,,,,x,1,0.817141374573,2018_Nov_29_1541,59.9880716268,spanish_cond1,001,1067,
images/mailbox01.jpg,mail box,z,sounds/greatgatsby_english.wav,,,,,,,,,0,1,1,0,0,35,35,73,655.743080474,8.98027792573e-06,657.15755128,1.41448074859,,,,x,0,1.40059839864,2018_Nov_29_1541,59.9880716268,spanish_cond1,001,1067,
images/fork01.jpg,cooking pot,x,sounds/greatgatsby_english.wav,,,,,,,,,0,1,1,0,0,36,36,160,658.251478197,8.98004509509e-06,659.624659877,1.37319226353,,,,x,1,1.35042181052,2018_Nov_29_1541,59.9880716268,spanish_cond1,001,1067,
images/lighter02b.jpg,stapler,x,sounds/greatgatsby_english.wav,,,,,,,,,0,1,1,0,0,37,37,227,660.726874189,9.30088572204e-06,661.958736531,1.23187260493,,,,x,1,1.2172253388,2018_Nov_29_1541,59.9880716268,spanish_cond1,001,1067,
images/handfan01b.jpg,handfan,z,sounds/greatgatsby_english.wav,,,,,,,,,0,1,1,0,0,38,38,69,663.073664491,8.98004509509e-06,663.975899843,0.902245614678,,,,z,1,0.88379044435,2018_Nov_29_1541,59.9880716268,spanish_cond1,001,1067,
images/paperclip04.jpg,eye drops,x,sounds/greatgatsby_english.wav,,,,,,,,,0,1,1,0,0,39,39,174,665.08219403,9.30088572204e-06,666.57654295,1.49435886228,,,,x,1,1.48395183054,2018_Nov_29_1541,59.9880716268,spanish_cond1,001,1067,
images/straw.jpg,straw,z,sounds/greatgatsby_english.wav,,,,,,,,,0,1,1,0,0,40,40,109,667.668127331,8.98027792573e-06,669.543935384,1.87581767491,,,,z,1,1.86738274805,2018_Nov_29_1541,59.9880716268,spanish_cond1,001,1067,
images/weight01.jpg,weight,z,sounds/greatgatsby_english.wav,,,,,,,,,0,1,1,0,0,41,41,67,670.649028476,9.30088572204e-06,671.311057002,0.662038789131,,,,z,1,0.650405325694,2018_Nov_29_1541,59.9880716268,spanish_cond1,001,1067,
images/arrow02.jpg,hammer,x,sounds/greatgatsby_english.wav,,,,,,,,,0,1,1,0,0,42,42,184,672.408502214,8.98004509509e-06,673.061482277,0.652989363531,,,,x,1,0.633755165152,2018_Nov_29_1541,59.9880716268,spanish_cond1,001,1067,
images/cheetah.jpg,cheetah,z,sounds/greatgatsby_english.wav,,,,,,,,,0,1,1,0,0,43,43,82,674.164906023,9.621726349e-06,674.895257134,0.730361053487,,,,z,1,0.717098654713,2018_Nov_29_1541,59.9880716268,spanish_cond1,001,1067,
images/blackolive.jpg,tank,x,sounds/greatgatsby_english.wav,,,,,,,,,0,1,1,0,0,44,44,229,676.010220052,8.65943729877e-06,678.046034494,2.03582406347,,,,x,1,2.01741860458,2018_Nov_29_1541,59.9880716268,spanish_cond1,001,1067,
images/snowman.jpg,globe,x,sounds/greatgatsby_english.wav,,,,,,,,,0,1,1,0,0,45,45,180,679.157832872,9.62149351835e-06,680.229918781,1.07209585141,,,,x,1,1.05052136187,2018_Nov_29_1541,59.9880716268,spanish_cond1,001,1067,
images/lettuce.jpg,mushroom,x,sounds/greatgatsby_english.wav,,,,,,,,,0,1,1,0,0,46,46,205,681.353684171,8.98004509509e-06,681.896988699,0.543314791285,,,,x,1,0.533729122719,2018_Nov_29_1541,59.9880716268,spanish_cond1,001,1067,
images/calculator02b.jpg,dice,x,sounds/greatgatsby_english.wav,,,,,,,,,0,1,1,0,0,47,47,165,682.99920205,9.30088572204e-06,683.697432126,0.698240339523,,,,x,1,0.683757282095,2018_Nov_29_1541,59.9880716268,spanish_cond1,001,1067,
images/computerkeyboard01a.jpg,computer keyboard,z,sounds/greatgatsby_english.wav,,,,,,,,,0,1,1,0,0,48,48,61,684.816468184,8.98004509509e-06,685.797955284,0.981497042347,,,,z,1,0.967159591382,2018_Nov_29_1541,59.9880716268,spanish_cond1,001,1067,
images/coin01b.jpg,arrow,x,sounds/greatgatsby_english.wav,,,,,,,,,0,1,1,0,0,49,49,124,686.901742085,8.98004509509e-06,687.66507408,0.763341616374,,,,x,1,0.750443234574,2018_Nov_29_1541,59.9880716268,spanish_cond1,001,1067,
images/eyedrops.jpg,bicycle,x,sounds/greatgatsby_english.wav,,,,,,,,,0,1,1,0,0,50,50,131,688.766171967,8.98004509509e-06,689.432204999,0.666042332305,,,,x,1,0.650399873266,2018_Nov_29_1541,59.9880716268,spanish_cond1,001,1067,
images/showerhead01.jpg,skateboard,x,sounds/greatgatsby_english.wav,,,,,,,,,0,1,1,0,0,51,51,223,690.540042489,8.65943729877e-06,691.065914301,0.5258817547,,,,x,1,0.517055870732,2018_Nov_29_1541,59.9880716268,spanish_cond1,001,1067,
images/boxingglove02a.jpg,bracelet,x,sounds/greatgatsby_english.wav,,,,,,,,,0,1,1,0,0,52,52,135,692.178691515,8.65943729877e-06,692.749655868,0.570973974187,,,,x,1,0.550385697512,2018_Nov_29_1541,59.9880716268,spanish_cond1,001,1067,
images/treadmill.jpg,lily,x,sounds/greatgatsby_english.wav,,,,,,,,,0,1,1,0,0,53,53,199,693.856031197,8.98027792573e-06,694.450081912,0.59406065708,,,,x,1,0.583731239429,2018_Nov_29_1541,59.9880716268,spanish_cond1,001,1067,
images/lipstick04.jpg,lipstick,z,sounds/greatgatsby_english.wav,,,,,,,,,0,1,1,0,0,54,54,56,695.550852024,8.98004509509e-06,696.133856833,0.583015072392,,,,z,1,0.567094228696,2018_Nov_29_1541,59.9880716268,spanish_cond1,001,1067,
images/scissors04a.jpg,leek,x,sounds/greatgatsby_english.wav,,,,,,,,,0,1,1,0,0,55,55,194,697.228455658,8.98004509509e-06,697.850932396,0.622487001121,,,,x,1,0.600416037487,2018_Nov_29_1541,59.9880716268,spanish_cond1,001,1067,
images/cola.jpg,comb,x,sounds/greatgatsby_english.wav,,,,,,,,,0,1,1,0,0,56,56,157,698.972176929,9.62149351835e-06,699.93478134,0.96261499403,,,,x,1,0.950507506728,2018_Nov_29_1541,59.9880716268,spanish_cond1,001,1067,
images/carrot02.jpg,corkscrew,x,sounds/greatgatsby_english.wav,,,,,,,,,0,1,1,0,0,57,57,161,701.037570061,9.30088572204e-06,701.868579674,0.831019875593,,,,x,1,0.817125338595,2018_Nov_29_1541,59.9880716268,spanish_cond1,001,1067,
images/atm.jpg,atm,z,sounds/greatgatsby_english.wav,,,,,,,,,0,1,1,0,0,58,58,96,703.007917285,9.30088572204e-06,703.719037726,0.711130382726,,,,z,1,0.700432458427,2018_Nov_29_1541,59.9880716268,spanish_cond1,001,1067,
images/flipflop01b.jpg,flip flop,z,sounds/greatgatsby_english.wav,,,,,,,,,0,1,1,0,0,59,59,27,704.836604888,8.98004509509e-06,705.569491929,0.732897625072,,,,z,1,0.717102824012,2018_Nov_29_1541,59.9880716268,spanish_cond1,001,1067,
images/antelope.jpg,antelope,z,sounds/greatgatsby_english.wav,,,,,,,,,0,1,1,0,0,60,60,12,706.674424982,8.98004509509e-06,707.486630802,0.812215762213,,,,z,1,0.800458821468,2018_Nov_29_1541,59.9880716268,spanish_cond1,001,1067,
images/lamp04b.jpg,parking meter,x,sounds/greatgatsby_english.wav,,,,,,,,,0,1,1,0,0,61,61,209,708.608029601,8.98027792573e-06,709.33709623,0.729077212745,,,,x,1,0.717095768312,2018_Nov_29_1541,59.9880716268,spanish_cond1,001,1067,
images/bottleofredwine02.jpg,pipe,x,sounds/greatgatsby_english.wav,,,,,,,,,0,1,1,0,0,62,62,213,710.436353828,9.62149351835e-06,711.287565892,0.851222647354,,,,x,1,0.833790893434,2018_Nov_29_1541,59.9880716268,spanish_cond1,001,1067,
images/beachumbrella01.jpg,beach umbrella,z,sounds/greatgatsby_english.wav,,,,,,,,,0,1,1,0,0,63,63,92,712.393848533,9.30088572204e-06,713.221206432,0.827367841033,,,,z,1,0.816955357092,2018_Nov_29_1541,59.9880716268,spanish_cond1,001,1067,
images/bullet (2).jpg,rubber glove,x,sounds/greatgatsby_english.wav,,,,,,,,,0,1,1,0,0,64,64,217,714.328245972,9.621726349e-06,715.07184569,0.743609661236,,,,x,1,0.733783773379,2018_Nov_29_1541,59.9880716268,spanish_cond1,001,1067,
images/globe.jpg,cloud,x,sounds/greatgatsby_english.wav,,,,,,,,,0,1,1,0,0,65,65,154,716.200960684,8.98027792573e-06,716.939143448,0.738192706369,,,,x,1,0.717264145846,2018_Nov_29_1541,59.9880716268,spanish_cond1,001,1067,
images/notebook02b.jpg,notebook,z,sounds/greatgatsby_english.wav,,,,,,,,,0,1,1,0,0,66,66,7,718.046431866,9.62149351835e-06,718.606033121,0.559611518634,,,,z,1,0.550384094007,2018_Nov_29_1541,59.9880716268,spanish_cond1,001,1067,
images/parkfountain.jpg,park fountain,z,sounds/greatgatsby_english.wav,,,,,,,,,0,1,1,0,0,67,67,93,719.725255517,9.94233414531e-06,720.506508684,0.781263430137,,,,z,1,0.767103978666,2018_Nov_29_1541,59.9880716268,spanish_cond1,001,1067,
images/8ball.jpg,nail clipper,x,sounds/greatgatsby_english.wav,,,,,,,,,0,1,1,0,0,68,68,206,721.623703812,9.30088572204e-06,722.340284504,0.716590955621,,,,x,1,0.70042636455,2018_Nov_29_1541,59.9880716268,spanish_cond1,001,1067,
images/highlighter03b.jpg,coin,x,sounds/greatgatsby_english.wav,,,,,,,,,0,1,1,0,0,69,69,156,723.442958408,9.30088572204e-06,724.574188868,1.13124040258,,,,x,1,1.11721180449,2018_Nov_29_1541,59.9880716268,spanish_cond1,001,1067,
images/ear.jpg,bullet,x,sounds/greatgatsby_english.wav,,,,,,,,,0,1,1,0,0,70,70,139,725.678869514,8.98004509509e-06,726.324631782,0.645772209391,,,,x,1,0.633768314729,2018_Nov_29_1541,59.9880716268,spanish_cond1,001,1067,
images/radish01.jpg,raisin,x,sounds/greatgatsby_english.wav,,,,,,,,,0,1,1,0,0,71,71,214,727.436467042,9.3006528914e-06,728.208409077,0.771952297306,,,,x,1,0.750395447249,2018_Nov_29_1541,59.9880716268,spanish_cond1,001,1067,
images/knife04.jpg,tooth brush,x,sounds/greatgatsby_english.wav,,,,,,,,,0,1,1,0,0,72,72,233,729.305880908,9.621726349e-06,730.542317353,1.23644735012,,,,x,1,1.21721411357,2018_Nov_29_1541,59.9880716268,spanish_cond1,001,1067,
images/nametag01a.jpg,name tag,z,sounds/greatgatsby_english.wav,,,,,,,,,0,1,1,0,0,73,73,108,731.663800502,9.94233414531e-06,734.093195676,2.42940704082,,,,x,0,2.41752437782,2018_Nov_29_1541,59.9880716268,spanish_cond1,001,1067,
images/raisin.jpg,ruler,x,sounds/greatgatsby_english.wav,,,,,,,,,0,1,1,0,0,74,74,218,735.197630652,9.621726349e-06,735.86029292,0.662672531093,,,,x,1,0.650413985131,2018_Nov_29_1541,59.9880716268,spanish_cond1,001,1067,
images/bowtie.jpg,bowtie,z,sounds/greatgatsby_english.wav,,,,,,,,,0,1,1,0,0,75,75,89,736.971253578,9.94233414531e-06,737.660738592,0.689495918574,,,,z,1,0.66708563338,2018_Nov_29_1541,59.9880716268,spanish_cond1,001,1067,
images/apricot.jpg,apricot,z,sounds/greatgatsby_english.wav,,,,,,,,,0,1,1,0,0,76,76,32,738.779693828,8.98004509509e-06,741.211626215,2.43194168806,,,,x,0,2.41753239604,2018_Nov_29_1541,59.9880716268,spanish_cond1,001,1067,
images/lollipop03b.jpg,lollipop,z,sounds/greatgatsby_english.wav,,,,,,,,,0,1,1,0,0,77,77,42,742.303703863,8.98004509509e-06,742.928719738,0.625025497051,,,,x,0,0.617092176108,2018_Nov_29_1541,59.9880716268,spanish_cond1,001,1067,
images/gps.jpg,gps,z,sounds/greatgatsby_english.wav,,,,,,,,,0,1,1,0,0,78,78,21,744.047893385,9.30088572204e-06,744.945865411,0.897981967777,,,,z,1,0.883802952478,2018_Nov_29_1541,59.9880716268,spanish_cond1,001,1067,
images/bicycle.jpg,hand bag,x,sounds/greatgatsby_english.wav,,,,,,,,,0,1,1,0,0,79,79,186,746.056542873,8.98027792573e-06,746.879681705,0.823149095057,,,,x,1,0.800453689881,2018_Nov_29_1541,59.9880716268,spanish_cond1,001,1067,
images/lemon02.jpg,lemon,z,sounds/greatgatsby_english.wav,,,,,,,,,0,1,1,0,0,80,80,14,747.99242364,9.30088572204e-06,749.063550277,1.07113657915,,,,z,1,1.05051430594,2018_Nov_29_1541,59.9880716268,spanish_cond1,001,1067,
images/ostrich.jpg,ostrich,z,sounds/greatgatsby_english.wav,,,,,,,,,0,1,1,0,0,81,81,76,750.163415318,9.30088572204e-06,750.83065618,0.667251445353,,,,z,1,0.6504098156,2018_Nov_29_1541,59.9880716268,spanish_cond1,001,1067,
images/swan.jpg,swan,z,sounds/greatgatsby_english.wav,,,,,,,,,0,1,1,0,0,82,82,54,751.923255638,8.98027792573e-06,752.631104097,0.707859042566,,,,z,1,0.683755036909,2018_Nov_29_1541,59.9880716268,spanish_cond1,001,1067,
images/gorilla.jpg,gorilla,z,sounds/greatgatsby_english.wav,,,,,,,,,0,1,1,0,0,83,83,80,753.742482652,9.621726349e-06,756.731955992,2.98948424449,,,,None,0,,2018_Nov_29_1541,59.9880716268,spanish_cond1,001,1067,
images/honeycomb.jpg,honey comb,z,sounds/greatgatsby_english.wav,,,,,,,,,0,1,1,0,0,84,84,59,757.845618072,9.30088572204e-06,758.632588066,0.786979936995,,,,z,1,0.767124504549,2018_Nov_29_1541,59.9880716268,spanish_cond1,001,1067,
images/bandaid01.jpg,door handle,x,sounds/greatgatsby_english.wav,,,,,,,,,0,1,1,0,0,85,85,170,759.73878251,9.30088572204e-06,760.449692558,0.710919669829,,,,x,1,0.70042379899,2018_Nov_29_1541,59.9880716268,spanish_cond1,001,1067,
images/elbow.jpg,elbow,z,sounds/greatgatsby_english.wav,,,,,,,,,0,1,1,0,0,86,86,105,761.561501199,9.62149351835e-06,762.716950161,1.1554589048,,,,z,1,1.13389692316,2018_Nov_29_1541,59.9880716268,spanish_cond1,001,1067,
images/lychee02a.jpg,lychee,z,sounds/greatgatsby_english.wav,,,,,,,,,0,1,1,0,0,87,87,62,763.842764629,8.98004509509e-06,764.867460362,1.02470503398,,,,z,1,1.00050481269,2018_Nov_29_1541,59.9880716268,spanish_cond1,001,1067,
images/glasses01b.jpg,calculator,x,sounds/greatgatsby_english.wav,,,,,,,,,0,1,1,0,0,88,88,142,765.960609213,9.62149351835e-06,766.667896413,0.707297462272,,,,x,1,0.683764337795,2018_Nov_29_1541,59.9880716268,spanish_cond1,001,1067,
images/backpack01b.jpg,swallow,x,sounds/greatgatsby_english.wav,,,,,,,,,0,1,1,0,0,89,89,228,767.8001551,9.30088572204e-06,768.651712258,0.851567421108,,,,x,1,0.833786403295,2018_Nov_29_1541,59.9880716268,spanish_cond1,001,1067,
images/stapler03a.jpg,candy cane,x,sounds/greatgatsby_english.wav,,,,,,,,,0,1,1,0,0,90,90,145,769.76282622,8.98027792573e-06,770.435559085,0.672798933228,,,,x,1,0.650410777656,2018_Nov_29_1541,59.9880716268,spanish_cond1,001,1067,
images/remotecontrol01c.jpg,remote control,z,sounds/greatgatsby_english.wav,,,,,,,,,0,1,1,0,0,91,91,85,771.545919035,9.30088572204e-06,772.235953121,0.690043387003,,,,z,1,0.667103273096,2018_Nov_29_1541,59.9880716268,spanish_cond1,001,1067,
images/apple06.jpg,apple,z,sounds/greatgatsby_english.wav,,,,,,,,,0,1,1,0,0,92,92,13,773.363669456,9.62149351835e-06,774.003032084,0.639372569742,,,,z,1,0.617064273683,2018_Nov_29_1541,59.9880716268,spanish_cond1,001,1067,
images/bed.jpg,bed,z,sounds/greatgatsby_english.wav,,,,,,,,,0,1,1,0,0,93,93,103,775.123453971,8.65943729877e-06,775.836821052,0.713376703206,,,,z,1,0.700424440438,2018_Nov_29_1541,59.9880716268,spanish_cond1,001,1067,
images/cocktailshrimp01.jpg,cocktail shrimp,z,sounds/greatgatsby_english.wav,,,,,,,,,0,1,1,0,0,94,94,30,776.95225575,8.65943729877e-06,777.620609829,0.668364342768,,,,z,1,0.650431945221,2018_Nov_29_1541,59.9880716268,spanish_cond1,001,1067,
images/headphones02b.jpg,headphones,z,sounds/greatgatsby_english.wav,,,,,,,,,0,1,1,0,0,95,95,101,778.728970413,8.98004509509e-06,779.404363006,0.675402535126,,,,z,1,0.667085954221,2018_Nov_29_1541,59.9880716268,spanish_cond1,001,1067,
images/tie01.jpg,bench,x,sounds/greatgatsby_english.wav,,,,,,,,,0,1,1,0,0,96,96,130,780.50357442,9.62149351835e-06,781.238151013,0.734586855397,,,,x,1,0.717081656447,2018_Nov_29_1541,59.9880716268,spanish_cond1,001,1067,
images/candle08a.jpg,screw driver,x,sounds/greatgatsby_english.wav,,,,,,,,,0,1,1,0,0,97,97,221,782.35301996,9.30088572204e-06,783.138621765,0.785611747066,,,,x,1,0.767114562215,2018_Nov_29_1541,59.9880716268,spanish_cond1,001,1067,
images/sportshorts02.jpg,tape,x,sounds/greatgatsby_english.wav,,,,,,,,,0,1,1,0,0,98,98,230,784.24838197,8.98004509509e-06,785.239137226,0.9907651986,,,,x,1,0.967161836568,2018_Nov_29_1541,59.9880716268,spanish_cond1,001,1067,
images/blueberry02.jpg,blueberry,z,sounds/greatgatsby_english.wav,,,,,,,,,0,1,1,0,0,99,99,46,786.352611043,9.621726349e-06,787.006255316,0.653653894784,,,,z,1,0.63375676889,2018_Nov_29_1541,59.9880716268,spanish_cond1,001,1067,
images/broom02.jpg,broom,z,sounds/greatgatsby_english.wav,,,,,,,,,0,1,1,0,0,100,100,116,788.100748945,8.98004509509e-06,789.773595986,1.67285698326,,,,z,1,1.65066093905,2018_Nov_29_1541,59.9880716268,spanish_cond1,001,1067,
images/watermelon01.jpg,orange,x,sounds/greatgatsby_english.wav,,,,,,,,,0,1,1,0,0,101,101,207,790.90323728,9.30088572204e-06,793.20777309,2.30454575177,,,,x,1,2.28414894477,2018_Nov_29_1541,59.9880716268,spanish_cond1,001,1067,
images/cookingpot.jpg,grasshopper,x,sounds/greatgatsby_english.wav,,,,,,,,,0,1,1,0,0,102,102,183,794.321931643,9.30088572204e-06,797.175429155,2.85350745404,,,,x,1,2.83429987542,2018_Nov_29_1541,59.9880716268,spanish_cond1,001,1067,
images/bull.jpg,button,x,sounds/greatgatsby_english.wav,,,,,,,,,0,1,1,0,0,103,103,141,798.281819237,8.65943729877e-06,801.276269505,2.99446020974,,,,None,0,,2018_Nov_29_1541,59.9880716268,spanish_cond1,001,1067,
images/umbrella01.jpg,umbrella,z,sounds/greatgatsby_english.wav,,,,,,,,,0,1,1,0,0,104,104,53,802.39157431,9.62149351835e-06,803.243785095,0.852221047739,,,,z,1,0.833998398855,2018_Nov_29_1541,59.9880716268,spanish_cond1,001,1067,
images/tulip02.jpg,sport shorts,x,sounds/greatgatsby_english.wav,,,,,,,,,0,1,1,0,0,105,105,225,804.339000984,9.30088572204e-06,805.794221145,1.45522978297,,,,x,1,1.43395035504,2018_Nov_29_1541,59.9880716268,spanish_cond1,001,1067,
images/plate01b.jpg,plate,z,sounds/greatgatsby_english.wav,,,,,,,,,0,1,1,0,0,106,106,3,806.893852703,9.30088572204e-06,808.294830833,1.40098807309,,,,z,1,1.38394086203,2018_Nov_29_1541,59.9880716268,spanish_cond1,001,1067,
images/toucan.jpg,toucan,z,sounds/greatgatsby_english.wav,,,,,,,,,0,1,1,0,0,107,107,81,809.396505054,9.30088572204e-06,810.962154441,1.56565964967,,,,z,1,1.55063842447,2018_Nov_29_1541,59.9880716268,spanish_cond1,001,1067,
images/lantern03.jpg,lantern,z,sounds/greatgatsby_english.wav,,,,,,,,,0,1,1,0,0,108,108,5,812.069996421,9.30088572204e-06,812.795928015,0.725941216107,,,,z,1,0.717093523126,2018_Nov_29_1541,59.9880716268,spanish_cond1,001,1067,
images/pineapple01a.jpg,pineapple,z,sounds/greatgatsby_english.wav,,,,,,,,,0,1,1,0,0,109,109,51,813.909499331,9.621726349e-06,815.36346612,1.45397641044,,,,z,1,1.43417325523,2018_Nov_29_1541,59.9880716268,spanish_cond1,001,1067,
images/sunglasses03a.jpg,sun glasses,z,sounds/greatgatsby_english.wav,,,,,,,,,0,1,1,0,0,110,110,17,816.472164421,3.43171413988e-05,817.763828469,1.29169130861,,,,z,1,1.26723643579,2018_Nov_29_1541,59.9880716268,spanish_cond1,001,1067,
images/parkingmeter.jpg,ear,x,sounds/greatgatsby_english.wav,,,,,,,,,0,1,1,0,0,111,111,171,818.86623842,8.98027792573e-06,819.680966059,0.814737260109,,,,x,1,0.800454010721,2018_Nov_29_1541,59.9880716268,spanish_cond1,001,1067,
images/drink.jpg,drink,z,sounds/greatgatsby_english.wav,,,,,,,,,0,1,1,0,0,112,112,117,820.781551757,9.30088572204e-06,821.531421224,0.749879088718,,,,z,1,0.733765492449,2018_Nov_29_1541,59.9880716268,spanish_cond1,001,1067,
images/teapot.jpg,light switch,x,sounds/greatgatsby_english.wav,,,,,,,,,0,1,1,0,0,113,113,197,822.649344385,8.98027792573e-06,824.332206538,1.68288781098,,,,x,1,1.66733739828,2018_Nov_29_1541,59.9880716268,spanish_cond1,001,1067,
images/crocodile.jpg,triangle ruler,x,sounds/greatgatsby_english.wav,,,,,,,,,0,1,1,0,0,114,114,235,825.430206595,9.30088572204e-06,826.16592527,0.735728617292,,,,x,1,0.717120463494,2018_Nov_29_1541,59.9880716268,spanish_cond1,001,1067,
images/feather03b.jpg,feather,z,sounds/greatgatsby_english.wav,,,,,,,,,0,1,1,0,0,115,115,114,827.267442659,9.30088572204e-06,829.450048557,2.18261616142,,,,z,1,2.16745638521,2018_Nov_29_1541,59.9880716268,spanish_cond1,001,1067,
images/fryingpan01.jpg,frying pan,z,sounds/greatgatsby_english.wav,,,,,,,,,0,1,1,0,0,116,116,45,830.551199042,3.30340117216e-05,832.267429188,1.71625708626,,,,z,1,1.70069352421,2018_Nov_29_1541,59.9880716268,spanish_cond1,001,1067,
images/lightbulb03b.jpg,treadmill,x,sounds/greatgatsby_english.wav,,,,,,,,,0,1,1,0,0,117,117,234,833.370521952,9.62149351835e-06,834.217890191,0.847378181061,,,,x,1,0.833796024788,2018_Nov_29_1541,59.9880716268,spanish_cond1,001,1067,
images/masquerademask02b.jpg,mirror,x,sounds/greatgatsby_english.wav,,,,,,,,,0,1,1,0,0,118,118,204,835.323480719,9.94233414531e-06,836.118357415,0.794887600699,,,,x,1,0.783783324296,2018_Nov_29_1541,59.9880716268,spanish_cond1,001,1067,
images/redfox.jpg,red fox,z,sounds/greatgatsby_english.wav,,,,,,,,,0,1,1,0,0,119,119,1,837.232338931,9.30088572204e-06,838.668994877,1.43666620925,,,,z,1,1.41727966885,2018_Nov_29_1541,59.9880716268,spanish_cond1,001,1067,
images/50dollarbill.jpg,cherry,x,sounds/greatgatsby_english.wav,,,,,,,,,0,1,1,0,0,120,120,151,839.790701889,9.94233414531e-06,840.452759921,0.662067974685,,,,x,1,0.650410456816,2018_Nov_29_1541,59.9880716268,spanish_cond1,001,1067,
images/electricguitar02.jpg,electric guitar,z,sounds/greatgatsby_english.wav,,,,,,,,,0,1,1,0,0,121,121,100,841.555640689,9.30088572204e-06,843.620212137,2.06458106963,,,,z,1,2.05076126009,2018_Nov_29_1541,59.9880716268,spanish_cond1,001,1067,
images/doll.jpg,carrot,x,sounds/greatgatsby_english.wav,,,,,,,,,0,1,1,0,0,122,122,146,844.732467219,9.30088572204e-06,845.503994563,0.77153760707,,,,x,1,0.750433933688,2018_Nov_29_1541,59.9880716268,spanish_cond1,001,1067,
images/flower01.jpg,bus,x,sounds/greatgatsby_english.wav,,,,,,,,,0,1,1,0,0,123,123,140,846.619069092,9.94233414531e-06,847.954606304,1.33554715407,,,,x,1,1.31725138123,2018_Nov_29_1541,59.9880716268,spanish_cond1,001,1067,
images/hand01a.jpg,cupcake,x,sounds/greatgatsby_english.wav,,,,,,,,,0,1,1,0,0,124,124,163,849.066324181,9.94233414531e-06,851.255421124,2.18910720618,,,,x,1,2.1674573475,2018_Nov_29_1541,59.9880716268,spanish_cond1,001,1067,
images/worldmap.jpg,scooter,x,sounds/greatgatsby_english.wav,,,,,,,,,0,1,1,0,0,125,125,220,852.387096422,8.98004509509e-06,853.072547746,0.685461265268,,,,x,1,0.667083067587,2018_Nov_29_1541,59.9880716268,spanish_cond1,001,1067,
images/graduationcap.jpg,graduation cap,z,sounds/greatgatsby_english.wav,,,,,,,,,0,1,1,0,0,126,126,35,854.175138583,9.3006528914e-06,854.922998421,0.747869780054,,,,z,1,0.733777358895,2018_Nov_29_1541,59.9880716268,spanish_cond1,001,1067,
images/pingpongpaddle01c (1).jpg,ping pong paddle,z,sounds/greatgatsby_english.wav,,,,,,,,,0,1,1,0,0,127,127,10,856.034657927,8.98004509509e-06,857.106869237,1.07222157368,,,,z,1,1.05051719234,2018_Nov_29_1541,59.9880716268,spanish_cond1,001,1067,
images/pen03c.jpg,pepper,x,sounds/greatgatsby_english.wav,,,,,,,,,0,1,1,0,0,128,128,211,858.20184138,9.30088572204e-06,858.99067668,0.7888452427,,,,x,1,0.76712129754,2018_Nov_29_1541,59.9880716268,spanish_cond1,001,1067,
images/cherry01.jpg,highlighter,x,sounds/greatgatsby_english.wav,,,,,,,,,0,1,1,0,0,129,129,187,860.100272997,9.30088572204e-06,860.907812987,0.807551857084,,,,x,1,0.783790380228,2018_Nov_29_1541,59.9880716268,spanish_cond1,001,1067,
images/coffeepot03b.jpg,coffee pot,z,sounds/greatgatsby_english.wav,,,,,,,,,0,1,1,0,0,130,130,107,862.031463238,9.30088572204e-06,863.908545511,1.87709253514,,,,z,1,1.86738691735,2018_Nov_29_1541,59.9880716268,spanish_cond1,001,1067,
images/hairband.jpg,hairband,z,sounds/greatgatsby_english.wav,,,,,,,,,0,1,1,0,0,131,131,66,865.019689941,4.45800833404e-05,868.009418895,2.98975268682,,,,None,0,,2018_Nov_29_1541,59.9880716268,spanish_cond1,001,1067,
images/nailclipper03a.jpg,aquarium,x,sounds/greatgatsby_english.wav,,,,,,,,,0,1,1,0,0,132,132,123,869.109912867,8.65943729877e-06,869.910040706,0.800137139857,,,,x,1,0.783794228919,2018_Nov_29_1541,59.9880716268,spanish_cond1,001,1067,
images/baseball01a.jpg,baseball,z,sounds/greatgatsby_english.wav,,,,,,,,,0,1,1,0,0,133,133,74,871.044008187,9.30088572204e-06,871.743810432,0.699812186416,,,,z,1,0.683738680324,2018_Nov_29_1541,59.9880716268,spanish_cond1,001,1067,
images/magnifyingglass01b.jpg,magnifying glass,z,sounds/greatgatsby_english.wav,,,,,,,,,0,1,1,0,0,134,134,64,872.851070947,9.3006528914e-06,873.911009279,1.05994795356,,,,z,1,1.05051366449,2018_Nov_29_1541,59.9880716268,spanish_cond1,001,1067,
images/desktopcomputer.jpg,desktop computer,z,sounds/greatgatsby_english.wav,,,,,,,,,0,1,1,0,0,135,135,16,875.046881194,9.30088572204e-06,877.411889013,2.36501808208,,,,x,0,2.35084644333,2018_Nov_29_1541,59.9880716268,spanish_cond1,001,1067,
images/bowl02b (1).jpg,bowl,z,sounds/greatgatsby_english.wav,,,,,,,,,0,1,1,0,0,136,136,24,878.530488572,9.30088572204e-06,879.179004538,0.648525587749,,,,z,1,0.633775370428,2018_Nov_29_1541,59.9880716268,spanish_cond1,001,1067,
images/cactus.jpg,cactus,z,sounds/greatgatsby_english.wav,,,,,,,,,0,1,1,0,0,137,137,70,880.291317991,9.30088572204e-06,881.329558677,1.038250949,,,,z,1,1.01722681429,2018_Nov_29_1541,59.9880716268,spanish_cond1,001,1067,
images/lip.jpg,boxing glove,x,sounds/greatgatsby_english.wav,,,,,,,,,0,1,1,0,0,138,138,136,882.436585388,9.94233414531e-06,883.163292482,0.726717678364,,,,x,1,0.717089353828,2018_Nov_29_1541,59.9880716268,spanish_cond1,001,1067,
images/saltshaker03c.jpg,salt shaker,z,sounds/greatgatsby_english.wav,,,,,,,,,0,1,1,0,0,139,139,63,884.275238391,9.62149351835e-06,885.247140464,0.971912335837,,,,z,1,0.950491150143,2018_Nov_29_1541,59.9880716268,spanish_cond1,001,1067,
images/mirror02.jpg,8 ball,x,sounds/greatgatsby_english.wav,,,,,,,,,0,1,1,0,0,140,140,121,886.349425334,9.621726349e-06,887.464355219,1.11494014738,,,,x,1,1.10053277947,2018_Nov_29_1541,59.9880716268,spanish_cond1,001,1067,
images/cauliflower01.jpg,glue stick,x,sounds/greatgatsby_english.wav,,,,,,,,,0,1,1,0,0,141,141,181,888.581246945,9.30088572204e-06,889.398172796,0.816935793264,,,,x,1,0.800465235952,2018_Nov_29_1541,59.9880716268,spanish_cond1,001,1067,
images/microphone01.jpg,diaper,x,sounds/greatgatsby_english.wav,,,,,,,,,0,1,1,0,0,142,142,164,890.497879402,8.65943729877e-06,892.565608014,2.0677382336,,,,x,1,2.05075741163,2018_Nov_29_1541,59.9880716268,spanish_cond1,001,1067,
images/lion.jpg,lion,z,sounds/greatgatsby_english.wav,,,,,,,,,0,1,1,0,0,143,143,44,893.679152389,8.98027792573e-06,894.299370941,0.620228493586,,,,z,1,0.60039903922,2018_Nov_29_1541,59.9880716268,spanish_cond1,001,1067,
images/leaf01a.jpg,leaf,z,sounds/greatgatsby_english.wav,,,,,,,,,0,1,1,0,0,144,144,68,895.402591992,9.62149351835e-06,896.049806478,0.647225390188,,,,z,1,0.633749392349,2018_Nov_29_1541,59.9880716268,spanish_cond1,001,1067,
images/parkbench03.jpg,park bench,z,sounds/greatgatsby_english.wav,,,,,,,,,0,1,1,0,0,145,145,71,897.154615733,9.30088572204e-06,898.000281592,0.845675480552,,,,z,1,0.833797949133,2018_Nov_29_1541,59.9880716268,spanish_cond1,001,1067,
images/sock03.jpg,sock,z,sounds/greatgatsby_english.wav,,,,,,,,,0,1,1,0,0,146,146,90,899.106955832,9.62149351835e-06,899.850743813,0.743799206335,,,,z,1,0.73375747446,2018_Nov_29_1541,59.9880716268,spanish_cond1,001,1067,
images/thumbtack02a.jpg,thumb tack,z,sounds/greatgatsby_english.wav,,,,,,,,,0,1,1,0,0,147,147,60,900.961375413,9.30088572204e-06,901.717870627,0.756504835794,,,,z,1,0.733776396839,2018_Nov_29_1541,59.9880716268,spanish_cond1,001,1067,
images/comb02a.jpg,diploma,x,sounds/greatgatsby_english.wav,,,,,,,,,0,1,1,0,0,148,148,166,902.824773861,9.30088572204e-06,903.534973515,0.71020991751,,,,x,1,0.700424119597,2018_Nov_29_1541,59.9880716268,spanish_cond1,001,1067,
images/dryingmachine01.jpg,drying machine,z,sounds/greatgatsby_english.wav,,,,,,,,,0,1,1,0,0,149,149,18,904.657014716,9.30088572204e-06,905.518806359,0.86180158495,,,,z,1,0.850461900467,2018_Nov_29_1541,59.9880716268,spanish_cond1,001,1067,
images/mushroom01.jpg,shower head,x,sounds/greatgatsby_english.wav,,,,,,,,,0,1,1,0,0,150,150,222,906.635880574,8.98027792573e-06,907.419283204,0.783412251854,,,,x,1,0.767128032632,2018_Nov_29_1541,59.9880716268,spanish_cond1,001,1067,
images/kiwi03.jpg,backpack,x,sounds/greatgatsby_english.wav,,,,,,,,,0,1,1,0,0,151,151,125,908.548643548,9.62149351835e-06,909.353089557,0.80445562955,,,,x,1,0.783786531771,2018_Nov_29_1541,59.9880716268,spanish_cond1,001,1067,
images/hat05.jpg,hat,z,sounds/greatgatsby_english.wav,,,,,,,,,0,1,1,0,0,152,152,15,910.45764416,8.98004509509e-06,911.070185966,0.612551427446,,,,z,1,0.600419886177,2018_Nov_29_1541,59.9880716268,spanish_cond1,001,1067,
images/tissuebox03.jpg,tissue box,z,sounds/greatgatsby_english.wav,,,,,,,,,0,1,1,0,0,153,153,58,912.197260541,8.65943729877e-06,913.154024967,0.956774047809,,,,z,1,0.933819501428,2018_Nov_29_1541,59.9880716268,spanish_cond1,001,1067,
images/ladder.jpg,ladder,z,sounds/greatgatsby_english.wav,,,,,,,,,0,1,1,0,0,154,154,113,914.247637579,9.30088572204e-06,915.737991936,1.49036397832,,,,z,1,1.4672846722,2018_Nov_29_1541,59.9880716268,spanish_cond1,001,1067,
images/banjo.jpg,knife,x,sounds/greatgatsby_english.wav,,,,,,,,,0,1,1,0,0,155,155,191,916.835336121,9.30088572204e-06,918.238609642,1.40328346356,,,,x,1,1.38393348525,2018_Nov_29_1541,59.9880716268,spanish_cond1,001,1067,
images/spoon02b.jpg,spoon,z,sounds/greatgatsby_english.wav,,,,,,,,,0,1,1,0,0,156,156,38,919.331596209,9.30088572204e-06,920.172419201,0.840832934482,,,,z,1,0.8171269421,2018_Nov_29_1541,59.9880716268,spanish_cond1,001,1067,
images/chameleon.jpg,50 dollar bill,x,sounds/greatgatsby_english.wav,,,,,,,,,0,1,1,0,0,157,157,120,921.283028992,8.98004509509e-06,921.956368338,0.673349608667,,,,x,1,0.650555742905,2018_Nov_29_1541,59.9880716268,spanish_cond1,001,1067,
images/toothbrush03a.jpg,parrot,x,sounds/greatgatsby_english.wav,,,,,,,,,0,1,1,0,0,158,158,210,923.050760939,8.98004509509e-06,925.540411637,2.48966064001,,,,x,1,2.46752809803,2018_Nov_29_1541,59.9880716268,spanish_cond1,001,1067,
images/donut.jpg,rhinoceros,x,sounds/greatgatsby_english.wav,,,,,,,,,0,1,1,0,0,159,159,216,926.667156833,8.98004509509e-06,928.074379696,1.40723248455,,,,x,1,1.38394374843,2018_Nov_29_1541,59.9880716268,spanish_cond1,001,1067,
images/cake.jpg,cake,z,sounds/greatgatsby_english.wav,,,,,,,,,0,1,1,0,0,160,160,23,929.189065513,9.30088572204e-06,929.991517286,0.802461715648,,,,z,1,0.783769854112,2018_Nov_29_1541,59.9880716268,spanish_cond1,001,1067,
images/basketball01.jpg,basket ball,z,sounds/greatgatsby_english.wav,,,,,,,,,0,1,1,0,0,161,161,33,931.131140338,9.30088572204e-06,933.442356738,2.31122634211,,,,z,1,2.30082315905,2018_Nov_29_1541,59.9880716268,spanish_cond1,001,1067,
images/bowlingball.jpg,bowling ball,z,sounds/greatgatsby_english.wav,,,,,,,,,0,1,1,0,0,162,162,20,934.574632744,9.621726349e-06,935.542706066,0.968083584681,,,,z,1,0.950318923686,2018_Nov_29_1541,59.9880716268,spanish_cond1,001,1067,
images/corn01.jpg,corn,z,sounds/greatgatsby_english.wav,,,,,,,,,0,1,1,0,0,163,163,22,936.641926781,8.98004509509e-06,937.560046415,0.918129255064,,,,z,1,0.900481656892,2018_Nov_29_1541,59.9880716268,spanish_cond1,001,1067,
images/aloe02.jpg,broad sword,x,sounds/greatgatsby_english.wav,,,,,,,,,0,1,1,0,0,164,164,137,938.682685758,9.30088572204e-06,939.743910176,1.0612343601,,,,x,1,1.05051366473,2018_Nov_29_1541,59.9880716268,spanish_cond1,001,1067,
images/envelope02a.jpg,grand piano,x,sounds/greatgatsby_english.wav,,,,,,,,,0,1,1,0,0,165,165,182,940.867373127,8.98004509509e-06,941.694222043,0.826858538203,,,,x,1,0.816955036484,2018_Nov_29_1541,59.9880716268,spanish_cond1,001,1067,
images/paintbrush03a.jpg,paint brush,z,sounds/greatgatsby_english.wav,,,,,,,,,0,1,1,0,0,166,166,0,942.795402997,8.65943729877e-06,943.845022495,1.04962944053,,,,z,1,1.03394432552,2018_Nov_29_1541,59.9880716268,spanish_cond1,001,1067,
images/tape01a.jpg,tie,x,sounds/greatgatsby_english.wav,,,,,,,,,0,1,1,0,0,167,167,232,944.971024263,9.3006528914e-06,946.21218074,1.2411670601,,,,x,1,1.2172153967,2018_Nov_29_1541,59.9880716268,spanish_cond1,001,1067,
images/button07.jpg,radish,x,sounds/greatgatsby_english.wav,,,,,,,,,0,1,1,0,0,168,168,215,947.325137557,8.98004509509e-06,948.612773045,1.2876454303,,,,x,1,1.26724092592,2018_Nov_29_1541,59.9880716268,spanish_cond1,001,1067,
images/electrictoothbrush01a.jpg,banjo,x,sounds/greatgatsby_english.wav,,,,,,,,,0,1,1,0,0,169,169,127,949.708074245,8.98004509509e-06,950.396554124,0.688489821041,,,,x,1,0.667099424405,2018_Nov_29_1541,59.9880716268,spanish_cond1,001,1067,
images/ant.jpg,ant,z,sounds/greatgatsby_english.wav,,,,,,,,,0,1,1,0,0,170,170,98,951.492234736,9.621726349e-06,952.13031673,0.638092257082,,,,z,1,0.617089610547,2018_Nov_29_1541,59.9880716268,spanish_cond1,001,1067,
images/doorhandle.jpg,doll,x,sounds/greatgatsby_english.wav,,,,,,,,,0,1,1,0,0,171,171,168,953.232430657,9.621726349e-06,953.914110317,0.681689923164,,,,x,1,0.667124761268,2018_Nov_29_1541,59.9880716268,spanish_cond1,001,1067,
images/cloud.jpg,ceiling fan,x,sounds/greatgatsby_english.wav,,,,,,,,,0,1,1,0,0,172,172,149,955.020125158,8.98004509509e-06,956.064618915,1.04450337845,,,,x,1,1.03385195835,2018_Nov_29_1541,59.9880716268,spanish_cond1,001,1067,
images/panda.jpg,panda,z,sounds/greatgatsby_english.wav,,,,,,,,,0,1,1,0,0,173,173,83,957.172802782,9.30088572204e-06,957.781723984,0.608931785682,,,,z,1,0.600437205052,2018_Nov_29_1541,59.9880716268,spanish_cond1,001,1067,
images/highheelshoe02a.jpg,high heel shoe,z,sounds/greatgatsby_english.wav,,,,,,,,,0,1,1,0,0,174,174,75,958.888861984,8.98027792573e-06,959.615487295,0.726634932682,,,,z,1,0.717108597048,2018_Nov_29_1541,59.9880716268,spanish_cond1,001,1067,
images/bus.jpg,microphone,x,sounds/greatgatsby_english.wav,,,,,,,,,0,1,1,0,0,175,175,203,960.734712257,9.30088572204e-06,961.382581652,0.647879658267,,,,x,1,0.633745864267,2018_Nov_29_1541,59.9880716268,spanish_cond1,001,1067,
images/lock02a.jpg,lock,z,sounds/greatgatsby_english.wav,,,,,,,,,0,1,1,0,0,176,176,65,962.494361749,8.65943729877e-06,963.116345541,0.621993734268,,,,z,1,0.600405133097,2018_Nov_29_1541,59.9880716268,spanish_cond1,001,1067,
images/nailpolish02b.jpg,nail polish,z,sounds/greatgatsby_english.wav,,,,,,,,,0,1,1,0,0,177,177,94,964.225592915,8.98004509509e-06,964.833441309,0.607858657604,,,,z,1,0.583742144052,2018_Nov_29_1541,59.9880716268,spanish_cond1,001,1067,
images/lightswitch02a.jpg,fork,x,sounds/greatgatsby_english.wav,,,,,,,,,0,1,1,0,0,178,178,177,965.945835263,8.65943729877e-06,966.750569919,0.80474459799,,,,x,1,0.783779154997,2018_Nov_29_1541,59.9880716268,spanish_cond1,001,1067,
images/grandpiano.jpg,tulip,x,sounds/greatgatsby_english.wav,,,,,,,,,0,1,1,0,0,179,179,236,967.865438225,8.98004509509e-06,969.601288395,1.73586011236,,,,x,1,1.71736068255,2018_Nov_29_1541,59.9880716268,spanish_cond1,001,1067,
images/plant01.jpg,plant,z,sounds/greatgatsby_english.wav,,,,,,,,,0,1,1,0,0,180,180,47,970.713382155,9.30088572204e-06,971.385045741,0.671673848759,,,,z,1,0.650412702002,2018_Nov_29_1541,59.9880716268,spanish_cond1,001,1067,
images/cockroach02.jpg,belt,x,sounds/greatgatsby_english.wav,,,,,,,,,0,1,1,0,0,181,181,129,972.484777042,9.62149351835e-06,973.118811554,0.634044775041,,,,x,1,0.617073253728,2018_Nov_29_1541,59.9880716268,spanish_cond1,001,1067,
images/charcoalbarbecue.jpg,charcoal barbecue,z,sounds/greatgatsby_english.wav,,,,,,,,,0,1,1,0,0,182,182,77,974.237091676,8.98027792573e-06,974.952613993,0.715532580623,,,,z,1,0.700444966555,2018_Nov_29_1541,59.9880716268,spanish_cond1,001,1067,
images/medal01.jpg,medal,z,sounds/greatgatsby_english.wav,,,,,,,,,0,1,1,0,0,183,183,115,976.055369039,9.621726349e-06,976.76972971,0.714371575508,,,,x,0,0.700447532348,2018_Nov_29_1541,59.9880716268,spanish_cond1,001,1067,
images/pictureframe04.jpg,picture frame,z,sounds/greatgatsby_english.wav,,,,,,,,,0,1,1,0,0,184,184,41,977.891671167,9.30088572204e-06,979.387024902,1.49536335608,,,,z,1,1.48394092615,2018_Nov_29_1541,59.9880716268,spanish_cond1,001,1067,
images/radio03a.jpg,radio,z,sounds/greatgatsby_english.wav,,,,,,,,,0,1,1,0,0,185,185,37,980.501941316,8.98027792573e-06,981.204159862,0.702228488401,,,,z,1,0.683779732324,2018_Nov_29_1541,59.9880716268,spanish_cond1,001,1067,
images/volleyball.jpg,volley ball,z,sounds/greatgatsby_english.wav,,,,,,,,,0,1,1,0,0,186,186,2,982.337645623,9.30088572204e-06,982.971251974,0.633616934996,,,,z,1,0.617086403072,2018_Nov_29_1541,59.9880716268,spanish_cond1,001,1067,
images/orange.jpg,bat,x,sounds/greatgatsby_english.wav,,,,,,,,,0,1,1,0,0,187,187,128,984.096633791,9.30088572204e-06,984.905056722,0.808433515485,,,,x,1,0.783781079343,2018_Nov_29_1541,59.9880716268,spanish_cond1,001,1067,
images/gamecontroller01.jpg,game controller,z,sounds/greatgatsby_english.wav,,,,,,,,,0,1,1,0,0,188,188,112,986.025175209,8.98004509509e-06,986.772204704,0.747039436828,,,,z,1,0.733803337207,2018_Nov_29_1541,59.9880716268,spanish_cond1,001,1067,
images/eraser.jpg,eraser,z,sounds/greatgatsby_english.wav,,,,,,,,,0,1,1,0,0,189,189,110,987.879479652,9.30088572204e-06,988.455942743,0.576473353896,,,,z,1,0.567082041409,2018_Nov_29_1541,59.9880716268,spanish_cond1,001,1067,
images/floorlamp.jpg,floor lamp,z,sounds/greatgatsby_english.wav,,,,,,,,,0,1,1,0,0,190,190,26,989.548995378,9.62149351835e-06,990.356399383,0.807413947536,,,,z,1,0.783775627147,2018_Nov_29_1541,59.9880716268,spanish_cond1,001,1067,
images/flashlight05.jpg,flash light,z,sounds/greatgatsby_english.wav,,,,,,,,,0,1,1,0,0,191,191,8,991.459613058,9.94233414531e-06,992.156838962,0.697236166336,,,,z,1,0.68375054677,2018_Nov_29_1541,59.9880716268,spanish_cond1,001,1067,
images/flamingo.jpg,flamingo,z,sounds/greatgatsby_english.wav,,,,,,,,,0,1,1,0,0,192,192,52,993.255704961,8.65943729877e-06,993.823924916,0.568228934892,,,,z,1,0.550394998398,2018_Nov_29_1541,59.9880716268,spanish_cond1,001,1067,
images/shotglass.jpg,shot glass,z,sounds/greatgatsby_english.wav,,,,,,,,,0,1,1,0,0,193,193,86,994.932761127,9.621726349e-06,995.574359812,0.641608947888,,,,z,1,0.633746826556,2018_Nov_29_1541,59.9880716268,spanish_cond1,001,1067,
images/scooter.jpg,pen,x,sounds/greatgatsby_english.wav,,,,,,,,,0,1,1,0,0,194,194,212,996.667740864,8.98004509509e-06,997.458143521,0.790412278613,,,,x,1,0.767103657825,2018_Nov_29_1541,59.9880716268,spanish_cond1,001,1067,
images/diploma01.jpg,glasses,x,sounds/greatgatsby_english.wav,,,,,,,,,0,1,1,0,0,195,195,179,998.588214259,8.98004509509e-06,999.258594324,0.670389687177,,,,x,1,0.650416229852,2018_Nov_29_1541,59.9880716268,spanish_cond1,001,1067,
images/ceilingfan02.jpg,paper clip,x,sounds/greatgatsby_english.wav,,,,,,,,,0,1,1,0,0,196,196,208,1000.35888721,8.98004509509e-06,1001.64251626,1.28363867989,,,,x,1,1.26723611495,2018_Nov_29_1541,59.9880716268,spanish_cond1,001,1067,
images/ruler02b.jpg,watermelon,x,sounds/greatgatsby_english.wav,,,,,,,,,0,1,1,0,0,197,197,238,1002.74547304,8.98004509509e-06,1003.50965334,0.764189919923,,,,x,1,0.750449649058,2018_Nov_29_1541,59.9880716268,spanish_cond1,001,1067,
images/triangleruler02.jpg,bottle of red wine,x,sounds/greatgatsby_english.wav,,,,,,,,,0,1,1,0,0,198,198,134,1004.62109764,9.30088572204e-06,1005.22674301,0.605654672254,,,,x,1,0.583746954799,2018_Nov_29_1541,59.9880716268,spanish_cond1,001,1067,
images/egg01b (1).jpg,egg,z,sounds/greatgatsby_english.wav,,,,,,,,,0,1,1,0,0,199,199,19,1006.34006096,9.3006528914e-06,1006.94381473,0.603763709078,,,,z,1,0.583727711579,2018_Nov_29_1541,59.9880716268,spanish_cond1,001,1067,
images/hanger02a.jpg,hanger,z,sounds/greatgatsby_english.wav,,,,,,,,,0,1,1,0,0,200,200,88,1008.03787923,9.621726349e-06,1008.61091736,0.573047747603,,,,z,1,0.550402374705,2018_Nov_29_1541,59.9880716268,spanish_cond1,001,1067,
images/beermug01b.jpg,beer mug,z,sounds/greatgatsby_english.wav,,,,,,,,,0,1,1,0,0,201,201,111,1009.72816765,9.3006528914e-06,1010.52803539,0.799877356738,,,,z,1,0.783784607425,2018_Nov_29_1541,59.9880716268,spanish_cond1,001,1067,
images/fireextinguisher02.jpg,fire extinguisher,x,sounds/greatgatsby_english.wav,,,,,,,,,0,1,1,0,0,202,202,175,1011.63941811,9.30088572204e-06,1012.37849921,0.739091362571,,,,z,0,0.717104427749,2018_Nov_29_1541,59.9880716268,spanish_cond1,001,1067,
images/rubberglove02a.jpg,lady bug,x,sounds/greatgatsby_english.wav,,,,,,,,,0,1,1,0,0,203,203,192,1013.48367986,9.62149351835e-06,1016.47942455,2.99575495464,,,,None,0,,2018_Nov_29_1541,59.9880716268,spanish_cond1,001,1067,
images/handbag02a.jpg,candle,x,sounds/greatgatsby_english.wav,,,,,,,,,0,1,1,0,0,204,204,144,1017.59654142,9.30088572204e-06,1018.53002032,0.933489160379,,,,x,1,0.91715426743,2018_Nov_29_1541,59.9880716268,spanish_cond1,001,1067,
images/licenseplate.jpg,license plate,z,sounds/greatgatsby_english.wav,,,,,,,,,0,1,1,0,0,205,205,40,1019.64790307,9.30088572204e-06,1020.36379806,0.715904936194,,,,z,1,0.700431496371,2018_Nov_29_1541,59.9880716268,spanish_cond1,001,1067,
images/skateboard.jpg,key,x,sounds/greatgatsby_english.wav,,,,,,,,,0,1,1,0,0,206,206,189,1021.4556047,9.621726349e-06,1022.48082385,1.02522941073,,,,x,1,1.01701097004,2018_Nov_29_1541,59.9880716268,spanish_cond1,001,1067,
images/cat.jpg,black olive,x,sounds/greatgatsby_english.wav,,,,,,,,,0,1,1,0,0,207,207,133,1023.61200973,9.30088572204e-06,1024.28144207,0.669441960519,,,,x,1,0.650426813867,2018_Nov_29_1541,59.9880716268,spanish_cond1,001,1067,
images/dragonfly02.jpg,dragon fly,z,sounds/greatgatsby_english.wav,,,,,,,,,0,1,1,0,0,208,208,29,1025.37936932,9.30088572204e-06,1025.84848306,0.469123357907,,,,x,0,0.450361258816,2018_Nov_29_1541,59.9880716268,spanish_cond1,001,1067,
images/candy.jpg,candy,z,sounds/greatgatsby_english.wav,,,,,,,,,0,1,1,0,0,209,209,31,1026.95137826,8.98004509509e-06,1027.53222815,0.580859836424,,,,z,1,0.567060232628,2018_Nov_29_1541,59.9880716268,spanish_cond1,001,1067,
images/pouch01b.jpg,pouch,z,sounds/greatgatsby_english.wav,,,,,,,,,0,1,1,0,0,210,210,25,1028.64515611,8.98027792573e-06,1029.24935888,0.60421239608,,,,z,1,0.583756576292,2018_Nov_29_1541,59.9880716268,spanish_cond1,001,1067,
images/croissant02b.jpg,croissant,z,sounds/greatgatsby_english.wav,,,,,,,,,0,1,1,0,0,211,211,39,1030.36012582,9.94233414531e-06,1031.04977216,0.689655957744,,,,z,1,0.667094613658,2018_Nov_29_1541,59.9880716268,spanish_cond1,001,1067,
images/ashtray02b.jpg,ashtray,z,sounds/greatgatsby_english.wav,,,,,,,,,0,1,1,0,0,212,212,43,1032.16397177,8.65943729877e-06,1033.0002662,0.8363040525,,,,z,1,0.817143940367,2018_Nov_29_1541,59.9880716268,spanish_cond1,001,1067,
