images,name,corrAns,sounds,trials_3.thisRepN,trials_3.thisTrialN,trials_3.thisN,trials_3.thisIndex,trials_4.thisRepN,trials_4.thisTrialN,trials_4.thisN,trials_4.thisIndex,trials_2.thisRepN,trials_2.thisTrialN,trials_2.thisN,trials_2.thisIndex,trials.thisRepN,trials.thisTrialN,trials.thisN,trials.thisIndex,begin_global,begin_routine,end_global,end_routine,key_resp_2.keys,key_resp_2.corr,begin_book,key_resp_1.keys,key_resp_1.corr,key_resp_1.rt,date,frameRate,expName,session,participant,
images/volleyball.jpg,volley ball,z,,0,0,0,0,,,,,,,,,,,,,,,,,,,,,,,2018_Nov_29_1541,59.9903414675,chinese_cond2,001,1068,
images/puma.jpg,puma,z,,,,,,0,0,0,0,,,,,,,,,48.1705953628,9.94233414531e-06,51.0105715271,2.83998771012,None,0,,,,,2018_Nov_29_1541,59.9903414675,chinese_cond2,001,1068,
images/calculator02b.jpg,dice,x,sounds/greatgatsby_chinese.wav,,,,,,,,,0,0,0,0,0,0,0,165,93.1878753609,9.62149351835e-06,94.8880445079,1.70017940993,,,83.0068428523,x,1,1.68399787298,2018_Nov_29_1541,59.9903414675,chinese_cond2,001,1068,
images/computerkeyboard01a.jpg,computer keyboard,z,sounds/greatgatsby_chinese.wav,,,,,,,,,0,0,0,0,0,1,1,61,96.0124900658,9.62149351835e-06,97.3552901573,1.34281003382,,,,z,1,1.33389245276,2018_Nov_29_1541,59.9903414675,chinese_cond2,001,1068,
images/grasshopper.jpg,cauliflower,x,sounds/greatgatsby_chinese.wav,,,,,,,,,0,0,0,0,0,2,2,148,98.4487344122,9.3006528914e-06,99.9395313915,1.49080660078,,,,x,1,1.46753269248,2018_Nov_29_1541,59.9903414675,chinese_cond2,001,1068,
images/dresser02.jpg,dresser,z,sounds/greatgatsby_chinese.wav,,,,,,,,,0,0,0,0,0,3,3,87,101.061987211,8.98004509509e-06,103.923564095,2.86158650508,,,,x,0,2.8509364021,2018_Nov_29_1541,59.9903414675,chinese_cond2,001,1068,
images/eyedrops.jpg,bicycle,x,sounds/greatgatsby_chinese.wav,,,,,,,,,0,0,0,0,0,4,4,131,105.024162299,8.98027792573e-06,106.057446156,1.03330534534,,,,x,1,1.01714112726,2018_Nov_29_1541,59.9903414675,chinese_cond2,001,1068,
images/basketball01.jpg,basket ball,z,sounds/greatgatsby_chinese.wav,,,,,,,,,0,0,0,0,0,5,5,33,107.199232007,9.30088572204e-06,108.241284311,1.04206192563,,,,z,1,1.03382907878,2018_Nov_29_1541,59.9903414675,chinese_cond2,001,1068,
images/envelope02a.jpg,grand piano,x,sounds/greatgatsby_chinese.wav,,,,,,,,,0,0,0,0,0,6,6,182,109.364085865,8.98027792573e-06,112.275596392,2.91152014863,,,,x,1,2.90094541432,2018_Nov_29_1541,59.9903414675,chinese_cond2,001,1068,
images/lychee02a.jpg,lychee,z,sounds/greatgatsby_chinese.wav,,,,,,,,,0,0,0,0,0,7,7,62,113.402341823,8.65943729877e-06,114.44263242,1.04030085984,,,,z,1,1.01699038944,2018_Nov_29_1541,59.9903414675,chinese_cond2,001,1068,
images/ashtray02b.jpg,ashtray,z,sounds/greatgatsby_chinese.wav,,,,,,,,,0,0,0,0,0,8,8,43,115.556260139,9.62149351835e-06,117.643574178,2.08732398157,,,,z,1,2.06740992144,2018_Nov_29_1541,59.9903414675,chinese_cond2,001,1068,
images/swallow.jpg,mattress,x,sounds/greatgatsby_chinese.wav,,,,,,,,,0,0,0,0,0,9,9,202,118.74473813,9.30088572204e-06,120.710973836,1.96624500724,,,,z,0,1.95070298319,2018_Nov_29_1541,59.9903414675,chinese_cond2,001,1068,
images/lip.jpg,boxing glove,x,sounds/greatgatsby_chinese.wav,,,,,,,,,0,0,0,0,0,10,10,136,121.813821882,9.62149351835e-06,123.028242161,1.21443022089,,,,x,1,1.20054502902,2018_Nov_29_1541,59.9903414675,chinese_cond2,001,1068,
images/cheetah.jpg,cheetah,z,sounds/greatgatsby_chinese.wav,,,,,,,,,0,0,0,0,0,11,11,82,124.130291937,9.30088572204e-06,125.612171015,1.48188869911,,,,z,1,1.46725559165,2018_Nov_29_1541,59.9903414675,chinese_cond2,001,1068,
images/honeycomb.jpg,honey comb,z,sounds/greatgatsby_chinese.wav,,,,,,,,,0,0,0,0,0,12,12,59,126.72413709,9.621726349e-06,129.579800564,2.85567341628,,,,z,1,2.83425486484,2018_Nov_29_1541,59.9903414675,chinese_cond2,001,1068,
images/dragonfly02.jpg,dragon fly,z,sounds/greatgatsby_chinese.wav,,,,,,,,,0,0,0,0,0,13,13,29,130.676804796,9.30088572204e-06,133.264038014,2.58724348131,,,,z,1,2.56752794585,2018_Nov_29_1541,59.9903414675,chinese_cond2,001,1068,
images/corkscrew02a.jpg,masquerade mask,x,sounds/greatgatsby_chinese.wav,,,,,,,,,0,0,0,0,0,14,14,201,134.367982917,8.98004509509e-06,136.914920728,2.54694711161,,,,x,1,2.53418283141,2018_Nov_29_1541,59.9903414675,chinese_cond2,001,1068,
images/electricguitar02.jpg,electric guitar,z,sounds/greatgatsby_chinese.wav,,,,,,,,,0,0,0,0,0,15,15,100,138.016596226,9.30088572204e-06,139.782288828,1.76570222317,,,,z,1,1.75066019921,2018_Nov_29_1541,59.9903414675,chinese_cond2,001,1068,
images/cloud.jpg,ceiling fan,x,sounds/greatgatsby_chinese.wav,,,,,,,,,0,0,0,0,0,16,16,149,140.889052206,9.30088572204e-06,143.032915993,2.14387372928,,,,x,1,2.13392407564,2018_Nov_29_1541,59.9903414675,chinese_cond2,001,1068,
images/tent.jpg,tent,z,sounds/greatgatsby_chinese.wav,,,,,,,,,0,0,0,0,0,17,17,11,144.159662065,9.30088572204e-06,145.633714326,1.47406220273,,,,z,1,1.45059233508,2018_Nov_29_1541,59.9903414675,chinese_cond2,001,1068,
images/icecube02 (2).jpg,aloe,x,sounds/greatgatsby_chinese.wav,,,,,,,,,0,0,0,0,0,18,18,122,146.743709265,8.65943729877e-06,149.734554352,2.99085502955,,,,None,0,,2018_Nov_29_1541,59.9903414675,chinese_cond2,001,1068,
images/bowl02b (1).jpg,bowl,z,sounds/greatgatsby_chinese.wav,,,,,,,,,0,0,0,0,0,19,19,24,150.853248142,8.65920446813e-06,151.801881528,0.948643007316,,,,z,1,0.933791490505,2018_Nov_29_1541,59.9903414675,chinese_cond2,001,1068,
images/lemon02.jpg,lemon,z,sounds/greatgatsby_chinese.wav,,,,,,,,,0,0,0,0,0,20,20,14,152.913147795,8.98004509509e-06,154.35250183,1.43936397647,,,,z,1,1.41724561714,2018_Nov_29_1541,59.9903414675,chinese_cond2,001,1068,
images/lightswitch02a.jpg,fork,x,sounds/greatgatsby_chinese.wav,,,,,,,,,0,0,0,0,0,21,21,177,155.463299207,9.30088572204e-06,156.369659955,0.906371011166,,,,x,1,0.883722183295,2018_Nov_29_1541,59.9903414675,chinese_cond2,001,1068,
images/squirrel.jpg,binder,x,sounds/greatgatsby_chinese.wav,,,,,,,,,0,0,0,0,0,22,22,132,157.472426217,9.621726349e-06,159.387056053,1.91463913722,,,,x,1,1.90063014789,2018_Nov_29_1541,59.9903414675,chinese_cond2,001,1068,
images/shotglass.jpg,shot glass,z,sounds/greatgatsby_chinese.wav,,,,,,,,,0,0,0,0,0,23,23,86,160.495106475,9.30088572204e-06,162.58783649,2.09273995692,,,,z,1,2.08407413983,2018_Nov_29_1541,59.9903414675,chinese_cond2,001,1068,
images/pepper05a.jpg,lighter,x,sounds/greatgatsby_chinese.wav,,,,,,,,,0,0,0,0,0,24,24,198,163.70970347,9.30088572204e-06,164.821709315,1.11201578705,,,,x,1,1.10049300874,2018_Nov_29_1541,59.9903414675,chinese_cond2,001,1068,
images/banana04a.jpg,banana,z,sounds/greatgatsby_chinese.wav,,,,,,,,,0,0,0,0,0,25,25,118,165.928340557,9.30088572204e-06,166.922227981,0.993897366105,,,,z,1,0.983786711935,2018_Nov_29_1541,59.9903414675,chinese_cond2,001,1068,
images/candle08a.jpg,screw driver,x,sounds/greatgatsby_chinese.wav,,,,,,,,,0,0,0,0,0,26,26,221,168.035636649,9.30088572204e-06,169.539534342,1.50390827702,,,,x,1,1.48391916882,2018_Nov_29_1541,59.9903414675,chinese_cond2,001,1068,
images/apple06.jpg,apple,z,sounds/greatgatsby_chinese.wav,,,,,,,,,0,0,0,0,0,27,27,13,170.667968998,9.62149351835e-06,172.623612651,1.9556532749,,,,z,1,1.93402914307,2018_Nov_29_1541,59.9903414675,chinese_cond2,001,1068,
images/nametag01a.jpg,name tag,z,sounds/greatgatsby_chinese.wav,,,,,,,,,0,0,0,0,0,28,28,108,173.744395282,8.98004509509e-06,175.140900668,1.3965153282,,,,z,1,1.38391204854,2018_Nov_29_1541,59.9903414675,chinese_cond2,001,1068,
images/bullet (2).jpg,rubber glove,x,sounds/greatgatsby_chinese.wav,,,,,,,,,0,0,0,0,0,29,29,217,176.245403942,8.98004509509e-06,178.124989496,1.87959549692,,,,x,1,1.86739247432,2018_Nov_29_1541,59.9903414675,chinese_cond2,001,1068,
images/cat.jpg,black olive,x,sounds/greatgatsby_chinese.wav,,,,,,,,,0,0,0,0,0,30,30,133,179.255369631,9.3006528914e-06,180.625559413,1.3701997241,,,,x,1,1.3505544262,2018_Nov_29_1541,59.9903414675,chinese_cond2,001,1068,
images/hairpin.jpg,hair pin,z,sounds/greatgatsby_chinese.wav,,,,,,,,,0,0,0,0,0,31,31,28,181.716073583,9.30088572204e-06,182.759429929,1.04336564685,,,,z,1,1.03383324808,2018_Nov_29_1541,59.9903414675,chinese_cond2,001,1068,
images/magnifyingglass01b.jpg,magnifying glass,z,sounds/greatgatsby_chinese.wav,,,,,,,,,0,0,0,0,0,32,32,64,183.865647123,9.621726349e-06,185.343382196,1.47774501471,,,,z,1,1.46726296819,2018_Nov_29_1541,59.9903414675,chinese_cond2,001,1068,
images/toothbrush03a.jpg,parrot,x,sounds/greatgatsby_chinese.wav,,,,,,,,,0,0,0,0,0,33,33,210,186.435211633,9.3006528914e-06,187.944017283,1.50881495094,,,,x,1,1.50059461221,2018_Nov_29_1541,59.9903414675,chinese_cond2,001,1068,
images/blackolive.jpg,tank,x,sounds/greatgatsby_chinese.wav,,,,,,,,,0,0,0,0,0,34,34,229,189.058572841,9.30088572204e-06,190.594660099,1.53609784227,,,,x,1,1.51727775321,2018_Nov_29_1541,59.9903414675,chinese_cond2,001,1068,
images/swan.jpg,swan,z,sounds/greatgatsby_chinese.wav,,,,,,,,,0,0,0,0,0,35,35,54,191.688240659,8.98004509509e-06,194.678840076,2.990609359,,,,None,0,,2018_Nov_29_1541,59.9903414675,chinese_cond2,001,1068,
images/lion.jpg,lion,z,sounds/greatgatsby_chinese.wav,,,,,,,,,0,0,0,0,0,36,36,44,195.790683958,8.98027792573e-06,196.696142204,0.905468188226,,,,z,1,0.88378440286,2018_Nov_29_1541,59.9903414675,chinese_cond2,001,1068,
images/comb02a.jpg,diploma,x,sounds/greatgatsby_chinese.wav,,,,,,,,,0,0,0,0,0,37,37,166,197.800655741,9.62149351835e-06,199.146750255,1.34610477625,,,,x,1,1.33389149047,2018_Nov_29_1541,59.9903414675,chinese_cond2,001,1068,
images/bus.jpg,microphone,x,sounds/greatgatsby_chinese.wav,,,,,,,,,0,0,0,0,0,38,38,203,200.264703826,9.30088572204e-06,201.463990997,1.19929647166,,,,x,1,1.18385066325,2018_Nov_29_1541,59.9903414675,chinese_cond2,001,1068,
images/lock02a.jpg,lock,z,sounds/greatgatsby_chinese.wav,,,,,,,,,0,0,0,0,0,39,39,65,202.574512877,9.62149351835e-06,203.697860294,1.12335768016,,,,z,1,1.10051577957,2018_Nov_29_1541,59.9903414675,chinese_cond2,001,1068,
images/parkingmeter.jpg,ear,x,sounds/greatgatsby_chinese.wav,,,,,,,,,0,0,0,0,0,40,40,171,204.801406864,9.30088572204e-06,205.915050619,1.11365337623,,,,x,1,1.10050455458,2018_Nov_29_1541,59.9903414675,chinese_cond2,001,1068,
images/bottleofredwine02.jpg,pipe,x,sounds/greatgatsby_chinese.wav,,,,,,,,,0,0,0,0,0,41,41,213,207.013186025,9.94233414531e-06,208.248960391,1.23578462843,,,,x,1,1.21720090904,2018_Nov_29_1541,59.9903414675,chinese_cond2,001,1068,
images/lipstick04.jpg,lipstick,z,sounds/greatgatsby_chinese.wav,,,,,,,,,0,0,0,0,0,42,42,56,209.348409139,9.621726349e-06,210.632883664,1.28448446724,,,,z,1,1.2672211465,2018_Nov_29_1541,59.9903414675,chinese_cond2,001,1068,
images/rubberglove02a.jpg,lady bug,x,sounds/greatgatsby_chinese.wav,,,,,,,,,0,0,0,0,0,43,43,192,211.736942743,9.94210131466e-06,213.90034118,2.1634083793,,,,x,1,2.15077110357,2018_Nov_29_1541,59.9903414675,chinese_cond2,001,1068,
images/doll.jpg,carrot,x,sounds/greatgatsby_chinese.wav,,,,,,,,,0,0,0,0,0,44,44,146,215.016991672,1.02629419416e-05,216.450959879,1.43397846958,,,,x,1,1.4171506844,2018_Nov_29_1541,59.9903414675,chinese_cond2,001,1068,
images/crocodile.jpg,triangle ruler,x,sounds/greatgatsby_chinese.wav,,,,,,,,,0,0,0,0,0,45,45,235,217.548476619,9.621726349e-06,218.984902492,1.43643645709,,,,x,1,1.41724529653,2018_Nov_29_1541,59.9903414675,chinese_cond2,001,1068,
images/spoon02b.jpg,spoon,z,sounds/greatgatsby_chinese.wav,,,,,,,,,0,0,0,0,0,46,46,38,220.075673878,9.30088572204e-06,220.852028449,0.776364192599,,,,z,1,0.767093821196,2018_Nov_29_1541,59.9903414675,chinese_cond2,001,1068,
images/mattress.jpg,cat,x,sounds/greatgatsby_chinese.wav,,,,,,,,,0,0,0,0,0,47,47,147,221.955998368,9.3006528914e-06,222.919191096,0.963202670449,,,,x,1,0.950463406276,2018_Nov_29_1541,59.9903414675,chinese_cond2,001,1068,
images/straw.jpg,straw,z,sounds/greatgatsby_chinese.wav,,,,,,,,,0,0,0,0,0,48,48,109,224.010344779,9.30088572204e-06,226.270011078,2.25967592024,,,,z,1,2.25078495895,2018_Nov_29_1541,59.9903414675,chinese_cond2,001,1068,
images/cake.jpg,cake,z,sounds/greatgatsby_chinese.wav,,,,,,,,,0,0,0,0,0,49,49,23,227.383798514,9.30088572204e-06,228.070531155,0.686748035252,,,,z,1,0.667112679454,2018_Nov_29_1541,59.9903414675,chinese_cond2,001,1068,
images/fireextinguisher02.jpg,fire extinguisher,z,sounds/greatgatsby_chinese.wav,,,,,,,,,0,0,0,0,0,50,50,175,229.180556883,8.98004509509e-06,230.020932983,0.840385721764,,,,z,1,0.817114058416,2018_Nov_29_1541,59.9903414675,chinese_cond2,001,1068,
images/ostrich.jpg,ostrich,z,sounds/greatgatsby_chinese.wav,,,,,,,,,0,0,0,0,0,51,51,76,231.12157705,9.94210131466e-06,232.204787816,1.08322134893,,,,x,0,1.06716489233,2018_Nov_29_1541,59.9903414675,chinese_cond2,001,1068,
images/mirror02.jpg,8 ball,x,sounds/greatgatsby_chinese.wav,,,,,,,,,0,0,0,0,0,52,52,121,233.306968125,9.30088572204e-06,234.60538076,1.29842257756,,,,x,1,1.28389017563,2018_Nov_29_1541,59.9903414675,chinese_cond2,001,1068,
images/flashlight05.jpg,flash light,z,sounds/greatgatsby_chinese.wav,,,,,,,,,0,0,0,0,0,53,53,8,235.707478645,9.30088572204e-06,236.48919082,0.781722117914,,,,z,1,0.767114988528,2018_Nov_29_1541,59.9903414675,chinese_cond2,001,1068,
images/baseball01a.jpg,baseball,z,sounds/greatgatsby_chinese.wav,,,,,,,,,0,0,0,0,0,54,54,74,237.621894241,8.65943729877e-06,239.156481178,1.53459655843,,,,z,1,1.51727133896,2018_Nov_29_1541,59.9903414675,chinese_cond2,001,1068,
images/desktopcomputer.jpg,desktop computer,z,sounds/greatgatsby_chinese.wav,,,,,,,,,0,0,0,0,0,55,55,16,240.292038674,8.98027792573e-06,240.973592671,0.681563939434,,,,z,1,0.667069061659,2018_Nov_29_1541,59.9903414675,chinese_cond2,001,1068,
images/umbrella01.jpg,umbrella,z,sounds/greatgatsby_chinese.wav,,,,,,,,,0,0,0,0,0,56,56,53,242.086143096,9.30088572204e-06,243.557575085,1.47144193156,,,,z,1,1.45061927568,2018_Nov_29_1541,59.9903414675,chinese_cond2,001,1068,
images/snowman.jpg,globe,x,sounds/greatgatsby_chinese.wav,,,,,,,,,0,0,0,0,0,57,57,180,244.668503315,9.62149351835e-06,245.958152956,1.28965958278,,,,x,1,1.26721216645,2018_Nov_29_1541,59.9903414675,chinese_cond2,001,1068,
images/cactus.jpg,cactus,z,sounds/greatgatsby_chinese.wav,,,,,,,,,0,0,0,0,0,58,58,70,247.069673553,3.91276553273e-05,247.841954357,0.772312554298,,,,z,1,0.750445959158,2018_Nov_29_1541,59.9903414675,chinese_cond2,001,1068,
images/kiwi03.jpg,backpack,x,sounds/greatgatsby_chinese.wav,,,,,,,,,0,0,0,0,0,59,59,125,248.970449307,8.65943729877e-06,249.775725642,0.805285314564,,,,x,1,0.783750983654,2018_Nov_29_1541,59.9903414675,chinese_cond2,001,1068,
images/coffeepot03b.jpg,coffee pot,z,sounds/greatgatsby_chinese.wav,,,,,,,,,0,0,0,0,0,60,60,107,250.896678895,8.98004509509e-06,252.076291582,1.17962230882,,,,z,1,1.16718291678,2018_Nov_29_1541,59.9903414675,chinese_cond2,001,1068,
images/panda.jpg,panda,z,sounds/greatgatsby_chinese.wav,,,,,,,,,0,0,0,0,0,61,61,83,253.184979593,8.98004509509e-06,254.043445506,0.85847521387,,,,z,1,0.850448909914,2018_Nov_29_1541,59.9903414675,chinese_cond2,001,1068,
images/saltshaker03c.jpg,salt shaker,z,sounds/greatgatsby_chinese.wav,,,,,,,,,0,0,0,0,0,62,62,63,255.154468027,9.30088572204e-06,256.427343443,1.27288535796,,,,z,1,1.25053287391,2018_Nov_29_1541,59.9903414675,chinese_cond2,001,1068,
images/eraser.jpg,eraser,z,sounds/greatgatsby_chinese.wav,,,,,,,,,0,0,0,0,0,63,63,110,257.534323948,9.30088572204e-06,259.428088793,1.89377478766,,,,z,1,1.88403103524,2018_Nov_29_1541,59.9903414675,chinese_cond2,001,1068,
images/diaper01a.jpg,camera,x,sounds/greatgatsby_chinese.wav,,,,,,,,,0,0,0,0,0,64,64,143,260.548164239,9.30088572204e-06,261.545263659,0.997109683929,,,,x,1,0.983808520716,2018_Nov_29_1541,59.9903414675,chinese_cond2,001,1068,
images/gamecontroller01.jpg,game controller,z,sounds/greatgatsby_chinese.wav,,,,,,,,,0,0,0,0,0,65,65,112,262.666569382,9.62149351835e-06,263.895831235,1.22927211621,,,,z,1,1.2171637055,2018_Nov_29_1541,59.9903414675,chinese_cond2,001,1068,
images/pipe.jpg,icecube,x,sounds/greatgatsby_chinese.wav,,,,,,,,,0,0,0,0,0,66,66,188,265.004273896,9.94233414531e-06,266.496307887,1.49204425421,,,,x,1,1.48377067596,2018_Nov_29_1541,59.9903414675,chinese_cond2,001,1068,
images/antelope.jpg,antelope,z,sounds/greatgatsby_chinese.wav,,,,,,,,,0,0,0,0,0,67,67,12,267.601312445,9.94233414531e-06,269.413851773,1.81254959106,,,,x,0,1.80067755003,2018_Nov_29_1541,59.9903414675,chinese_cond2,001,1068,
images/seagull.jpg,seagull,z,sounds/greatgatsby_chinese.wav,,,,,,,,,0,0,0,0,0,68,68,50,270.521254023,9.30088572204e-06,271.330979045,0.809734643903,,,,z,1,0.800430596806,2018_Nov_29_1541,59.9903414675,chinese_cond2,001,1068,
images/gorilla.jpg,gorilla,z,sounds/greatgatsby_chinese.wav,,,,,,,,,0,0,0,0,0,69,69,80,272.441994831,8.98004509509e-06,273.798379601,1.3563940709,,,,x,0,1.33402394736,2018_Nov_29_1541,59.9903414675,chinese_cond2,001,1068,
images/coin01b.jpg,arrow,x,sounds/greatgatsby_chinese.wav,,,,,,,,,0,0,0,0,0,70,70,124,274.901075947,9.30088572204e-06,275.832092901,0.931026896229,,,,x,1,0.917144270148,2018_Nov_29_1541,59.9903414675,chinese_cond2,001,1068,
images/printer03a.jpg,printer,z,sounds/greatgatsby_chinese.wav,,,,,,,,,0,0,0,0,0,71,71,72,276.940993869,9.62149351835e-06,279.932921381,2.99193809601,,,,None,0,,2018_Nov_29_1541,59.9903414675,chinese_cond2,001,1068,
images/raisin.jpg,ruler,x,sounds/greatgatsby_chinese.wav,,,,,,,,,0,0,0,0,0,72,72,218,281.03854268,9.30088572204e-06,282.083591458,1.04505872051,,,,x,1,1.03379732766,2018_Nov_29_1541,59.9903414675,chinese_cond2,001,1068,
images/volleyball.jpg,volley ball,z,sounds/greatgatsby_chinese.wav,,,,,,,,,0,0,0,0,0,73,73,2,283.214261523,9.3006528914e-06,284.300793329,1.08654174884,,,,z,1,1.06715302565,2018_Nov_29_1541,59.9903414675,chinese_cond2,001,1068,
images/marker01a.jpg,marker,z,sounds/greatgatsby_chinese.wav,,,,,,,,,0,0,0,0,0,74,74,95,285.399416869,8.98027792573e-06,286.134613621,0.735206693644,,,,z,1,0.717098599998,2018_Nov_29_1541,59.9903414675,chinese_cond2,001,1068,
images/ear.jpg,bullet,x,sounds/greatgatsby_chinese.wav,,,,,,,,,0,0,0,0,0,75,75,139,287.240012341,8.98004509509e-06,288.118392315,0.878388953395,,,,x,1,0.867109279847,2018_Nov_29_1541,59.9903414675,chinese_cond2,001,1068,
images/puzzle.jpg,puzzle,z,sounds/greatgatsby_chinese.wav,,,,,,,,,0,0,0,0,0,76,76,57,289.238843322,9.30088572204e-06,290.035532415,0.796699356521,,,,z,1,0.783760284772,2018_Nov_29_1541,59.9903414675,chinese_cond2,001,1068,
images/nailclipper03a.jpg,aquarium,x,sounds/greatgatsby_chinese.wav,,,,,,,,,0,0,0,0,0,77,77,123,291.1346938,9.3006528914e-06,292.152714979,1.01803080039,,,,x,1,1.00048043649,2018_Nov_29_1541,59.9903414675,chinese_cond2,001,1068,
images/key03b.jpg,cigar,x,sounds/greatgatsby_chinese.wav,,,,,,,,,0,0,0,0,0,78,78,153,293.253911003,9.30088572204e-06,294.469953476,1.21605273639,,,,x,1,1.20053348341,2018_Nov_29_1541,59.9903414675,chinese_cond2,001,1068,
images/radish01.jpg,raisin,x,sounds/greatgatsby_chinese.wav,,,,,,,,,0,0,0,0,0,79,79,214,295.580641489,9.62149351835e-06,296.70381251,1.12318128487,,,,x,1,1.10049204645,2018_Nov_29_1541,59.9903414675,chinese_cond2,001,1068,
images/triangleruler02.jpg,bottle of red wine,x,sounds/greatgatsby_chinese.wav,,,,,,,,,0,0,0,0,0,80,80,134,297.814428682,9.62149351835e-06,299.221109186,1.40669044689,,,,x,1,1.38391525601,2018_Nov_29_1541,59.9903414675,chinese_cond2,001,1068,
images/knife04.jpg,tooth brush,x,sounds/greatgatsby_chinese.wav,,,,,,,,,0,0,0,0,0,81,81,233,300.318370955,9.94233414531e-06,301.154901318,0.836540626362,,,,x,1,0.817084231647,2018_Nov_29_1541,59.9903414675,chinese_cond2,001,1068,
images/egg01b (1).jpg,egg,z,sounds/greatgatsby_chinese.wav,,,,,,,,,0,0,0,0,0,82,82,19,302.267614668,9.62149351835e-06,303.072038853,0.804434127174,,,,z,1,0.783750021597,2018_Nov_29_1541,59.9903414675,chinese_cond2,001,1068,
images/weight01.jpg,weight,z,sounds/greatgatsby_chinese.wav,,,,,,,,,0,0,0,0,0,83,83,67,304.179314419,8.98027792573e-06,305.305914244,1.1266088048,,,,z,1,1.11717294226,2018_Nov_29_1541,59.9903414675,chinese_cond2,001,1068,
images/candy.jpg,candy,z,sounds/greatgatsby_chinese.wav,,,,,,,,,0,0,0,0,0,84,84,31,306.407958247,9.3006528914e-06,307.23971728,0.831768654054,,,,z,1,0.817097060382,2018_Nov_29_1541,59.9903414675,chinese_cond2,001,1068,
images/flower01.jpg,bus,x,sounds/greatgatsby_chinese.wav,,,,,,,,,0,0,0,0,0,85,85,140,308.353945063,9.30088572204e-06,309.323542542,0.969608062645,,,,x,1,0.950446087401,2018_Nov_29_1541,59.9903414675,chinese_cond2,001,1068,
images/hand01a.jpg,cupcake,x,sounds/greatgatsby_chinese.wav,,,,,,,,,0,0,0,0,0,86,86,163,310.43482228,8.98027792573e-06,311.390741431,0.955929093063,,,,x,1,0.933807526482,2018_Nov_29_1541,59.9903414675,chinese_cond2,001,1068,
images/giraffe.jpg,lettuce,x,sounds/greatgatsby_chinese.wav,,,,,,,,,0,0,0,0,0,87,87,195,312.491928475,9.62149351835e-06,313.591267538,1.09934964683,,,,x,1,1.08382911072,2018_Nov_29_1541,59.9903414675,chinese_cond2,001,1068,
images/flamingo.jpg,flamingo,z,sounds/greatgatsby_chinese.wav,,,,,,,,,0,0,0,0,0,88,88,52,314.689250602,9.30088572204e-06,315.358390223,0.669149884023,,,,z,1,0.650419275509,2018_Nov_29_1541,59.9903414675,chinese_cond2,001,1068,
images/butterfly.jpg,butterfly,z,sounds/greatgatsby_chinese.wav,,,,,,,,,0,0,0,0,0,89,89,91,316.465938079,8.98004509509e-06,317.175475417,0.70954695926,,,,z,1,0.700358370785,2018_Nov_29_1541,59.9903414675,chinese_cond2,001,1068,
images/arrow02.jpg,hammer,x,sounds/greatgatsby_chinese.wav,,,,,,,,,0,0,0,0,0,90,90,184,318.273469066,9.62149351835e-06,319.709426369,1.43596756621,,,,x,1,1.41725106933,2018_Nov_29_1541,59.9903414675,chinese_cond2,001,1068,
images/parkfountain.jpg,park fountain,z,sounds/greatgatsby_chinese.wav,,,,,,,,,0,0,0,0,0,91,91,93,320.829250692,9.62149351835e-06,321.693236814,0.863996384898,,,,z,1,0.850441853981,2018_Nov_29_1541,59.9903414675,chinese_cond2,001,1068,
images/dice05a.jpg,band aid,x,sounds/greatgatsby_chinese.wav,,,,,,,,,0,0,0,0,0,92,92,126,322.806212191,8.65943729877e-06,323.743736205,0.937533314573,,,,x,1,0.917124385713,2018_Nov_29_1541,59.9903414675,chinese_cond2,001,1068,
images/grandpiano.jpg,tulip,x,sounds/greatgatsby_chinese.wav,,,,,,,,,0,0,0,0,0,93,93,236,324.858282462,9.30088572204e-06,325.827578145,0.969305304112,,,,x,1,0.950466934126,2018_Nov_29_1541,59.9903414675,chinese_cond2,001,1068,
images/peach01.jpg,peach,z,sounds/greatgatsby_chinese.wav,,,,,,,,,0,0,0,0,0,94,94,106,326.956137239,9.3006528914e-06,327.778047965,0.821920668241,,,,z,1,0.800422899658,2018_Nov_29_1541,59.9903414675,chinese_cond2,001,1068,
images/leek.jpg,donut,x,sounds/greatgatsby_chinese.wav,,,,,,,,,0,0,0,0,0,95,95,169,328.879025901,8.65943729877e-06,329.645175205,0.766159247141,,,,x,1,0.750416773837,2018_Nov_29_1541,59.9903414675,chinese_cond2,001,1068,
images/chameleon.jpg,50 dollar bill,x,sounds/greatgatsby_chinese.wav,,,,,,,,,0,0,0,0,0,96,96,120,330.757175919,9.62149351835e-06,331.762366749,1.00520109362,,,,x,1,0.983821028844,2018_Nov_29_1541,59.9903414675,chinese_cond2,001,1068,
images/pouch01b.jpg,pouch,z,sounds/greatgatsby_chinese.wav,,,,,,,,,0,0,0,0,0,97,97,25,332.874648733,9.62149351835e-06,334.212965178,1.33832638757,,,,x,0,1.31723304489,2018_Nov_29_1541,59.9903414675,chinese_cond2,001,1068,
images/cupcake.jpg,scissors,x,sounds/greatgatsby_chinese.wav,,,,,,,,,0,0,0,0,0,98,98,219,335.331871605,8.98027792573e-06,336.14675731,0.814895647811,,,,z,0,0.800430275965,2018_Nov_29_1541,59.9903414675,chinese_cond2,001,1068,
images/notebook02b.jpg,notebook,z,sounds/greatgatsby_chinese.wav,,,,,,,,,0,0,0,0,0,99,99,7,337.252815428,8.98027792573e-06,338.163922812,0.911117005395,,,,z,1,0.900446376065,2018_Nov_29_1541,59.9903414675,chinese_cond2,001,1068,
images/tank.jpg,wallet,x,sounds/greatgatsby_chinese.wav,,,,,,,,,0,0,0,0,0,100,100,237,339.268352321,9.62149351835e-06,340.464480413,1.19613835542,,,,z,0,1.18385900185,2018_Nov_29_1541,59.9903414675,chinese_cond2,001,1068,
images/watermelon01.jpg,orange,x,sounds/greatgatsby_chinese.wav,,,,,,,,,0,0,0,0,0,101,101,207,341.594022831,8.98004509509e-06,342.815050555,1.2210370244,,,,x,1,1.20053220028,2018_Nov_29_1541,59.9903414675,chinese_cond2,001,1068,
images/lighter02b.jpg,stapler,x,sounds/greatgatsby_chinese.wav,,,,,,,,,0,0,0,0,0,102,102,227,343.917759729,9.3006528914e-06,344.982245018,1.06449490972,,,,x,1,1.05047469563,2018_Nov_29_1541,59.9903414675,chinese_cond2,001,1068,
images/mailbox01.jpg,mail box,z,sounds/greatgatsby_chinese.wav,,,,,,,,,0,0,0,0,0,103,103,73,346.101567416,8.65943729877e-06,347.482868494,1.38131037913,,,,z,1,1.36725777248,2018_Nov_29_1541,59.9903414675,chinese_cond2,001,1068,
images/pineapple01a.jpg,pineapple,z,sounds/greatgatsby_chinese.wav,,,,,,,,,0,0,0,0,0,104,104,51,348.596097239,9.62149351835e-06,350.033473723,1.43738642544,,,,z,1,1.41725491802,2018_Nov_29_1541,59.9903414675,chinese_cond2,001,1068,
images/flipflop01b.jpg,flip flop,z,sounds/greatgatsby_chinese.wav,,,,,,,,,0,0,0,0,0,105,105,27,351.150376941,9.62149351835e-06,351.883910766,0.733543767594,,,,z,1,0.71707005566,2018_Nov_29_1541,59.9903414675,chinese_cond2,001,1068,
images/sock03.jpg,sock,z,sounds/greatgatsby_chinese.wav,,,,,,,,,0,0,0,0,0,106,106,90,352.989613848,9.94210131466e-06,353.634189951,0.644586045295,,,,z,1,0.633560701506,2018_Nov_29_1541,59.9903414675,chinese_cond2,001,1068,
images/tie01.jpg,bench,x,sounds/greatgatsby_chinese.wav,,,,,,,,,0,0,0,0,0,107,107,130,354.732748706,9.94233414531e-06,355.601502631,0.868763867067,,,,x,1,0.85044634412,2018_Nov_29_1541,59.9903414675,chinese_cond2,001,1068,
images/hammer02a.jpg,flower,x,sounds/greatgatsby_chinese.wav,,,,,,,,,0,0,0,0,0,108,108,176,356.696579985,9.30088572204e-06,357.585312434,0.888742391719,,,,x,1,0.867119542789,2018_Nov_29_1541,59.9903414675,chinese_cond2,001,1068,
images/hanger02a.jpg,hanger,z,sounds/greatgatsby_chinese.wav,,,,,,,,,0,0,0,0,0,109,109,88,358.678655022,9.3006528914e-06,359.519113867,0.840468787821,,,,z,1,0.817096098326,2018_Nov_29_1541,59.9903414675,chinese_cond2,001,1068,
images/bowtie.jpg,bowtie,z,sounds/greatgatsby_chinese.wav,,,,,,,,,0,0,0,0,0,110,110,89,360.62894075,9.30088572204e-06,361.419573714,0.790642906213,,,,z,1,0.767076502321,2018_Nov_29_1541,59.9903414675,chinese_cond2,001,1068,
images/showerhead01.jpg,skateboard,x,sounds/greatgatsby_chinese.wav,,,,,,,,,0,0,0,0,0,111,111,223,362.527672885,9.3006528914e-06,364.737056278,2.20939269359,,,,x,1,2.20077755023,2018_Nov_29_1541,59.9903414675,chinese_cond2,001,1068,
images/medal01.jpg,medal,z,sounds/greatgatsby_chinese.wav,,,,,,,,,0,0,0,0,0,112,112,115,365.837915868,9.30088572204e-06,367.154310554,1.31640430819,,,,z,1,1.3005534322,2018_Nov_29_1541,59.9903414675,chinese_cond2,001,1068,
images/plate01b.jpg,plate,z,sounds/greatgatsby_chinese.wav,,,,,,,,,0,0,0,0,0,113,113,3,368.253261548,8.98004509509e-06,369.438192071,1.18494046503,,,,z,1,1.16711428296,2018_Nov_29_1541,59.9903414675,chinese_cond2,001,1068,
images/table02.jpg,table,z,sounds/greatgatsby_chinese.wav,,,,,,,,,0,0,0,0,0,114,114,49,370.552773927,9.30088572204e-06,371.338652879,0.785888894228,,,,z,1,0.767083558021,2018_Nov_29_1541,59.9903414675,chinese_cond2,001,1068,
images/skateboard.jpg,key,x,sounds/greatgatsby_chinese.wav,,,,,,,,,0,0,0,0,0,115,115,189,372.429832219,9.62149351835e-06,373.305796861,0.875976187177,,,,x,1,0.867095488822,2018_Nov_29_1541,59.9903414675,chinese_cond2,001,1068,
images/screw03c.jpg,screw,z,sounds/greatgatsby_chinese.wav,,,,,,,,,0,0,0,0,0,116,116,84,374.399351443,9.30088572204e-06,375.489675747,1.0903342464,,,,z,1,1.06716649584,2018_Nov_29_1541,59.9903414675,chinese_cond2,001,1068,
images/redfox.jpg,red fox,z,sounds/greatgatsby_chinese.wav,,,,,,,,,0,0,0,0,0,117,117,1,376.602605582,9.3006528914e-06,377.740210545,1.13761522598,,,,z,1,1.11716428306,2018_Nov_29_1541,59.9903414675,chinese_cond2,001,1068,
images/safe.jpg,safe,z,sounds/greatgatsby_chinese.wav,,,,,,,,,0,0,0,0,0,118,118,78,378.851253913,9.94210131466e-06,380.007436823,1.15619381401,,,,z,1,1.13384902757,2018_Nov_29_1541,59.9903414675,chinese_cond2,001,1068,
images/hat05.jpg,hat,z,sounds/greatgatsby_chinese.wav,,,,,,,,,0,0,0,0,0,119,119,15,381.111360559,9.621726349e-06,381.741187775,0.629837158369,,,,z,1,0.617050107103,2018_Nov_29_1541,59.9903414675,chinese_cond2,001,1068,
images/lamp04b.jpg,parking meter,x,sounds/greatgatsby_chinese.wav,,,,,,,,,0,0,0,0,0,120,120,209,382.862284068,9.30088572204e-06,384.041792201,1.17951743398,,,,x,1,1.16722428938,2018_Nov_29_1541,59.9903414675,chinese_cond2,001,1068,
images/button07.jpg,radish,x,sounds/greatgatsby_chinese.wav,,,,,,,,,0,0,0,0,0,121,121,215,385.153595993,9.94233414531e-06,386.375668939,1.22208320838,,,,x,1,1.2005472742,2018_Nov_29_1541,59.9903414675,chinese_cond2,001,1068,
images/birthdaycandle.jpg,birthday candle,z,sounds/greatgatsby_chinese.wav,,,,,,,,,0,0,0,0,0,122,122,55,387.47192333,8.98004509509e-06,388.559553919,1.08764021005,,,,z,1,1.0671889463,2018_Nov_29_1541,59.9903414675,chinese_cond2,001,1068,
images/bandaid01.jpg,door handle,x,sounds/greatgatsby_chinese.wav,,,,,,,,,0,0,0,0,0,123,123,170,389.667006201,8.98004509509e-06,390.693372478,1.02637589886,,,,x,1,1.01715620095,2018_Nov_29_1541,59.9903414675,chinese_cond2,001,1068,
images/cigar.jpg,crocodile,x,sounds/greatgatsby_chinese.wav,,,,,,,,,0,0,0,0,0,124,124,162,391.791935081,9.30088572204e-06,393.043982709,1.25205724966,,,,x,1,1.23389944457,2018_Nov_29_1541,59.9903414675,chinese_cond2,001,1068,
images/sportshorts02.jpg,tape,x,sounds/greatgatsby_chinese.wav,,,,,,,,,0,0,0,0,0,125,125,230,394.151365716,9.3006528914e-06,395.061089199,0.909732783446,,,,x,1,0.900435792515,2018_Nov_29_1541,59.9903414675,chinese_cond2,001,1068,
images/lettuce.jpg,mushroom,x,sounds/greatgatsby_chinese.wav,,,,,,,,,0,0,0,0,0,126,126,205,396.184396526,8.98027792573e-06,397.111596928,0.927209703252,,,,x,1,0.917122781975,2018_Nov_29_1541,59.9903414675,chinese_cond2,001,1068,
images/banjo.jpg,knife,x,sounds/greatgatsby_chinese.wav,,,,,,,,,0,0,0,0,0,127,127,191,398.208271141,9.30088572204e-06,399.062069315,0.853807795793,,,,x,1,0.833769296994,2018_Nov_29_1541,59.9903414675,chinese_cond2,001,1068,
images/masquerademask02b.jpg,mirror,x,sounds/greatgatsby_chinese.wav,,,,,,,,,0,0,0,0,0,128,128,204,400.167323712,8.98004509509e-06,400.962529482,0.795215391321,,,,x,1,0.78370415885,2018_Nov_29_1541,59.9903414675,chinese_cond2,001,1068,
images/tape01a.jpg,tie,x,sounds/greatgatsby_chinese.wav,,,,,,,,,0,0,0,0,0,129,129,232,402.087814681,9.3006528914e-06,403.0630443,0.975239560707,,,,x,1,0.96712794574,2018_Nov_29_1541,59.9903414675,chinese_cond2,001,1068,
images/lantern03.jpg,lantern,z,sounds/greatgatsby_chinese.wav,,,,,,,,,0,0,0,0,0,130,130,5,404.170434683,8.98027792573e-06,404.996853109,0.826428368455,,,,z,1,0.81709738099,2018_Nov_29_1541,59.9903414675,chinese_cond2,001,1068,
images/lily.jpg,kiwi,x,sounds/greatgatsby_chinese.wav,,,,,,,,,0,0,0,0,0,131,131,190,406.096346117,9.62149351835e-06,406.963985545,0.867649690714,,,,x,1,0.850420045201,2018_Nov_29_1541,59.9903414675,chinese_cond2,001,1068,
images/diploma01.jpg,glasses,x,sounds/greatgatsby_chinese.wav,,,,,,,,,0,0,0,0,0,132,132,179,408.09487049,9.30088572204e-06,409.097846118,1.00298556965,,,,x,1,0.983804030577,2018_Nov_29_1541,59.9903414675,chinese_cond2,001,1068,
images/cocktailshrimp01.jpg,cocktail shrimp,z,sounds/greatgatsby_chinese.wav,,,,,,,,,0,0,0,0,0,133,133,30,410.212542792,9.30088572204e-06,411.298550223,1.0860167325,,,,z,1,1.06732653454,2018_Nov_29_1541,59.9903414675,chinese_cond2,001,1068,
images/beermug01b.jpg,beer mug,z,sounds/greatgatsby_chinese.wav,,,,,,,,,0,0,0,0,0,134,134,111,412.415435161,9.30088572204e-06,413.365556681,0.950131141813,,,,z,1,0.933803677792,2018_Nov_29_1541,59.9903414675,chinese_cond2,001,1068,
images/treadmill.jpg,lily,x,sounds/greatgatsby_chinese.wav,,,,,,,,,0,0,0,0,0,135,135,199,414.47166419,9.94210131466e-06,415.39939474,0.927741133841,,,,x,1,0.91713176202,2018_Nov_29_1541,59.9903414675,chinese_cond2,001,1068,
images/cola.jpg,comb,x,sounds/greatgatsby_chinese.wav,,,,,,,,,0,0,0,0,0,136,136,157,416.520387762,9.62149351835e-06,417.599996536,1.07961871685,,,,x,1,1.06724090269,2018_Nov_29_1541,59.9903414675,chinese_cond2,001,1068,
images/toucan.jpg,toucan,z,sounds/greatgatsby_chinese.wav,,,,,,,,,0,0,0,0,0,137,137,81,418.700820206,9.62149351835e-06,419.66708157,0.966271626763,,,,z,1,0.950463406276,2018_Nov_29_1541,59.9903414675,chinese_cond2,001,1068,
images/pen03c.jpg,pepper,x,sounds/greatgatsby_chinese.wav,,,,,,,,,0,0,0,0,0,138,138,211,420.76164417,9.30088572204e-06,421.75092832,0.98929345049,,,,x,1,0.967134680599,2018_Nov_29_1541,59.9903414675,chinese_cond2,001,1068,
images/belt02a.jpg,snowman,x,sounds/greatgatsby_chinese.wav,,,,,,,,,0,0,0,0,0,139,139,224,422.854241728,9.62149351835e-06,423.934830619,1.08059883281,,,,x,1,1.0671931156,2018_Nov_29_1541,59.9903414675,chinese_cond2,001,1068,
images/bicycle.jpg,hand bag,x,sounds/greatgatsby_chinese.wav,,,,,,,,,0,0,0,0,0,140,140,186,425.046044289,9.30088572204e-06,426.085317887,1.03928386094,,,,x,1,1.0171513902,2018_Nov_29_1541,59.9903414675,chinese_cond2,001,1068,
images/drink.jpg,drink,z,sounds/greatgatsby_chinese.wav,,,,,,,,,0,0,0,0,0,141,141,117,427.185242903,9.621726349e-06,428.052488488,0.867255848367,,,,z,1,0.850463342154,2018_Nov_29_1541,59.9903414675,chinese_cond2,001,1068,
images/handfan01b.jpg,handfan,z,sounds/greatgatsby_chinese.wav,,,,,,,,,0,0,0,0,0,142,142,69,429.166784905,8.98004509509e-06,430.953171234,1.78639595024,,,,z,1,1.76733436016,2018_Nov_29_1541,59.9903414675,chinese_cond2,001,1068,
images/radio03a.jpg,radio,z,sounds/greatgatsby_chinese.wav,,,,,,,,,0,0,0,0,0,143,143,37,432.066684456,9.30088572204e-06,432.770277916,0.703603402013,,,,z,1,0.683703774121,2018_Nov_29_1541,59.9903414675,chinese_cond2,001,1068,
images/elbow.jpg,elbow,z,sounds/greatgatsby_chinese.wav,,,,,,,,,0,0,0,0,0,144,144,105,433.881865543,9.30088572204e-06,434.720753188,0.838897266658,,,,z,1,0.817098663887,2018_Nov_29_1541,59.9903414675,chinese_cond2,001,1068,
images/axe01.jpg,axe,z,sounds/greatgatsby_chinese.wav,,,,,,,,,0,0,0,0,0,145,145,104,435.824776988,9.3006528914e-06,436.904614114,1.07984642708,,,,z,1,1.06714340416,2018_Nov_29_1541,59.9903414675,chinese_cond2,001,1068,
images/boxingglove02a.jpg,bracelet,x,sounds/greatgatsby_chinese.wav,,,,,,,,,0,0,0,0,0,146,146,135,438.069168421,8.98004509509e-06,439.005131177,0.9359726978,,,,x,1,0.917129196227,2018_Nov_29_1541,59.9903414675,chinese_cond2,001,1068,
images/razor04a.jpg,razor,z,sounds/greatgatsby_chinese.wav,,,,,,,,,0,0,0,0,0,147,147,36,440.106052987,9.30088572204e-06,440.822455948,0.716412582668,,,,z,1,0.700624888064,2018_Nov_29_1541,59.9903414675,chinese_cond2,001,1068,
images/hairdryer03a.jpg,hairdryer,z,sounds/greatgatsby_chinese.wav,,,,,,,,,0,0,0,0,0,148,148,119,441.921482631,9.30088572204e-06,442.756050838,0.834578469861,,,,z,1,0.817106361268,2018_Nov_29_1541,59.9903414675,chinese_cond2,001,1068,
images/headphones02b.jpg,headphones,z,sounds/greatgatsby_chinese.wav,,,,,,,,,0,0,0,0,0,149,149,101,443.864029098,9.3006528914e-06,444.589820776,0.725801619934,,,,z,1,0.717072621454,2018_Nov_29_1541,59.9903414675,chinese_cond2,001,1068,
images/floorlamp.jpg,floor lamp,z,sounds/greatgatsby_chinese.wav,,,,,,,,,0,0,0,0,0,150,150,26,445.68256394,9.30088572204e-06,446.940421707,1.25786802941,,,,z,1,1.23389142659,2018_Nov_29_1541,59.9903414675,chinese_cond2,001,1068,
images/bowlingball.jpg,bowling ball,z,sounds/greatgatsby_chinese.wav,,,,,,,,,0,0,0,0,0,151,151,20,448.072169065,9.621726349e-06,448.924229265,0.852070463123,,,,z,1,0.833787257085,2018_Nov_29_1541,59.9903414675,chinese_cond2,001,1068,
images/barrel01.jpg,barrel,z,sounds/greatgatsby_chinese.wav,,,,,,,,,0,0,0,0,0,152,152,9,450.055034031,9.94233414531e-06,450.941376165,0.88635239657,,,,z,1,0.867119221948,2018_Nov_29_1541,59.9903414675,chinese_cond2,001,1068,
images/chessknight02b (1).jpg,cockroach,x,sounds/greatgatsby_chinese.wav,,,,,,,,,0,0,0,0,0,153,153,155,452.050374631,9.30088572204e-06,453.325535488,1.27517079865,,,,x,1,1.25073620956,2018_Nov_29_1541,59.9903414675,chinese_cond2,001,1068,
images/puma.jpg,puma,z,sounds/greatgatsby_chinese.wav,,,,,,,,,0,0,0,0,0,154,154,4,454.422902131,8.98004509509e-06,455.542488161,1.11959661287,,,,z,1,1.10050359252,2018_Nov_29_1541,59.9903414675,chinese_cond2,001,1068,
images/ladder.jpg,ladder,z,sounds/greatgatsby_chinese.wav,,,,,,,,,0,0,0,0,0,155,155,113,456.634992389,9.3006528914e-06,457.476293121,0.841310674325,,,,z,1,0.817102833418,2018_Nov_29_1541,59.9903414675,chinese_cond2,001,1068,
images/broom02.jpg,broom,z,sounds/greatgatsby_chinese.wav,,,,,,,,,0,0,0,0,0,156,156,116,458.56972134,9.30088572204e-06,459.410091668,0.840379948961,,,,z,1,0.817083590198,2018_Nov_29_1541,59.9903414675,chinese_cond2,001,1068,
images/leaf01a.jpg,leaf,z,sounds/greatgatsby_chinese.wav,,,,,,,,,0,0,0,0,0,157,157,68,460.513208475,9.30088572204e-06,461.277241037,0.764042183524,,,,z,1,0.750441148411,2018_Nov_29_1541,59.9903414675,chinese_cond2,001,1068,
images/graduationcap.jpg,graduation cap,z,sounds/greatgatsby_chinese.wav,,,,,,,,,0,0,0,0,0,158,158,35,462.379563746,9.30088572204e-06,463.110991412,0.731436966918,,,,z,1,0.717057547765,2018_Nov_29_1541,59.9903414675,chinese_cond2,001,1068,
images/beachumbrella01.jpg,beach umbrella,z,sounds/greatgatsby_chinese.wav,,,,,,,,,0,0,0,0,0,159,159,92,464.216384039,9.62149351835e-06,465.22818039,1.01180629362,,,,z,1,1.00048236083,2018_Nov_29_1541,59.9903414675,chinese_cond2,001,1068,
images/broadsword.jpg,teapot,x,sounds/greatgatsby_chinese.wav,,,,,,,,,0,0,0,0,0,160,160,231,466.321510148,9.62149351835e-06,467.262003054,0.940502848243,,,,x,1,0.917116046883,2018_Nov_29_1541,59.9903414675,chinese_cond2,001,1068,
images/gps.jpg,gps,z,sounds/greatgatsby_chinese.wav,,,,,,,,,0,0,0,0,0,161,161,21,468.380486774,9.62149351835e-06,469.362515948,0.98203911609,,,,z,1,0.967133077094,2018_Nov_29_1541,59.9903414675,chinese_cond2,001,1068,
images/doorhandle.jpg,doll,x,sounds/greatgatsby_chinese.wav,,,,,,,,,0,0,0,0,0,162,162,168,470.465345392,9.62149351835e-06,471.296318022,0.83098321408,,,,x,1,0.817094494589,2018_Nov_29_1541,59.9903414675,chinese_cond2,001,1068,
images/candycane01a.jpg,lip,x,sounds/greatgatsby_chinese.wav,,,,,,,,,0,0,0,0,0,163,163,200,472.39017857,9.621726349e-06,473.463520823,1.07335283747,,,,x,1,1.05046731909,2018_Nov_29_1541,59.9903414675,chinese_cond2,001,1068,
images/teapot.jpg,light switch,x,sounds/greatgatsby_chinese.wav,,,,,,,,,0,0,0,0,0,164,164,197,474.580139884,8.98004509509e-06,475.513858893,0.933728629723,,,,x,1,0.916958894813,2018_Nov_29_1541,59.9903414675,chinese_cond2,001,1068,
images/binder03b.jpg,dj mixer,x,sounds/greatgatsby_chinese.wav,,,,,,,,,0,0,0,0,0,165,165,167,476.626830421,9.30088572204e-06,477.797910069,1.17108959006,,,,x,1,1.15051420801,2018_Nov_29_1541,59.9903414675,chinese_cond2,001,1068,
images/gluestick.jpg,squirrel,x,sounds/greatgatsby_chinese.wav,,,,,,,,,0,0,0,0,0,166,166,226,478.906162865,8.98004509509e-06,479.781713779,0.875560215209,,,,x,1,0.867101582466,2018_Nov_29_1541,59.9903414675,chinese_cond2,001,1068,
images/worldmap.jpg,scooter,x,sounds/greatgatsby_chinese.wav,,,,,,,,,0,0,0,0,0,167,167,220,480.912186602,9.62149351835e-06,482.0489593,1.13678360265,,,,x,1,1.11719186464,2018_Nov_29_1541,59.9903414675,chinese_cond2,001,1068,
images/orange.jpg,bat,x,sounds/greatgatsby_chinese.wav,,,,,,,,,0,0,0,0,0,168,168,128,483.1741377,9.30088572204e-06,483.882717693,0.708589934977,,,,x,1,0.700404554373,2018_Nov_29_1541,59.9903414675,chinese_cond2,001,1068,
images/mitten01.jpg,mitten,z,sounds/greatgatsby_chinese.wav,,,,,,,,,0,0,0,0,0,169,169,102,485.003752408,8.65943729877e-06,485.966558991,0.962816204643,,,,x,0,0.950466613518,2018_Nov_29_1541,59.9903414675,chinese_cond2,001,1068,
images/bed.jpg,bed,z,sounds/greatgatsby_chinese.wav,,,,,,,,,0,0,0,0,0,170,170,103,487.086127701,9.94210131466e-06,487.716987952,0.630870513618,,,,z,1,0.617049786495,2018_Nov_29_1541,59.9903414675,chinese_cond2,001,1068,
images/charcoalbarbecue.jpg,charcoal barbecue,z,sounds/greatgatsby_chinese.wav,,,,,,,,,0,0,0,0,0,171,171,77,488.833857174,9.62149351835e-06,490.167587664,1.3337410735,,,,z,1,1.31722438568,2018_Nov_29_1541,59.9903414675,chinese_cond2,001,1068,
images/cookingpot.jpg,grasshopper,x,sounds/greatgatsby_chinese.wav,,,,,,,,,0,0,0,0,0,172,172,183,491.281636807,8.98027792573e-06,492.184577732,0.902951509459,,,,x,1,0.883612497477,2018_Nov_29_1541,59.9903414675,chinese_cond2,001,1068,
images/globe.jpg,cloud,x,sounds/greatgatsby_chinese.wav,,,,,,,,,0,0,0,0,0,173,173,154,493.312873196,9.62149351835e-06,494.218578395,0.905714820838,,,,x,1,0.883789213374,2018_Nov_29_1541,59.9903414675,chinese_cond2,001,1068,
images/ant.jpg,ant,z,sounds/greatgatsby_chinese.wav,,,,,,,,,0,0,0,0,0,174,174,98,495.313593209,9.30088572204e-06,496.135691556,0.82210893021,,,,z,1,0.800419371808,2018_Nov_29_1541,59.9903414675,chinese_cond2,001,1068,
images/fryingpan01.jpg,frying pan,z,sounds/greatgatsby_chinese.wav,,,,,,,,,0,0,0,0,0,175,175,45,497.237605027,8.98027792573e-06,498.352942497,1.11534773279,,,,z,1,1.10052604275,2018_Nov_29_1541,59.9903414675,chinese_cond2,001,1068,
images/paintbrush03a.jpg,paint brush,z,sounds/greatgatsby_chinese.wav,,,,,,,,,0,0,0,0,0,176,176,0,499.45361158,9.621726349e-06,500.520098473,1.06649683556,,,,z,1,1.05047822348,2018_Nov_29_1541,59.9903414675,chinese_cond2,001,1068,
images/scissors04a.jpg,leek,x,sounds/greatgatsby_chinese.wav,,,,,,,,,0,0,0,0,0,177,177,194,501.614179355,9.62149351835e-06,502.370555401,0.756387913134,,,,x,1,0.733745820355,2018_Nov_29_1541,59.9903414675,chinese_cond2,001,1068,
images/handbag02a.jpg,candle,x,sounds/greatgatsby_chinese.wav,,,,,,,,,0,0,0,0,0,178,178,144,503.48759717,9.62149351835e-06,504.537753071,1.05016680574,,,,x,1,1.03382619238,2018_Nov_29_1541,59.9903414675,chinese_cond2,001,1068,
images/aquarium.jpg,computer mouse,x,sounds/greatgatsby_chinese.wav,,,,,,,,,0,0,0,0,0,179,179,159,505.674279137,9.62149351835e-06,507.088385239,1.4141163656,,,,x,1,1.40055862768,2018_Nov_29_1541,59.9903414675,chinese_cond2,001,1068,
images/mushroom01.jpg,shower head,x,sounds/greatgatsby_chinese.wav,,,,,,,,,0,0,0,0,0,180,180,222,508.205228483,9.3006528914e-06,509.555636982,1.35041844146,,,,z,0,1.33387320954,2018_Nov_29_1541,59.9903414675,chinese_cond2,001,1068,
images/licenseplate.jpg,license plate,z,sounds/greatgatsby_chinese.wav,,,,,,,,,0,0,0,0,0,181,181,40,510.672955852,9.62149351835e-06,511.456096829,0.783150919247,,,,z,1,0.767084841151,2018_Nov_29_1541,59.9903414675,chinese_cond2,001,1068,
images/sunglasses03a.jpg,sun glasses,z,sounds/greatgatsby_chinese.wav,,,,,,,,,0,0,0,0,0,182,182,17,512.564636026,9.30088572204e-06,513.289868691,0.725242286921,,,,z,1,0.717070697341,2018_Nov_29_1541,59.9903414675,chinese_cond2,001,1068,
images/tissuebox03.jpg,tissue box,z,sounds/greatgatsby_chinese.wav,,,,,,,,,0,0,0,0,0,183,183,58,514.416362037,8.65943729877e-06,515.290358749,0.874006012687,,,,z,1,0.850430949591,2018_Nov_29_1541,59.9903414675,chinese_cond2,001,1068,
images/djmixer01.jpg,light bulb,x,sounds/greatgatsby_chinese.wav,,,,,,,,,0,0,0,0,0,184,184,196,516.411372939,9.62149351835e-06,517.540923054,1.12956005731,,,,x,1,1.1171787153,2018_Nov_29_1541,59.9903414675,chinese_cond2,001,1068,
images/bat.jpg,hand,x,sounds/greatgatsby_chinese.wav,,,,,,,,,0,0,0,0,0,185,185,185,518.639229724,9.30088572204e-06,519.39137934,0.752159558702,,,,z,0,0.733759611147,2018_Nov_29_1541,59.9903414675,chinese_cond2,001,1068,
images/stapler03a.jpg,candy cane,x,sounds/greatgatsby_chinese.wav,,,,,,,,,0,0,0,0,0,186,186,145,520.502377808,9.30088572204e-06,521.508547792,1.00618024776,,,,x,1,0.983809483005,2018_Nov_29_1541,59.9903414675,chinese_cond2,001,1068,
images/microphone01.jpg,diaper,x,sounds/greatgatsby_chinese.wav,,,,,,,,,0,0,0,0,0,187,187,164,522.607682558,9.62149351835e-06,523.809103149,1.20143053331,,,,x,1,1.18382211914,2018_Nov_29_1541,59.9903414675,chinese_cond2,001,1068,
images/dreamcatcher.jpg,dream catcher,z,sounds/greatgatsby_chinese.wav,,,,,,,,,0,0,0,0,0,188,188,48,524.907518222,9.62149351835e-06,525.609545612,0.702037974261,,,,z,1,0.68373360089,2018_Nov_29_1541,59.9903414675,chinese_cond2,001,1068,
images/electrictoothbrush01a.jpg,banjo,x,sounds/greatgatsby_chinese.wav,,,,,,,,,0,0,0,0,0,189,189,127,526.704376334,9.62149351835e-06,527.693387873,0.989021801855,,,,x,1,0.967144302325,2018_Nov_29_1541,59.9903414675,chinese_cond2,001,1068,
images/camera01a.jpg,bull,x,sounds/greatgatsby_chinese.wav,,,,,,,,,0,0,0,0,0,190,190,138,528.804687816,9.30088572204e-06,529.793896276,0.989217760973,,,,x,1,0.967140453635,2018_Nov_29_1541,59.9903414675,chinese_cond2,001,1068,
images/hairband.jpg,hairband,z,sounds/greatgatsby_chinese.wav,,,,,,,,,0,0,0,0,0,191,191,66,530.90372861,9.3006528914e-06,531.744387585,0.840668595629,,,,z,1,0.817120472901,2018_Nov_29_1541,59.9903414675,chinese_cond2,001,1068,
images/dryingmachine01.jpg,drying machine,z,sounds/greatgatsby_chinese.wav,,,,,,,,,0,0,0,0,0,192,192,18,532.865673743,9.62149351835e-06,533.811542214,0.945878733648,,,,z,1,0.933784755412,2018_Nov_29_1541,59.9903414675,chinese_cond2,001,1068,
images/bull.jpg,button,x,sounds/greatgatsby_chinese.wav,,,,,,,,,0,0,0,0,0,193,193,141,534.917650364,8.98027792573e-06,535.745353589,0.827713167295,,,,x,1,0.817106361268,2018_Nov_29_1541,59.9903414675,chinese_cond2,001,1068,
images/aloe02.jpg,broad sword,x,sounds/greatgatsby_chinese.wav,,,,,,,,,0,0,0,0,0,194,194,137,536.867735643,9.30088572204e-06,537.879203579,1.0114772364,,,,x,1,1.00047722925,2018_Nov_29_1541,59.9903414675,chinese_cond2,001,1068,
images/pictureframe04.jpg,picture frame,z,sounds/greatgatsby_chinese.wav,,,,,,,,,0,0,0,0,0,195,195,41,539.001946121,9.30088572204e-06,539.712971593,0.711035093758,,,,z,1,0.700398140121,2018_Nov_29_1541,59.9903414675,chinese_cond2,001,1068,
images/computermouse02a.jpg,world map,x,sounds/greatgatsby_chinese.wav,,,,,,,,,0,0,0,0,0,196,196,239,540.814453698,9.30088572204e-06,541.930185972,1.11574189598,,,,x,1,1.10049044294,2018_Nov_29_1541,59.9903414675,chinese_cond2,001,1068,
images/thumbtack02a.jpg,thumb tack,z,sounds/greatgatsby_chinese.wav,,,,,,,,,0,0,0,0,0,197,197,60,543.040444221,9.62149351835e-06,544.330768653,1.29033437488,,,,z,1,1.26720960042,2018_Nov_29_1541,59.9903414675,chinese_cond2,001,1068,
images/bench02.jpg,electric toothbrush,x,sounds/greatgatsby_chinese.wav,,,,,,,,,0,0,0,0,0,198,198,172,545.439981039,9.62149351835e-06,546.664663031,1.22469193372,,,,x,1,1.20051648538,2018_Nov_29_1541,59.9903414675,chinese_cond2,001,1068,
images/feather03b.jpg,feather,z,sounds/greatgatsby_chinese.wav,,,,,,,,,0,0,0,0,0,199,199,114,547.765583878,8.98004509509e-06,548.465084647,0.699510711711,,,,z,1,0.68371082982,2018_Nov_29_1541,59.9903414675,chinese_cond2,001,1068,
images/parrot01.jpg,chameleon,x,sounds/greatgatsby_chinese.wav,,,,,,,,,0,0,0,0,0,200,200,150,549.580702746,1.12252309918e-05,550.665645712,1.08495483315,,,,z,0,1.06716168532,2018_Nov_29_1541,59.9903414675,chinese_cond2,001,1068,
images/blueberry02.jpg,blueberry,z,sounds/greatgatsby_chinese.wav,,,,,,,,,0,0,0,0,0,201,201,46,551.77867048,8.98004509509e-06,552.416068259,0.637407400645,,,,z,1,0.617039202712,2018_Nov_29_1541,59.9903414675,chinese_cond2,001,1068,
images/tulip02.jpg,sport shorts,x,sounds/greatgatsby_chinese.wav,,,,,,,,,0,0,0,0,0,202,202,225,553.512350232,9.62149351835e-06,554.533248257,1.02090796735,,,,x,1,1.0004737014,2018_Nov_29_1541,59.9903414675,chinese_cond2,001,1068,
images/wallet01.jpg,lamp,x,sounds/greatgatsby_chinese.wav,,,,,,,,,0,0,0,0,0,203,203,193,555.638512918,9.30088572204e-06,556.933835429,1.29533245368,,,,x,1,1.28388055414,2018_Nov_29_1541,59.9903414675,chinese_cond2,001,1068,
images/lightbulb03b.jpg,treadmill,x,sounds/greatgatsby_chinese.wav,,,,,,,,,0,0,0,0,0,204,204,234,558.036652044,9.62149351835e-06,559.251076813,1.21443567309,,,,x,1,1.20053412486,2018_Nov_29_1541,59.9903414675,chinese_cond2,001,1068,
images/plant01.jpg,plant,z,sounds/greatgatsby_chinese.wav,,,,,,,,,0,0,0,0,0,205,205,47,560.362613446,9.30088572204e-06,563.351919725,2.98931622133,,,,None,0,,2018_Nov_29_1541,59.9903414675,chinese_cond2,001,1068,
,,,sounds/greatgatsby_chinese.wav,,,,,,,,,0,0,0,0,,,,,,,,,,,,,,,2018_Nov_29_1541,59.9903414675,chinese_cond2,001,1068,
images/radio03a.jpg,radio,z,sounds/animalfarm_english.wav,,,,,,,,,0,1,1,1,0,0,0,37,584.491404741,8.98027792573e-06,585.70751232,1.21611752175,,,574.354899201,z,1,1.20052193757,2018_Nov_29_1541,59.9903414675,chinese_cond2,001,1068,
images/radish01.jpg,raisin,x,sounds/animalfarm_english.wav,,,,,,,,,0,1,1,1,0,1,1,214,586.816309375,9.62149351835e-06,587.657980217,0.841681104386,,,,x,1,0.833776032086,2018_Nov_29_1541,59.9903414675,chinese_cond2,001,1068,
images/mirror02.jpg,8 ball,x,sounds/animalfarm_english.wav,,,,,,,,,0,1,1,1,0,2,2,121,588.757251288,8.98027792573e-06,589.508441955,0.751200289465,,,,x,1,0.733755762456,2018_Nov_29_1541,59.9903414675,chinese_cond2,001,1068,
images/beachumbrella01.jpg,beach umbrella,z,sounds/animalfarm_english.wav,,,,,,,,,0,1,1,1,0,3,3,92,590.611530219,9.62149351835e-06,591.508928806,0.89740820881,,,,z,1,0.88379498641,2018_Nov_29_1541,59.9903414675,chinese_cond2,001,1068,
images/desktopcomputer.jpg,desktop computer,z,sounds/animalfarm_english.wav,,,,,,,,,0,1,1,1,0,4,4,16,592.642409328,9.30088572204e-06,593.526080838,0.883681772742,,,,z,1,0.867114090594,2018_Nov_29_1541,59.9903414675,chinese_cond2,001,1068,
images/pouch01b.jpg,pouch,z,sounds/animalfarm_english.wav,,,,,,,,,0,1,1,1,0,5,5,25,594.636614584,9.30088572204e-06,595.459893496,0.823288853979,,,,x,0,0.8004402183,2018_Nov_29_1541,59.9903414675,chinese_cond2,001,1068,
images/floorlamp.jpg,floor lamp,z,sounds/animalfarm_english.wav,,,,,,,,,0,1,1,1,0,6,6,26,596.550234477,9.62149351835e-06,597.577063231,1.02683837526,,,,z,1,1.01715074852,2018_Nov_29_1541,59.9903414675,chinese_cond2,001,1068,
images/plant01.jpg,plant,z,sounds/animalfarm_english.wav,,,,,,,,,0,1,1,1,0,7,7,47,598.686832063,9.30088572204e-06,599.84429464,1.1574725192,,,,z,1,1.13385576243,2018_Nov_29_1541,59.9903414675,chinese_cond2,001,1068,
images/8ball.jpg,nail clipper,x,sounds/animalfarm_english.wav,,,,,,,,,0,1,1,1,0,8,8,206,600.960678294,8.98027792573e-06,602.161535062,1.20086671016,,,,x,1,1.18387439614,2018_Nov_29_1541,59.9903414675,chinese_cond2,001,1068,
images/watermelon01.jpg,orange,x,sounds/animalfarm_english.wav,,,,,,,,,0,1,1,1,0,9,9,207,603.290944702,9.30088572204e-06,604.128665253,0.837730171625,,,,x,1,0.81710219197,2018_Nov_29_1541,59.9903414675,chinese_cond2,001,1068,
images/dryingmachine01.jpg,drying machine,z,sounds/animalfarm_english.wav,,,,,,,,,0,1,1,1,0,10,10,18,605.248481878,9.30088572204e-06,606.946020812,1.69754855521,,,,z,1,1.68394110561,2018_Nov_29_1541,59.9903414675,chinese_cond2,001,1068,
images/feather03b.jpg,feather,z,sounds/animalfarm_english.wav,,,,,,,,,0,1,1,1,0,11,11,114,608.045118695,8.98004509509e-06,608.7297827,0.68467362714,,,,z,1,0.667070023948,2018_Nov_29_1541,59.9903414675,chinese_cond2,001,1068,
images/paintbrush03a.jpg,paint brush,z,sounds/animalfarm_english.wav,,,,,,,,,0,1,1,1,0,12,12,0,609.828259992,8.98027792573e-06,610.713591221,0.885340850335,,,,z,1,0.867102544755,2018_Nov_29_1541,59.9903414675,chinese_cond2,001,1068,
images/graduationcap.jpg,graduation cap,z,sounds/animalfarm_english.wav,,,,,,,,,0,1,1,1,0,13,13,35,611.814180766,3.17511148751e-05,613.297562731,1.48340249085,,,,z,1,1.46726360964,2018_Nov_29_1541,59.9903414675,chinese_cond2,001,1068,
images/acousticguitar02.jpg,acoustic guitar,z,sounds/animalfarm_english.wav,,,,,,,,,0,1,1,1,0,14,14,97,614.411028808,9.30088572204e-06,616.715046642,2.3040277767,,,,z,1,2.28411179245,2018_Nov_29_1541,59.9903414675,chinese_cond2,001,1068,
images/coin01b.jpg,arrow,x,sounds/animalfarm_english.wav,,,,,,,,,0,1,1,1,0,15,15,124,617.818200974,1.05837825686e-05,618.615519959,0.797329568537,,,,x,1,0.78369678231,2018_Nov_29_1541,59.9903414675,chinese_cond2,001,1068,
images/grasshopper.jpg,cauliflower,x,sounds/animalfarm_english.wav,,,,,,,,,0,1,1,1,0,16,16,148,619.707086085,9.62149351835e-06,620.782714101,1.07563795731,,,,x,1,1.06716745812,2018_Nov_29_1541,59.9903414675,chinese_cond2,001,1068,
images/tank.jpg,wallet,x,sounds/animalfarm_english.wav,,,,,,,,,0,1,1,1,0,17,17,237,621.885617951,9.3006528914e-06,622.699852277,0.814244268229,,,,x,1,0.800430275965,2018_Nov_29_1541,59.9903414675,chinese_cond2,001,1068,
images/handbag02a.jpg,candle,x,sounds/animalfarm_english.wav,,,,,,,,,0,1,1,1,0,18,18,144,623.814484487,9.94233414531e-06,625.400511161,1.58603693778,,,,x,1,1.56726014591,2018_Nov_29_1541,59.9903414675,chinese_cond2,001,1068,
images/hammer02a.jpg,flower,x,sounds/animalfarm_english.wav,,,,,,,,,0,1,1,1,0,19,19,176,626.495049387,9.30088572204e-06,629.484680555,2.98964143009,,,,None,0,,2018_Nov_29_1541,59.9903414675,chinese_cond2,001,1068,
images/redfox.jpg,red fox,z,sounds/animalfarm_english.wav,,,,,,,,,0,1,1,1,0,20,20,1,630.596032775,9.3006528914e-06,631.501979796,0.905956642702,,,,z,1,0.883777988376,2018_Nov_29_1541,59.9903414675,chinese_cond2,001,1068,
images/lemon02.jpg,lemon,z,sounds/animalfarm_english.wav,,,,,,,,,0,1,1,1,0,21,21,14,632.612168449,8.98027792573e-06,633.535831325,0.923672176898,,,,z,1,0.900466260733,2018_Nov_29_1541,59.9903414675,chinese_cond2,001,1068,
images/blackolive.jpg,tank,x,sounds/animalfarm_english.wav,,,,,,,,,0,1,1,1,0,22,22,229,634.649129666,9.3006528914e-06,635.536313686,0.887193962233,,,,x,1,0.867123712087,2018_Nov_29_1541,59.9903414675,chinese_cond2,001,1068,
images/volleyball.jpg,volley ball,z,sounds/animalfarm_english.wav,,,,,,,,,0,1,1,1,0,23,23,2,636.668584457,9.30088572204e-06,637.77017272,1.1015978842,,,,z,1,1.08382109273,2018_Nov_29_1541,59.9903414675,chinese_cond2,001,1068,
images/binder03b.jpg,dj mixer,x,sounds/animalfarm_english.wav,,,,,,,,,0,1,1,1,0,24,24,167,638.882803004,9.3006528914e-06,639.787336618,0.904543556273,,,,x,1,0.883777988376,2018_Nov_29_1541,59.9903414675,chinese_cond2,001,1068,
images/lip.jpg,boxing glove,x,sounds/animalfarm_english.wav,,,,,,,,,0,1,1,1,0,25,25,136,640.888452462,8.98004509509e-06,641.971217108,1.0827742673,,,,x,1,1.06717611756,2018_Nov_29_1541,59.9903414675,chinese_cond2,001,1068,
images/dragonfly02.jpg,dragon fly,z,sounds/animalfarm_english.wav,,,,,,,,,0,1,1,1,0,26,26,29,643.066863417,9.94233414531e-06,643.821657038,0.754803563235,,,,z,1,0.733748385916,2018_Nov_29_1541,59.9903414675,chinese_cond2,001,1068,
images/chessknight02b (1).jpg,cockroach,x,sounds/animalfarm_english.wav,,,,,,,,,0,1,1,1,0,27,27,155,644.928447036,9.30088572204e-06,645.755480279,0.827043185942,,,,x,1,0.817119190004,2018_Nov_29_1541,59.9903414675,chinese_cond2,001,1068,
images/drink.jpg,drink,z,sounds/animalfarm_english.wav,,,,,,,,,0,1,1,1,0,28,28,117,646.853524281,9.30088572204e-06,647.605910587,0.752396890661,,,,z,1,0.733744216617,2018_Nov_29_1541,59.9903414675,chinese_cond2,001,1068,
images/nailclipper03a.jpg,aquarium,x,sounds/animalfarm_english.wav,,,,,,,,,0,1,1,1,0,29,29,123,648.704935026,8.98004509509e-06,650.006501287,1.30157588306,,,,x,1,1.28388183704,2018_Nov_29_1541,59.9903414675,chinese_cond2,001,1068,
images/calculator02b.jpg,dice,x,sounds/animalfarm_english.wav,,,,,,,,,0,1,1,1,0,30,30,165,651.10663926,9.30088572204e-06,651.873617302,0.766988304676,,,,z,0,0.75041901879,2018_Nov_29_1541,59.9903414675,chinese_cond2,001,1068,
images/apple06.jpg,apple,z,sounds/animalfarm_english.wav,,,,,,,,,0,1,1,1,0,31,31,13,652.998880371,9.62149351835e-06,653.90744606,0.908576272428,,,,z,1,0.900461770594,2018_Nov_29_1541,59.9903414675,chinese_cond2,001,1068,
images/worldmap.jpg,scooter,x,sounds/animalfarm_english.wav,,,,,,,,,0,1,1,1,0,32,32,220,655.037653648,9.62149351835e-06,655.841246531,0.803602824453,,,,x,1,0.783756436082,2018_Nov_29_1541,59.9903414675,chinese_cond2,001,1068,
images/pepper05a.jpg,lighter,x,sounds/animalfarm_english.wav,,,,,,,,,0,1,1,1,0,33,33,198,656.960420757,9.3006528914e-06,657.808399492,0.847988035763,,,,x,1,0.833779239096,2018_Nov_29_1541,59.9903414675,chinese_cond2,001,1068,
images/bed.jpg,bed,z,sounds/animalfarm_english.wav,,,,,,,,,0,1,1,1,0,34,34,103,658.926219966,9.30088572204e-06,659.57548722,0.649277196499,,,,z,1,0.633716249838,2018_Nov_29_1541,59.9903414675,chinese_cond2,001,1068,
images/puma.jpg,puma,z,sounds/animalfarm_english.wav,,,,,,,,,0,1,1,1,0,35,35,4,660.672641548,9.621726349e-06,661.342588738,0.669957453618,,,,z,1,0.650392334908,2018_Nov_29_1541,59.9903414675,chinese_cond2,001,1068,
images/hanger02a.jpg,hanger,z,sounds/animalfarm_english.wav,,,,,,,,,0,1,1,1,0,36,36,88,662.434303999,9.30088572204e-06,663.859862001,1.42556762393,,,,z,1,1.41724561714,2018_Nov_29_1541,59.9903414675,chinese_cond2,001,1068,
images/lighter02b.jpg,stapler,x,sounds/animalfarm_english.wav,,,,,,,,,0,1,1,1,0,37,37,227,664.959701065,9.62149351835e-06,665.827024905,0.867334103445,,,,x,1,0.850452116923,2018_Nov_29_1541,59.9903414675,chinese_cond2,001,1068,
images/eyedrops.jpg,bicycle,x,sounds/animalfarm_english.wav,,,,,,,,,0,1,1,1,0,38,38,131,666.925595206,9.62149351835e-06,667.777486066,0.851900161477,,,,x,1,0.833770579658,2018_Nov_29_1541,59.9903414675,chinese_cond2,001,1068,
images/egg01b (1).jpg,egg,z,sounds/animalfarm_english.wav,,,,,,,,,0,1,1,1,0,39,39,19,668.888378055,1.05837825686e-05,669.511239263,0.622871791478,,,,z,1,0.600376908667,2018_Nov_29_1541,59.9903414675,chinese_cond2,001,1068,
images/ladybug03.jpg,giraffe,x,sounds/animalfarm_english.wav,,,,,,,,,0,1,1,1,0,40,40,178,670.614006487,8.98004509509e-06,671.728458774,1.11446222849,,,,x,1,1.10051321401,2018_Nov_29_1541,59.9903414675,chinese_cond2,001,1068,
images/parkfountain.jpg,park fountain,z,sounds/animalfarm_english.wav,,,,,,,,,0,1,1,1,0,41,41,93,672.846603814,9.30088572204e-06,673.645600799,0.799006606219,,,,z,1,0.783771189163,2018_Nov_29_1541,59.9903414675,chinese_cond2,001,1068,
images/tissuebox03.jpg,tissue box,z,sounds/animalfarm_english.wav,,,,,,,,,0,1,1,1,0,42,42,58,674.768809024,9.62149351835e-06,675.64607418,0.87727509765,,,,z,1,0.867125315592,2018_Nov_29_1541,59.9903414675,chinese_cond2,001,1068,
images/banjo.jpg,knife,x,sounds/animalfarm_english.wav,,,,,,,,,0,1,1,1,0,43,43,191,676.741282066,9.30088572204e-06,678.013321048,1.27204924449,,,,x,1,1.25054794759,2018_Nov_29_1541,59.9903414675,chinese_cond2,001,1068,
images/croissant02b.jpg,croissant,z,sounds/animalfarm_english.wav,,,,,,,,,0,1,1,1,0,44,44,39,679.123812459,8.98004509509e-06,679.86376194,0.739958781051,,,,z,1,0.717076470144,2018_Nov_29_1541,59.9903414675,chinese_cond2,001,1068,
images/lollipop03b.jpg,lollipop,z,sounds/animalfarm_english.wav,,,,,,,,,0,1,1,1,0,45,45,42,680.95658368,9.621726349e-06,681.847585534,0.891012117499,,,,z,1,0.867107034894,2018_Nov_29_1541,59.9903414675,chinese_cond2,001,1068,
images/bandaid01.jpg,door handle,x,sounds/animalfarm_english.wav,,,,,,,,,0,1,1,1,0,46,46,170,682.953345384,9.62149351835e-06,684.114800907,1.16146578663,,,,x,1,1.15052190539,2018_Nov_29_1541,59.9903414675,chinese_cond2,001,1068,
images/cauliflower01.jpg,glue stick,x,sounds/animalfarm_english.wav,,,,,,,,,0,1,1,1,0,47,47,181,685.232097647,9.94233414531e-06,686.131964164,0.899876779877,,,,x,1,0.883787930477,2018_Nov_29_1541,59.9903414675,chinese_cond2,001,1068,
images/squirrel.jpg,binder,x,sounds/animalfarm_english.wav,,,,,,,,,0,1,1,1,0,48,48,132,687.233453646,9.62149351835e-06,688.065746995,0.832303612726,,,,x,1,0.817066912772,2018_Nov_29_1541,59.9903414675,chinese_cond2,001,1068,
images/gluestick.jpg,squirrel,x,sounds/animalfarm_english.wav,,,,,,,,,0,1,1,1,0,49,49,226,689.171575479,9.30088572204e-06,690.299631045,1.12806550856,,,,x,1,1.11717230105,2018_Nov_29_1541,59.9903414675,chinese_cond2,001,1068,
images/triangleruler02.jpg,bottle of red wine,x,sounds/animalfarm_english.wav,,,,,,,,,0,1,1,1,0,50,50,134,691.40915517,9.30088572204e-06,692.300140026,0.890994798625,,,,x,1,0.867128202226,2018_Nov_29_1541,59.9903414675,chinese_cond2,001,1068,
images/wallet01.jpg,lamp,x,sounds/animalfarm_english.wav,,,,,,,,,0,1,1,1,0,51,51,193,693.40367954,9.94233414531e-06,694.183919938,0.780249698553,,,,x,1,0.767093820963,2018_Nov_29_1541,59.9903414675,chinese_cond2,001,1068,
images/pingpongpaddle01c (1).jpg,ping pong paddle,z,sounds/animalfarm_english.wav,,,,,,,,,0,1,1,1,0,52,52,10,695.294959779,9.94233414531e-06,696.334445051,1.03949553543,,,,z,1,1.01715523866,2018_Nov_29_1541,59.9903414675,chinese_cond2,001,1068,
images/bowl02b (1).jpg,bowl,z,sounds/animalfarm_english.wav,,,,,,,,,0,1,1,1,0,53,53,24,697.450626973,9.621726349e-06,698.35159612,0.900979410624,,,,z,1,0.883783119731,2018_Nov_29_1541,59.9903414675,chinese_cond2,001,1068,
images/magnifyingglass01b.jpg,magnifying glass,z,sounds/animalfarm_english.wav,,,,,,,,,0,1,1,1,0,54,54,64,699.456568927,9.62149351835e-06,700.585473435,1.12891445076,,,,z,1,1.11715434073,2018_Nov_29_1541,59.9903414675,chinese_cond2,001,1068,
images/pictureframe04.jpg,picture frame,z,sounds/animalfarm_english.wav,,,,,,,,,0,1,1,1,0,55,55,41,701.705462287,9.62149351835e-06,702.369246549,0.663794203894,,,,z,1,0.650378223509,2018_Nov_29_1541,59.9903414675,chinese_cond2,001,1068,
images/giraffe.jpg,lettuce,x,sounds/animalfarm_english.wav,,,,,,,,,0,1,1,1,0,56,56,195,703.469239557,9.30088572204e-06,705.23661112,1.76738118497,,,,x,1,1.75066789635,2018_Nov_29_1541,59.9903414675,chinese_cond2,001,1068,
images/spoon02b.jpg,spoon,z,sounds/animalfarm_english.wav,,,,,,,,,0,1,1,1,0,57,57,38,706.326532923,9.30088572204e-06,706.95369176,0.627168779494,,,,z,1,0.61704657902,2018_Nov_29_1541,59.9903414675,chinese_cond2,001,1068,
images/cat.jpg,black olive,x,sounds/animalfarm_english.wav,,,,,,,,,0,1,1,1,0,58,58,133,708.082313715,9.30088572204e-06,708.904166071,0.821862618206,,,,x,1,0.800427068956,2018_Nov_29_1541,59.9903414675,chinese_cond2,001,1068,
images/flashlight05.jpg,flash light,z,sounds/animalfarm_english.wav,,,,,,,,,0,1,1,1,0,59,59,8,710.004981722,9.30088572204e-06,710.637919909,0.632947487524,,,,z,1,0.617050427943,2018_Nov_29_1541,59.9903414675,chinese_cond2,001,1068,
images/umbrella01.jpg,umbrella,z,sounds/animalfarm_english.wav,,,,,,,,,0,1,1,1,0,60,60,53,711.748947562,9.621726349e-06,712.505032717,0.756095096935,,,,z,1,0.733737802133,2018_Nov_29_1541,59.9903414675,chinese_cond2,001,1068,
images/treadmill.jpg,lily,x,sounds/animalfarm_english.wav,,,,,,,,,0,1,1,1,0,61,61,199,713.608825599,8.98027792573e-06,714.605548176,0.996731877327,,,,x,1,0.983798257774,2018_Nov_29_1541,59.9903414675,chinese_cond2,001,1068,
images/camera01a.jpg,bull,x,sounds/animalfarm_english.wav,,,,,,,,,0,1,1,1,0,62,62,138,715.715127784,9.62149351835e-06,716.589391655,0.874273492256,,,,x,1,0.850457889959,2018_Nov_29_1541,59.9903414675,chinese_cond2,001,1068,
images/envelope02a.jpg,grand piano,x,sounds/animalfarm_english.wav,,,,,,,,,0,1,1,1,0,63,63,182,717.710750296,9.30088572204e-06,718.606680312,0.89595791907,,,,x,1,0.883836038411,2018_Nov_29_1541,59.9903414675,chinese_cond2,001,1068,
images/candy.jpg,candy,z,sounds/animalfarm_english.wav,,,,,,,,,0,1,1,1,0,64,64,31,719.707460043,9.30088572204e-06,720.39031263,0.682862529065,,,,z,1,0.667079645442,2018_Nov_29_1541,59.9903414675,chinese_cond2,001,1068,
images/shotglass.jpg,shot glass,z,sounds/animalfarm_english.wav,,,,,,,,,0,1,1,1,0,65,65,86,721.497342846,9.94233414531e-06,722.257450454,0.760118191363,,,,z,1,0.750426074723,2018_Nov_29_1541,59.9903414675,chinese_cond2,001,1068,
images/battery03b.jpg,battery,z,sounds/animalfarm_english.wav,,,,,,,,,0,1,1,1,0,66,66,34,723.365938015,9.62149351835e-06,724.307913283,0.941984568257,,,,x,0,0.933796301251,2018_Nov_29_1541,59.9903414675,chinese_cond2,001,1068,
images/flamingo.jpg,flamingo,z,sounds/animalfarm_english.wav,,,,,,,,,0,1,1,1,0,67,67,52,725.404379028,9.62149351835e-06,725.958312353,0.553943267325,,,,z,1,0.533690528478,2018_Nov_29_1541,59.9903414675,chinese_cond2,001,1068,
images/icecube02 (2).jpg,aloe,x,sounds/animalfarm_english.wav,,,,,,,,,0,1,1,1,0,68,68,122,727.067335835,9.621726349e-06,727.942131778,0.874805885134,,,,x,1,0.850440250244,2018_Nov_29_1541,59.9903414675,chinese_cond2,001,1068,
images/scissors04a.jpg,leek,x,sounds/animalfarm_english.wav,,,,,,,,,0,1,1,1,0,69,69,194,729.03438328,8.98004509509e-06,729.792591592,0.758217933355,,,,x,1,0.733748706523,2018_Nov_29_1541,59.9903414675,chinese_cond2,001,1068,
images/rhinoceros01.jpg,envelope,x,sounds/animalfarm_english.wav,,,,,,,,,0,1,1,1,0,70,70,173,730.904106096,9.30088572204e-06,731.72639944,0.822303285589,,,,x,1,0.8004331626,2018_Nov_29_1541,59.9903414675,chinese_cond2,001,1068,
images/axe01.jpg,axe,z,sounds/animalfarm_english.wav,,,,,,,,,0,1,1,1,0,71,71,104,732.829342097,9.30088572204e-06,733.560171302,0.730838826858,,,,z,1,0.717075828696,2018_Nov_29_1541,59.9903414675,chinese_cond2,001,1068,
images/marker01a.jpg,marker,z,sounds/animalfarm_english.wav,,,,,,,,,0,1,1,1,0,72,72,95,734.657171044,8.98004509509e-06,735.393952786,0.736791684991,,,,z,1,0.717080639442,2018_Nov_29_1541,59.9903414675,chinese_cond2,001,1068,
images/kiwi03.jpg,backpack,x,sounds/animalfarm_english.wav,,,,,,,,,0,1,1,1,0,73,73,125,736.520771341,9.30088572204e-06,737.461120565,0.940359166358,,,,x,1,0.917123102816,2018_Nov_29_1541,59.9903414675,chinese_cond2,001,1068,
images/nailpolish02b.jpg,nail polish,z,sounds/animalfarm_english.wav,,,,,,,,,0,1,1,1,0,74,74,94,738.569244432,9.62149351835e-06,739.311565306,0.742331136717,,,,z,1,0.733745820355,2018_Nov_29_1541,59.9903414675,chinese_cond2,001,1068,
images/saltshaker03c.jpg,salt shaker,z,sounds/animalfarm_english.wav,,,,,,,,,0,1,1,1,0,75,75,63,740.421323875,9.30088572204e-06,741.245483159,0.824207712896,,,,z,1,0.800431559095,2018_Nov_29_1541,59.9903414675,chinese_cond2,001,1068,
images/ladder.jpg,ladder,z,sounds/animalfarm_english.wav,,,,,,,,,0,1,1,1,0,76,76,113,742.336826387,9.30088572204e-06,743.0624731,0.725656334776,,,,z,1,0.716991800349,2018_Nov_29_1541,59.9903414675,chinese_cond2,001,1068,
images/cactus.jpg,cactus,z,sounds/animalfarm_english.wav,,,,,,,,,0,1,1,1,0,77,77,70,744.172819226,8.98004509509e-06,744.979608069,0.806798464851,,,,z,1,0.783750342438,2018_Nov_29_1541,59.9903414675,chinese_cond2,001,1068,
images/bullet (2).jpg,rubber glove,x,sounds/animalfarm_english.wav,,,,,,,,,0,1,1,1,0,78,78,217,746.082913138,9.30088572204e-06,747.246828895,1.16392537788,,,,x,1,1.1505081146,2018_Nov_29_1541,59.9903414675,chinese_cond2,001,1068,
images/ant.jpg,ant,z,sounds/animalfarm_english.wav,,,,,,,,,0,1,1,1,0,79,79,98,748.339967505,9.3006528914e-06,748.913893146,0.573935903609,,,,z,1,0.55036116112,2018_Nov_29_1541,59.9903414675,chinese_cond2,001,1068,
images/belt02a.jpg,snowman,x,sounds/animalfarm_english.wav,,,,,,,,,0,1,1,1,0,80,80,224,750.015381344,9.62149351835e-06,750.964398309,0.949026266113,,,,x,1,0.933788924944,2018_Nov_29_1541,59.9903414675,chinese_cond2,001,1068,
images/hat05.jpg,hat,z,sounds/animalfarm_english.wav,,,,,,,,,0,1,1,1,0,81,81,15,752.066844815,9.30088572204e-06,752.748175913,0.681341039948,,,,z,1,0.667072910117,2018_Nov_29_1541,59.9903414675,chinese_cond2,001,1068,
images/bowlingball.jpg,bowling ball,z,sounds/animalfarm_english.wav,,,,,,,,,0,1,1,1,0,82,82,20,753.878718652,8.98004509509e-06,755.515519574,1.63681054302,,,,z,1,1.6173031542,2018_Nov_29_1541,59.9903414675,chinese_cond2,001,1068,
images/showerhead01.jpg,skateboard,x,sounds/animalfarm_english.wav,,,,,,,,,0,1,1,1,0,83,83,223,756.622187698,9.94233414531e-06,757.666040196,1.04386243992,,,,x,1,1.03381913644,2018_Nov_29_1541,59.9903414675,chinese_cond2,001,1068,
images/dresser02.jpg,dresser,z,sounds/animalfarm_english.wav,,,,,,,,,0,1,1,1,0,84,84,87,758.786777285,9.3006528914e-06,760.183315063,1.39654804138,,,,z,1,1.38390435139,2018_Nov_29_1541,59.9903414675,chinese_cond2,001,1068,
images/cloud.jpg,ceiling fan,x,sounds/animalfarm_english.wav,,,,,,,,,0,1,1,1,0,85,85,149,761.287778889,9.30088572204e-06,762.167129998,0.8793610516,,,,x,1,0.867108317558,2018_Nov_29_1541,59.9903414675,chinese_cond2,001,1068,
images/parkingmeter.jpg,ear,x,sounds/animalfarm_english.wav,,,,,,,,,0,1,1,1,0,86,86,171,763.267199337,9.621726349e-06,764.517700781,1.25051170657,,,,x,1,1.23386608972,2018_Nov_29_1541,59.9903414675,chinese_cond2,001,1068,
images/eraser.jpg,eraser,z,sounds/animalfarm_english.wav,,,,,,,,,0,1,1,1,0,87,87,110,765.62306294,8.98004509509e-06,766.368151295,0.745097976178,,,,z,1,0.733733312227,2018_Nov_29_1541,59.9903414675,chinese_cond2,001,1068,
images/gps.jpg,gps,z,sounds/animalfarm_english.wav,,,,,,,,,0,1,1,1,0,88,88,21,767.485198836,8.98004509509e-06,768.78542738,1.30023752432,,,,z,1,1.28389530722,2018_Nov_29_1541,59.9903414675,chinese_cond2,001,1068,
images/backpack01b.jpg,swallow,x,sounds/animalfarm_english.wav,,,,,,,,,0,1,1,1,0,89,89,228,769.916853058,9.30088572204e-06,771.336037419,1.41919430345,,,,x,1,1.40057177725,2018_Nov_29_1541,59.9903414675,chinese_cond2,001,1068,
images/table02.jpg,table,z,sounds/animalfarm_english.wav,,,,,,,,,0,1,1,1,0,90,90,49,772.449061545,9.62149351835e-06,773.069786767,0.620734843193,,,,z,1,0.600383964367,2018_Nov_29_1541,59.9903414675,chinese_cond2,001,1068,
images/corkscrew02a.jpg,masquerade mask,x,sounds/animalfarm_english.wav,,,,,,,,,0,1,1,1,0,91,91,201,774.172080611,9.94233414531e-06,775.086945213,0.914875186048,,,,x,1,0.90045182826,2018_Nov_29_1541,59.9903414675,chinese_cond2,001,1068,
images/straw.jpg,straw,z,sounds/animalfarm_english.wav,,,,,,,,,0,1,1,1,0,92,92,109,776.176523526,9.30088572204e-06,777.237459742,1.0609461586,,,,z,1,1.05048527918,2018_Nov_29_1541,59.9903414675,chinese_cond2,001,1068,
images/chameleon.jpg,50 dollar bill,x,sounds/animalfarm_english.wav,,,,,,,,,0,1,1,1,0,93,93,120,778.346859748,9.30088572204e-06,779.28797998,0.941130173858,,,,x,1,0.917143308092,2018_Nov_29_1541,59.9903414675,chinese_cond2,001,1068,
images/tulip02.jpg,sport shorts,x,sounds/animalfarm_english.wav,,,,,,,,,0,1,1,1,0,94,94,225,780.380661886,9.621726349e-06,781.388500249,1.00784830539,,,,x,1,0.983828084543,2018_Nov_29_1541,59.9903414675,chinese_cond2,001,1068,
images/handfan01b.jpg,handfan,z,sounds/animalfarm_english.wav,,,,,,,,,0,1,1,1,0,95,95,69,782.50133451,9.3006528914e-06,783.989115772,1.48779120436,,,,z,1,1.46726136445,2018_Nov_29_1541,59.9903414675,chinese_cond2,001,1068,
images/leaf01a.jpg,leaf,z,sounds/animalfarm_english.wav,,,,,,,,,0,1,1,1,0,96,96,68,785.090448102,9.62149351835e-06,786.206313795,1.11587563553,,,,z,1,1.10049781948,2018_Nov_29_1541,59.9903414675,chinese_cond2,001,1068,
images/cigar.jpg,crocodile,x,sounds/animalfarm_english.wav,,,,,,,,,0,1,1,1,0,97,97,162,787.303384736,8.98027792573e-06,788.606894231,1.30351943779,,,,x,1,1.28386708372,2018_Nov_29_1541,59.9903414675,chinese_cond2,001,1068,
images/toothbrush03a.jpg,parrot,x,sounds/animalfarm_english.wav,,,,,,,,,0,1,1,1,0,98,98,210,789.698064912,8.98027792573e-06,792.524521183,2.82646589261,,,,x,1,2.8175874392,2018_Nov_29_1541,59.9903414675,chinese_cond2,001,1068,
images/skateboard.jpg,key,x,sounds/animalfarm_english.wav,,,,,,,,,0,1,1,1,0,99,99,189,793.614004563,9.3006528914e-06,794.908440929,1.29444598733,,,,x,1,1.28388696839,2018_Nov_29_1541,59.9903414675,chinese_cond2,001,1068,
images/remotecontrol01c.jpg,remote control,z,sounds/animalfarm_english.wav,,,,,,,,,0,1,1,1,0,100,100,85,796.01795896,8.98027792573e-06,796.992280944,0.974331606412,,,,z,1,0.950464047724,2018_Nov_29_1541,59.9903414675,chinese_cond2,001,1068,
images/mattress.jpg,cat,x,sounds/animalfarm_english.wav,,,,,,,,,0,1,1,1,0,101,101,147,798.095143743,9.30088572204e-06,799.609581853,1.51444805297,,,,x,1,1.5005997438,2018_Nov_29_1541,59.9903414675,chinese_cond2,001,1068,
images/electrictoothbrush01a.jpg,banjo,x,sounds/animalfarm_english.wav,,,,,,,,,0,1,1,1,0,102,102,127,800.702645415,9.94210131466e-06,801.493383254,0.790747460211,,,,x,1,0.767102159793,2018_Nov_29_1541,59.9903414675,chinese_cond2,001,1068,
images/daisy.jpg,daisy,z,sounds/animalfarm_english.wav,,,,,,,,,0,1,1,1,0,103,103,6,802.594845795,9.62149351835e-06,803.377175675,0.782340142643,,,,z,1,0.767096707597,2018_Nov_29_1541,59.9903414675,chinese_cond2,001,1068,
images/djmixer01.jpg,light bulb,x,sounds/animalfarm_english.wav,,,,,,,,,0,1,1,1,0,104,104,196,804.496697881,9.94233414531e-06,805.410852412,0.914164794143,,,,x,1,0.900305901421,2018_Nov_29_1541,59.9903414675,chinese_cond2,001,1068,
images/broom02.jpg,broom,z,sounds/animalfarm_english.wav,,,,,,,,,0,1,1,1,0,105,105,116,806.503198847,9.30088572204e-06,807.178103706,0.67491448042,,,,z,1,0.650406125933,2018_Nov_29_1541,59.9903414675,chinese_cond2,001,1068,
images/cocktailshrimp01.jpg,cocktail shrimp,z,sounds/animalfarm_english.wav,,,,,,,,,0,1,1,1,0,106,106,30,808.291423214,9.94233414531e-06,809.011885511,0.720472238958,,,,z,1,0.700406799559,2018_Nov_29_1541,59.9903414675,chinese_cond2,001,1068,
images/parrot01.jpg,chameleon,x,sounds/animalfarm_english.wav,,,,,,,,,0,1,1,1,0,107,107,150,810.12355845,9.30088572204e-06,810.945680209,0.822131701279,,,,x,1,0.800435086712,2018_Nov_29_1541,59.9903414675,chinese_cond2,001,1068,
images/licenseplate.jpg,license plate,z,sounds/animalfarm_english.wav,,,,,,,,,0,1,1,1,0,108,108,40,812.061320116,9.621726349e-06,812.962831278,0.901521104388,,,,z,1,0.883784723235,2018_Nov_29_1541,59.9903414675,chinese_cond2,001,1068,
images/cherry01.jpg,highlighter,x,sounds/animalfarm_english.wav,,,,,,,,,0,1,1,1,0,109,109,187,814.071181251,9.30088572204e-06,815.196707952,1.1255366425,,,,x,1,1.11718063965,2018_Nov_29_1541,59.9903414675,chinese_cond2,001,1068,
images/paperclip04.jpg,eye drops,x,sounds/animalfarm_english.wav,,,,,,,,,0,1,1,1,0,110,110,174,816.30322149,9.62149351835e-06,817.197200255,0.89398870687,,,,x,1,0.88378408202,2018_Nov_29_1541,59.9903414675,chinese_cond2,001,1068,
images/peach01.jpg,peach,z,sounds/animalfarm_english.wav,,,,,,,,,0,1,1,1,0,111,111,106,818.324653191,1.02629419416e-05,818.947624084,0.622981156455,,,,z,1,0.600382040022,2018_Nov_29_1541,59.9903414675,chinese_cond2,001,1068,
images/flipflop01b.jpg,flip flop,z,sounds/animalfarm_english.wav,,,,,,,,,0,1,1,1,0,112,112,27,820.063414409,9.621726349e-06,820.697888196,0.634483729722,,,,z,1,0.616882050643,2018_Nov_29_1541,59.9903414675,chinese_cond2,001,1068,
images/gorilla.jpg,gorilla,z,sounds/animalfarm_english.wav,,,,,,,,,0,1,1,1,0,113,113,80,821.807593206,5.54842408746e-05,822.598525721,0.790966190398,,,,z,1,0.767102159793,2018_Nov_29_1541,59.9903414675,chinese_cond2,001,1068,
images/sportshorts02.jpg,tape,x,sounds/animalfarm_english.wav,,,,,,,,,0,1,1,1,0,114,114,230,823.704960042,9.62149351835e-06,824.432279302,0.727330165217,,,,x,1,0.717063320801,2018_Nov_29_1541,59.9903414675,chinese_cond2,001,1068,
images/lychee02a.jpg,lychee,z,sounds/animalfarm_english.wav,,,,,,,,,0,1,1,1,0,115,115,62,825.555049105,8.98004509509e-06,826.132701496,0.57766201254,,,,z,1,0.567039491376,2018_Nov_29_1541,59.9903414675,chinese_cond2,001,1068,
images/computerkeyboard01a.jpg,computer keyboard,z,sounds/animalfarm_english.wav,,,,,,,,,0,1,1,1,0,116,116,61,827.248523572,8.98004509509e-06,827.89980975,0.651295158081,,,,z,1,0.633736134507,2018_Nov_29_1541,59.9903414675,chinese_cond2,001,1068,
images/cupcake.jpg,scissors,x,sounds/animalfarm_english.wav,,,,,,,,,0,1,1,1,0,117,117,219,829.017748247,8.98004509509e-06,829.866943468,0.849204842234,,,,x,1,0.833767051809,2018_Nov_29_1541,59.9903414675,chinese_cond2,001,1068,
images/safe.jpg,safe,z,sounds/animalfarm_english.wav,,,,,,,,,0,1,1,1,0,118,118,78,830.97650672,9.30088572204e-06,832.017474674,1.04097757605,,,,z,1,1.01714722067,2018_Nov_29_1541,59.9903414675,chinese_cond2,001,1068,
images/50dollarbill.jpg,cherry,x,sounds/animalfarm_english.wav,,,,,,,,,0,1,1,1,0,119,119,151,833.138635432,3.81653662771e-05,834.10131469,0.962710046675,,,,x,1,0.950468858704,2018_Nov_29_1541,59.9903414675,chinese_cond2,001,1068,
images/antelope.jpg,antelope,z,sounds/animalfarm_english.wav,,,,,,,,,0,1,1,1,0,120,120,12,835.204973191,9.62149351835e-06,836.201824376,0.996860806132,,,,x,0,0.983795371372,2018_Nov_29_1541,59.9903414675,chinese_cond2,001,1068,
images/ostrich.jpg,ostrich,z,sounds/animalfarm_english.wav,,,,,,,,,0,1,1,1,0,121,121,76,837.30071315,9.62149351835e-06,838.402368763,1.10166587657,,,,z,1,1.08383744955,2018_Nov_29_1541,59.9903414675,chinese_cond2,001,1068,
images/atm.jpg,atm,z,sounds/animalfarm_english.wav,,,,,,,,,0,1,1,1,0,122,122,96,839.540873342,9.94233414531e-06,840.919651648,1.37878792756,,,,z,1,1.3672443023,2018_Nov_29_1541,59.9903414675,chinese_cond2,001,1068,
images/charcoalbarbecue.jpg,charcoal barbecue,z,sounds/animalfarm_english.wav,,,,,,,,,0,1,1,1,0,123,123,77,842.035543961,9.94233414531e-06,842.886780877,0.851247178623,,,,z,1,0.833767372416,2018_Nov_29_1541,59.9903414675,chinese_cond2,001,1068,
images/globe.jpg,cloud,x,sounds/animalfarm_english.wav,,,,,,,,,0,1,1,1,0,124,124,154,844.012908604,9.62149351835e-06,844.803911356,0.791013015434,,,,x,1,0.767081954516,2018_Nov_29_1541,59.9903414675,chinese_cond2,001,1068,
images/lily.jpg,kiwi,x,sounds/animalfarm_english.wav,,,,,,,,,0,1,1,1,0,125,125,190,845.902075306,9.3006528914e-06,846.887892167,0.985832575709,,,,x,1,0.967238914222,2018_Nov_29_1541,59.9903414675,chinese_cond2,001,1068,
images/mailbox01.jpg,mail box,z,sounds/animalfarm_english.wav,,,,,,,,,0,1,1,1,0,126,126,73,848.005555167,9.621726349e-06,848.871570796,0.866025250871,,,,z,1,0.850439288188,2018_Nov_29_1541,59.9903414675,chinese_cond2,001,1068,
images/cola.jpg,comb,x,sounds/animalfarm_english.wav,,,,,,,,,0,1,1,1,0,127,127,157,849.991552272,9.62149351835e-06,851.005422069,1.01388006029,,,,x,1,1.0004765878,2018_Nov_29_1541,59.9903414675,chinese_cond2,001,1068,
images/lettuce.jpg,mushroom,x,sounds/animalfarm_english.wav,,,,,,,,,0,1,1,1,0,128,128,205,852.127380133,9.30088572204e-06,852.989248871,0.861878358992,,,,x,1,0.850434798282,2018_Nov_29_1541,59.9903414675,chinese_cond2,001,1068,
images/thumbtack02a.jpg,thumb tack,z,sounds/animalfarm_english.wav,,,,,,,,,0,1,1,1,0,129,129,60,854.09841379,9.94233414531e-06,855.906618285,1.80821475829,,,,z,1,1.78399825795,2018_Nov_29_1541,59.9903414675,chinese_cond2,001,1068,
images/panda.jpg,panda,z,sounds/animalfarm_english.wav,,,,,,,,,0,1,1,1,0,130,130,83,857.014257867,8.98004509509e-06,857.657034738,0.642786493059,,,,z,1,0.633714967174,2018_Nov_29_1541,59.9903414675,chinese_cond2,001,1068,
images/doll.jpg,carrot,x,sounds/animalfarm_english.wav,,,,,,,,,0,1,1,1,0,131,131,146,858.766831473,9.30088572204e-06,859.990954773,1.22413292108,,,,x,1,1.20053284196,2018_Nov_29_1541,59.9903414675,chinese_cond2,001,1068,
images/lightswitch02a.jpg,fork,x,sounds/animalfarm_english.wav,,,,,,,,,0,1,1,1,0,132,132,177,861.101317576,9.3006528914e-06,861.991437775,0.890129820444,,,,x,1,0.86711890134,2018_Nov_29_1541,59.9903414675,chinese_cond2,001,1068,
images/masquerademask02b.jpg,mirror,x,sounds/animalfarm_english.wav,,,,,,,,,0,1,1,1,0,133,133,204,863.095116482,9.30088572204e-06,864.125279747,1.03017288656,,,,x,1,1.01713310927,2018_Nov_29_1541,59.9903414675,chinese_cond2,001,1068,
images/pipe.jpg,icecube,x,sounds/animalfarm_english.wav,,,,,,,,,0,1,1,1,0,134,134,188,865.233276288,9.94233414531e-06,866.692586397,1.4593203715,,,,x,1,1.45059041097,2018_Nov_29_1541,59.9903414675,chinese_cond2,001,1068,
images/highlighter03b.jpg,coin,x,sounds/animalfarm_english.wav,,,,,,,,,0,1,1,1,0,135,135,156,867.794171452,9.30088572204e-06,868.709736825,0.915575955994,,,,x,1,0.900448300643,2018_Nov_29_1541,59.9903414675,chinese_cond2,001,1068,
images/hairpin.jpg,hair pin,z,sounds/animalfarm_english.wav,,,,,,,,,0,1,1,1,0,136,136,28,869.799616613,8.65943729877e-06,870.560181886,0.760574573651,,,,z,1,0.750409397529,2018_Nov_29_1541,59.9903414675,chinese_cond2,001,1068,
images/screw03c.jpg,screw,z,sounds/animalfarm_english.wav,,,,,,,,,0,1,1,1,0,137,137,84,871.652711131,8.65920446813e-06,872.460637563,0.807935733115,,,,z,1,0.783750663046,2018_Nov_29_1541,59.9903414675,chinese_cond2,001,1068,
images/bottleofredwine02.jpg,pipe,x,sounds/animalfarm_english.wav,,,,,,,,,0,1,1,1,0,138,138,213,873.557795419,9.30088572204e-06,874.594500702,1.03671522555,,,,x,1,1.01714946562,2018_Nov_29_1541,59.9903414675,chinese_cond2,001,1068,
images/ruler02b.jpg,watermelon,x,sounds/animalfarm_english.wav,,,,,,,,,0,1,1,1,0,139,139,238,875.700767608,1.02629419416e-05,877.461863991,1.76110696676,,,,x,1,1.75058322679,2018_Nov_29_1541,59.9903414675,chinese_cond2,001,1068,
images/candle08a.jpg,screw driver,x,sounds/animalfarm_english.wav,,,,,,,,,0,1,1,1,0,140,140,221,878.57390736,8.98027792573e-06,880.429244983,1.85534692463,,,,x,1,1.83400149713,2018_Nov_29_1541,59.9903414675,chinese_cond2,001,1068,
images/bull.jpg,button,x,sounds/animalfarm_english.wav,,,,,,,,,0,1,1,1,0,141,141,141,881.533635365,9.30088572204e-06,882.779824105,1.24619804113,,,,x,1,1.23385486472,2018_Nov_29_1541,59.9903414675,chinese_cond2,001,1068,
images/basketball01.jpg,basket ball,z,sounds/animalfarm_english.wav,,,,,,,,,0,1,1,1,0,142,142,33,883.917906939,8.98004509509e-06,884.513582113,0.595685116015,,,,z,1,0.583715255605,2018_Nov_29_1541,59.9903414675,chinese_cond2,001,1068,
images/crocodile.jpg,triangle ruler,x,sounds/animalfarm_english.wav,,,,,,,,,0,1,1,1,0,143,143,235,885.609997505,9.30088572204e-06,886.447409524,0.837421640521,,,,x,1,0.817128170049,2018_Nov_29_1541,59.9903414675,chinese_cond2,001,1068,
images/electricguitar02.jpg,electric guitar,z,sounds/animalfarm_english.wav,,,,,,,,,0,1,1,1,0,144,144,100,887.548252115,9.30088572204e-06,888.214497892,0.666255719261,,,,z,1,0.650409012567,2018_Nov_29_1541,59.9903414675,chinese_cond2,001,1068,
images/fireextinguisher02.jpg,fire extinguisher,z,sounds/animalfarm_english.wav,,,,,,,,,0,1,1,1,0,145,145,175,889.323562427,9.62149351835e-06,890.73175544,1.40820327657,,,,z,1,1.3838976163,2018_Nov_29_1541,59.9903414675,chinese_cond2,001,1068,
images/cake.jpg,cake,z,sounds/animalfarm_english.wav,,,,,,,,,0,1,1,1,0,146,146,23,891.844224082,9.30088572204e-06,892.665560722,0.821346261306,,,,z,1,0.800417447463,2018_Nov_29_1541,59.9903414675,chinese_cond2,001,1068,
images/tape01a.jpg,tie,x,sounds/animalfarm_english.wav,,,,,,,,,0,1,1,1,0,147,147,232,893.789697748,9.30088572204e-06,894.649382392,0.859694586135,,,,x,1,0.850440250477,2018_Nov_29_1541,59.9903414675,chinese_cond2,001,1068,
images/comb02a.jpg,diploma,x,sounds/animalfarm_english.wav,,,,,,,,,0,1,1,1,0,148,148,166,895.752191631,9.30088572204e-06,896.54984288,0.797660550103,,,,x,1,0.783756115241,2018_Nov_29_1541,59.9903414675,chinese_cond2,001,1068,
images/hand01a.jpg,cupcake,x,sounds/animalfarm_english.wav,,,,,,,,,0,1,1,1,0,149,149,163,897.659968993,9.30088572204e-06,898.366949883,0.706991152605,,,,z,0,0.683729110751,2018_Nov_29_1541,59.9903414675,chinese_cond2,001,1068,
images/glasses01b.jpg,calculator,x,sounds/animalfarm_english.wav,,,,,,,,,0,1,1,1,0,150,150,142,899.460742438,9.94210131466e-06,900.467475284,1.00674246741,,,,x,1,0.983810765669,2018_Nov_29_1541,59.9903414675,chinese_cond2,001,1068,
images/birthdaycandle.jpg,birthday candle,z,sounds/animalfarm_english.wav,,,,,,,,,0,1,1,1,0,151,151,55,901.563926917,8.98004509509e-06,902.451284125,0.887366829673,,,,z,1,0.867052833317,2018_Nov_29_1541,59.9903414675,chinese_cond2,001,1068,
images/parkbench03.jpg,park bench,z,sounds/animalfarm_english.wav,,,,,,,,,0,1,1,1,0,152,152,71,903.55862159,9.30088572204e-06,904.501775498,0.94316352997,,,,z,1,0.933785076253,2018_Nov_29_1541,59.9903414675,chinese_cond2,001,1068,
images/cheetah.jpg,cheetah,z,sounds/animalfarm_english.wav,,,,,,,,,0,1,1,1,0,153,153,82,905.604713666,9.30088572204e-06,906.302218603,0.697515200358,,,,z,1,0.683731035097,2018_Nov_29_1541,59.9903414675,chinese_cond2,001,1068,
images/lock02a.jpg,lock,z,sounds/animalfarm_english.wav,,,,,,,,,0,1,1,1,0,154,154,65,907.412673453,9.94233414531e-06,908.235889183,0.823226634646,,,,z,1,0.800279217772,2018_Nov_29_1541,59.9903414675,chinese_cond2,001,1068,
images/candycane01a.jpg,lip,x,sounds/animalfarm_english.wav,,,,,,,,,0,1,1,1,0,155,155,200,909.330030359,9.30088572204e-06,910.253172388,0.923151971307,,,,x,1,0.900446696905,2018_Nov_29_1541,59.9903414675,chinese_cond2,001,1068,
images/pen03c.jpg,pepper,x,sounds/animalfarm_english.wav,,,,,,,,,0,1,1,1,0,156,156,211,911.347404328,8.98004509509e-06,912.40373727,1.05634256336,,,,x,1,1.03385473648,2018_Nov_29_1541,59.9903414675,chinese_cond2,001,1068,
images/medal01.jpg,medal,z,sounds/animalfarm_english.wav,,,,,,,,,0,1,1,1,0,157,157,115,913.504787367,9.30088572204e-06,914.387366188,0.882588442881,,,,z,1,0.866954693571,2018_Nov_29_1541,59.9903414675,chinese_cond2,001,1068,
images/sock03.jpg,sock,z,sounds/animalfarm_english.wav,,,,,,,,,0,1,1,1,0,158,158,90,915.493740214,9.62149351835e-06,916.32132349,0.827593218535,,,,z,1,0.817097701831,2018_Nov_29_1541,59.9903414675,chinese_cond2,001,1068,
images/raisin.jpg,ruler,x,sounds/animalfarm_english.wav,,,,,,,,,0,1,1,1,0,159,159,218,917.428383854,9.62149351835e-06,918.171772721,0.743398488266,,,,x,1,0.733737160917,2018_Nov_29_1541,59.9903414675,chinese_cond2,001,1068,
images/hairband.jpg,hairband,z,sounds/animalfarm_english.wav,,,,,,,,,0,1,1,1,0,160,160,66,919.281135523,8.98004509509e-06,920.3889871,1.10786055657,,,,z,1,1.0838368081,2018_Nov_29_1541,59.9903414675,chinese_cond2,001,1068,
images/knife04.jpg,tooth brush,x,sounds/animalfarm_english.wav,,,,,,,,,0,1,1,1,0,161,161,233,921.485718079,9.3006528914e-06,922.489499993,1.00379217672,,,,x,1,0.983796333428,2018_Nov_29_1541,59.9903414675,chinese_cond2,001,1068,
images/aquarium.jpg,computer mouse,x,sounds/animalfarm_english.wav,,,,,,,,,0,1,1,1,0,162,162,159,923.624650176,9.62149351835e-06,924.790058557,1.1654183229,,,,x,1,1.1505193396,2018_Nov_29_1541,59.9903414675,chinese_cond2,001,1068,
images/rubberglove02a.jpg,lady bug,x,sounds/animalfarm_english.wav,,,,,,,,,0,1,1,1,0,163,163,192,925.894319368,9.621726349e-06,926.557154944,0.662845839048,,,,x,1,0.6503920143,2018_Nov_29_1541,59.9903414675,chinese_cond2,001,1068,
images/carrot02.jpg,corkscrew,x,sounds/animalfarm_english.wav,,,,,,,,,0,1,1,1,0,164,164,161,927.661297089,9.30088572204e-06,929.241155382,1.57986823609,,,,x,1,1.56729029329,2018_Nov_29_1541,59.9903414675,chinese_cond2,001,1068,
images/honeycomb.jpg,honey comb,z,sounds/animalfarm_english.wav,,,,,,,,,0,1,1,1,0,165,165,59,930.35426931,9.3006528914e-06,931.40836107,1.05410138168,,,,z,1,1.03385024611,2018_Nov_29_1541,59.9903414675,chinese_cond2,001,1068,
images/nametag01a.jpg,name tag,z,sounds/animalfarm_english.wav,,,,,,,,,0,1,1,1,0,166,166,108,932.528214899,9.94233414531e-06,933.458825823,0.93062118697,,,,z,1,0.917116046883,2018_Nov_29_1541,59.9903414675,chinese_cond2,001,1068,
images/ceilingfan02.jpg,paper clip,x,sounds/animalfarm_english.wav,,,,,,,,,0,1,1,1,0,167,167,208,934.558513508,9.94210131466e-06,935.892765165,1.33426159993,,,,x,1,1.31723079993,2018_Nov_29_1541,59.9903414675,chinese_cond2,001,1068,
images/corn01.jpg,corn,z,sounds/animalfarm_english.wav,,,,,,,,,0,1,1,1,0,168,168,22,936.993900894,9.621726349e-06,937.943255255,0.949364303611,,,,z,1,0.933790528448,2018_Nov_29_1541,59.9903414675,chinese_cond2,001,1068,
images/microphone01.jpg,diaper,x,sounds/animalfarm_english.wav,,,,,,,,,0,1,1,1,0,169,169,164,939.042149802,1.02629419416e-05,940.093786141,1.05164820515,,,,x,1,1.03382843756,2018_Nov_29_1541,59.9903414675,chinese_cond2,001,1068,
images/dice05a.jpg,band aid,x,sounds/animalfarm_english.wav,,,,,,,,,0,1,1,1,0,170,170,126,941.206455552,9.30088572204e-06,942.41102111,1.20457614143,,,,x,1,1.1838654161,2018_Nov_29_1541,59.9903414675,chinese_cond2,001,1068,
images/ear.jpg,bullet,x,sounds/animalfarm_english.wav,,,,,,,,,0,1,1,1,0,171,171,139,943.514828746,9.621726349e-06,945.261806454,1.7469876504,,,,x,1,1.73409251706,2018_Nov_29_1541,59.9903414675,chinese_cond2,001,1068,
images/arrow02.jpg,hammer,x,sounds/animalfarm_english.wav,,,,,,,,,0,1,1,1,0,172,172,184,946.359012417,9.3006528914e-06,947.345553461,0.986550664762,,,,x,1,0.967144302325,2018_Nov_29_1541,59.9903414675,chinese_cond2,001,1068,
images/butterfly.jpg,butterfly,z,sounds/animalfarm_english.wav,,,,,,,,,0,1,1,1,0,173,173,91,948.453573094,9.30088572204e-06,949.162646031,0.709082558751,,,,z,1,0.700398460729,2018_Nov_29_1541,59.9903414675,chinese_cond2,001,1068,
images/lightbulb03b.jpg,treadmill,x,sounds/animalfarm_english.wav,,,,,,,,,0,1,1,1,0,174,174,234,950.265059503,9.30088572204e-06,951.112972811,0.847923571477,,,,x,1,0.833609578898,2018_Nov_29_1541,59.9903414675,chinese_cond2,001,1068,
images/doorhandle.jpg,doll,x,sounds/animalfarm_english.wav,,,,,,,,,0,1,1,1,0,175,175,168,952.216534456,9.30088572204e-06,953.16362743,0.94710291666,,,,x,1,0.933789887,2018_Nov_29_1541,59.9903414675,chinese_cond2,001,1068,
images/aloe02.jpg,broad sword,x,sounds/animalfarm_english.wav,,,,,,,,,0,1,1,1,0,176,176,137,954.283753549,8.98004509509e-06,955.197457471,0.913713863818,,,,x,1,0.900454394054,2018_Nov_29_1541,59.9903414675,chinese_cond2,001,1068,
images/pineapple01a.jpg,pineapple,z,sounds/animalfarm_english.wav,,,,,,,,,0,1,1,1,0,177,177,51,956.310450488,8.98027792573e-06,956.947877452,0.637436585966,,,,z,1,0.617046258412,2018_Nov_29_1541,59.9903414675,chinese_cond2,001,1068,
images/bat.jpg,hand,x,sounds/animalfarm_english.wav,,,,,,,,,0,1,1,1,0,178,178,185,958.046185726,9.3006528914e-06,958.714984102,0.668808318675,,,,x,1,0.650402277475,2018_Nov_29_1541,59.9903414675,chinese_cond2,001,1068,
images/hairdryer03a.jpg,hairdryer,z,sounds/animalfarm_english.wav,,,,,,,,,0,1,1,1,0,179,179,119,959.814261266,9.30088572204e-06,960.598769146,0.784518142696,,,,z,1,0.767087086104,2018_Nov_29_1541,59.9903414675,chinese_cond2,001,1068,
images/snowman.jpg,globe,x,sounds/animalfarm_english.wav,,,,,,,,,0,1,1,1,0,180,180,180,961.709669153,9.30088572204e-06,963.766217618,2.0565580863,,,,x,1,2.03407154209,2018_Nov_29_1541,59.9903414675,chinese_cond2,001,1068,
images/gamecontroller01.jpg,game controller,z,sounds/animalfarm_english.wav,,,,,,,,,0,1,1,1,0,181,181,112,964.886444764,8.98004509509e-06,965.683347135,0.796911992831,,,,z,1,0.783757398371,2018_Nov_29_1541,59.9903414675,chinese_cond2,001,1068,
images/coffeepot03b.jpg,coffee pot,z,sounds/animalfarm_english.wav,,,,,,,,,0,1,1,1,0,182,182,107,966.804707059,9.62149351835e-06,968.033909579,1.22921214183,,,,z,1,1.21719321189,2018_Nov_29_1541,59.9903414675,chinese_cond2,001,1068,
images/stapler03a.jpg,candy cane,x,sounds/animalfarm_english.wav,,,,,,,,,0,1,1,1,0,183,183,145,969.144641209,9.62149351835e-06,969.851021393,0.706390767358,,,,x,1,0.683735204395,2018_Nov_29_1541,59.9903414675,chinese_cond2,001,1068,
images/banana04a.jpg,banana,z,sounds/animalfarm_english.wav,,,,,,,,,0,1,1,1,0,184,184,118,970.956655841,9.94233414531e-06,971.501433933,0.544788354775,,,,z,1,0.533711054362,2018_Nov_29_1541,59.9903414675,chinese_cond2,001,1068,
images/teapot.jpg,light switch,x,sounds/animalfarm_english.wav,,,,,,,,,0,1,1,1,0,185,185,197,972.618334906,9.3006528914e-06,973.535251466,0.91692618141,,,,x,1,0.900449904148,2018_Nov_29_1541,59.9903414675,chinese_cond2,001,1068,
images/blueberry02.jpg,blueberry,z,sounds/animalfarm_english.wav,,,,,,,,,0,1,1,1,0,186,186,46,974.648250256,9.62149351835e-06,975.219007517,0.570767203812,,,,z,1,0.5503659721,2018_Nov_29_1541,59.9903414675,chinese_cond2,001,1068,
images/bicycle.jpg,hand bag,x,sounds/animalfarm_english.wav,,,,,,,,,0,1,1,1,0,187,187,186,976.329571411,8.98004509509e-06,977.58624348,1.25668137055,,,,x,1,1.23385486449,2018_Nov_29_1541,59.9903414675,chinese_cond2,001,1068,
images/donut.jpg,rhinoceros,x,sounds/animalfarm_english.wav,,,,,,,,,0,1,1,1,0,188,188,216,978.713248694,9.30088572204e-06,979.870126921,1.15688816993,,,,x,1,1.13380188192,2018_Nov_29_1541,59.9903414675,chinese_cond2,001,1068,
images/scooter.jpg,pen,x,sounds/animalfarm_english.wav,,,,,,,,,0,1,1,1,0,189,189,212,980.964357578,9.30088572204e-06,983.954301446,2.98995381012,,,,None,0,,2018_Nov_29_1541,59.9903414675,chinese_cond2,001,1068,
images/plate01b.jpg,plate,z,sounds/animalfarm_english.wav,,,,,,,,,0,1,1,1,0,190,190,3,985.053664884,9.3006528914e-06,985.971615761,0.917960819555,,,,z,1,0.900454394286,2018_Nov_29_1541,59.9903414675,chinese_cond2,001,1068,
images/tie01.jpg,bench,x,sounds/animalfarm_english.wav,,,,,,,,,0,1,1,1,0,191,191,130,987.070652066,9.62149351835e-06,987.838736266,0.768094142433,,,,x,1,0.750414528884,2018_Nov_29_1541,59.9903414675,chinese_cond2,001,1068,
images/fork01.jpg,cooking pot,x,sounds/animalfarm_english.wav,,,,,,,,,0,1,1,1,0,192,192,160,988.933985846,8.98004509509e-06,990.022438757,1.08846285334,,,,x,1,1.06699972227,2018_Nov_29_1541,59.9903414675,chinese_cond2,001,1068,
images/razor04a.jpg,razor,z,sounds/animalfarm_english.wav,,,,,,,,,0,1,1,1,0,193,193,36,991.122315345,8.98027792573e-06,991.806377041,0.68407099694,,,,z,1,0.667075475911,2018_Nov_29_1541,59.9903414675,chinese_cond2,001,1068,
images/beermug01b.jpg,beer mug,z,sounds/animalfarm_english.wav,,,,,,,,,0,1,1,1,0,194,194,111,992.923540682,9.30088572204e-06,993.9235487,1.00001796032,,,,z,1,0.983802427072,2018_Nov_29_1541,59.9903414675,chinese_cond2,001,1068,
images/headphones02b.jpg,headphones,z,sounds/animalfarm_english.wav,,,,,,,,,0,1,1,1,0,195,195,101,995.031408615,9.62149351835e-06,996.074070285,1.04267193261,,,,z,1,1.03381785355,2018_Nov_29_1541,59.9903414675,chinese_cond2,001,1068,
images/puzzle.jpg,puzzle,z,sounds/animalfarm_english.wav,,,,,,,,,0,1,1,1,0,196,196,57,997.194464204,1.02631747723e-05,998.974777085,1.7803225019,,,,z,1,1.76730228821,2018_Nov_29_1541,59.9903414675,chinese_cond2,001,1068,
images/bracelet02a.jpg,chess knight,x,sounds/animalfarm_english.wav,,,,,,,,,0,1,1,1,0,197,197,152,1000.08459819,9.62149351835e-06,1002.70902515,2.624437219,,,,x,1,2.60085702431,2018_Nov_29_1541,59.9903414675,chinese_cond2,001,1068,
images/highheelshoe02a.jpg,high heel shoe,z,sounds/animalfarm_english.wav,,,,,,,,,0,1,1,1,0,198,198,75,1003.81686326,8.53112433106e-05,1004.47611127,0.659309595358,,,,z,1,0.650390090188,2018_Nov_29_1541,59.9903414675,chinese_cond2,001,1068,
images/dolphin01.jpg,dolphin,z,sounds/animalfarm_english.wav,,,,,,,,,0,1,1,1,0,199,199,99,1005.57740191,9.62149351835e-06,1006.59329929,1.01590732252,,,,z,1,1.00047177705,2018_Nov_29_1541,59.9903414675,chinese_cond2,001,1068,
images/lipstick04.jpg,lipstick,z,sounds/animalfarm_english.wav,,,,,,,,,0,1,1,1,0,200,200,56,1007.69302995,9.30088572204e-06,1009.09391507,1.40089506167,,,,z,1,1.38390980358,2018_Nov_29_1541,59.9903414675,chinese_cond2,001,1068,
images/lantern03.jpg,lantern,z,sounds/animalfarm_english.wav,,,,,,,,,0,1,1,1,0,201,201,5,1010.20113483,9.62149351835e-06,1010.96102756,0.759902668186,,,,z,1,0.75040490739,2018_Nov_29_1541,59.9903414675,chinese_cond2,001,1068,
images/elbow.jpg,elbow,z,sounds/animalfarm_english.wav,,,,,,,,,0,1,1,1,0,202,202,105,1012.073374,9.30088572204e-06,1012.76147098,0.688106599264,,,,z,1,0.66706809937,2018_Nov_29_1541,59.9903414675,chinese_cond2,001,1068,
images/sunglasses03a.jpg,sun glasses,z,sounds/animalfarm_english.wav,,,,,,,,,0,1,1,1,0,203,203,17,1013.87018176,9.30088572204e-06,1014.37852815,0.508356323466,,,,z,1,0.500359204831,2018_Nov_29_1541,59.9903414675,chinese_cond2,001,1068,
images/notebook02b.jpg,notebook,z,sounds/animalfarm_english.wav,,,,,,,,,0,1,1,1,0,204,204,7,1015.48493456,8.98004509509e-06,1016.07893719,0.594011606183,,,,z,1,0.583704351215,2018_Nov_29_1541,59.9903414675,chinese_cond2,001,1068,
images/lion.jpg,lion,z,sounds/animalfarm_english.wav,,,,,,,,,0,1,1,1,0,205,205,44,1017.19099852,9.62149351835e-06,1017.82936326,0.638374687871,,,,z,1,0.617045937805,2018_Nov_29_1541,59.9903414675,chinese_cond2,001,1068,
images/printer03a.jpg,printer,z,sounds/animalfarm_english.wav,,,,,,,,,0,1,1,1,0,206,206,72,1018.93895666,9.94233414531e-06,1019.87986554,0.940918820444,,,,z,1,0.917122140527,2018_Nov_29_1541,59.9903414675,chinese_cond2,001,1068,
images/orange.jpg,bat,x,sounds/animalfarm_english.wav,,,,,,,,,0,1,1,1,0,207,207,128,1021.00516357,9.62149351835e-06,1021.7636586,0.758505297359,,,,x,1,0.750415811548,2018_Nov_29_1541,59.9903414675,chinese_cond2,001,1068,
images/grandpiano.jpg,tulip,x,sounds/animalfarm_english.wav,,,,,,,,,0,1,1,1,0,208,208,236,1022.8780073,9.94233414531e-06,1023.56393333,0.685936617199,,,,x,1,0.666892024921,2018_Nov_29_1541,59.9903414675,chinese_cond2,001,1068,
images/cockroach02.jpg,belt,x,sounds/animalfarm_english.wav,,,,,,,,,0,1,1,1,0,209,209,129,1024.66448022,9.62149351835e-06,1025.39788287,0.733412272763,,,,x,1,0.717080960283,2018_Nov_29_1541,59.9903414675,chinese_cond2,001,1068,
images/apricot.jpg,apricot,z,sounds/animalfarm_english.wav,,,,,,,,,0,1,1,1,0,210,210,32,1026.51587974,9.3006528914e-06,1027.18165214,0.665782017633,,,,x,0,0.650398108177,2018_Nov_29_1541,59.9903414675,chinese_cond2,001,1068,
images/button07.jpg,radish,x,sounds/animalfarm_english.wav,,,,,,,,,0,1,1,1,0,211,211,215,1028.29387799,9.30088572204e-06,1029.46563885,1.17177111725,,,,x,1,1.15061459295,2018_Nov_29_1541,59.9903414675,chinese_cond2,001,1068,
images/tent.jpg,tent,z,sounds/animalfarm_english.wav,,,,,,,,,0,1,1,1,0,212,212,11,1030.59041507,9.30088572204e-06,1031.43269976,0.842294638976,,,,x,0,0.833789181197,2018_Nov_29_1541,59.9903414675,chinese_cond2,001,1068,
images/lamp04b.jpg,parking meter,x,sounds/animalfarm_english.wav,,,,,,,,,0,1,1,1,0,213,213,209,1032.5528958,9.30088572204e-06,1033.61655716,1.06367130461,,,,x,1,1.05049971165,2018_Nov_29_1541,59.9903414675,chinese_cond2,001,1068,
images/key03b.jpg,cigar,x,sounds/animalfarm_english.wav,,,,,,,,,0,1,1,1,0,214,214,153,1034.717919,9.30088572204e-06,1035.50034606,0.782436999725,,,,x,1,0.767104404978,2018_Nov_29_1541,59.9903414675,chinese_cond2,001,1068,
images/diploma01.jpg,glasses,x,sounds/animalfarm_english.wav,,,,,,,,,0,1,1,1,0,215,215,179,1036.63171593,9.30088572204e-06,1037.41748519,0.785779208411,,,,x,1,0.767096707597,2018_Nov_29_1541,59.9903414675,chinese_cond2,001,1068,
images/toucan.jpg,toucan,z,sounds/animalfarm_english.wav,,,,,,,,,0,1,1,1,0,216,216,81,1038.51807057,9.94233414531e-06,1039.28458934,0.766529356362,,,,z,1,0.7504151701,2018_Nov_29_1541,59.9903414675,chinese_cond2,001,1068,
images/computermouse02a.jpg,world map,x,sounds/animalfarm_english.wav,,,,,,,,,0,1,1,1,0,217,217,239,1040.38638062,9.30088572204e-06,1041.30175645,0.915386090754,,,,z,0,0.900455035502,2018_Nov_29_1541,59.9903414675,chinese_cond2,001,1068,
images/cookingpot.jpg,grasshopper,x,sounds/animalfarm_english.wav,,,,,,,,,0,1,1,1,0,218,218,183,1042.41578378,9.62149351835e-06,1043.30224618,0.88647266617,,,,x,1,0.867107034661,2018_Nov_29_1541,59.9903414675,chinese_cond2,001,1068,
images/diaper01a.jpg,camera,x,sounds/animalfarm_english.wav,,,,,,,,,0,1,1,1,0,219,219,143,1044.42204613,9.62149351835e-06,1045.08600487,0.663969316054,,,,x,1,0.650379827013,2018_Nov_29_1541,59.9903414675,chinese_cond2,001,1068,
images/leek.jpg,donut,x,sounds/animalfarm_english.wav,,,,,,,,,0,1,1,1,0,220,220,169,1046.18709152,9.94233414531e-06,1047.00315106,0.816070119385,,,,x,1,0.800437973114,2018_Nov_29_1541,59.9903414675,chinese_cond2,001,1068,
images/swallow.jpg,mattress,x,sounds/animalfarm_english.wav,,,,,,,,,0,1,1,1,0,221,221,202,1048.10522778,9.62149351835e-06,1049.77031512,1.66509824572,,,,x,1,1.6504728354,2018_Nov_29_1541,59.9903414675,chinese_cond2,001,1068,
images/screwdriver02b.jpg,cola,x,sounds/animalfarm_english.wav,,,,,,,,,0,1,1,1,0,222,222,158,1050.8655461,9.30088572204e-06,1052.10438397,1.23884749133,,,,x,1,1.21720379568,2018_Nov_29_1541,59.9903414675,chinese_cond2,001,1068,
images/broadsword.jpg,teapot,x,sounds/animalfarm_english.wav,,,,,,,,,0,1,1,1,0,223,223,231,1053.19752322,9.94210131466e-06,1053.95483159,0.757319600554,,,,x,1,0.733752555214,2018_Nov_29_1541,59.9903414675,chinese_cond2,001,1068,
,,,sounds/animalfarm_english.wav,,,,,,,,,0,1,1,1,,,,,,,,,,,,,,,2018_Nov_29_1541,59.9903414675,chinese_cond2,001,1068,
