images,name,corrAns,sounds,trials_3.thisRepN,trials_3.thisTrialN,trials_3.thisN,trials_3.thisIndex,trials_4.thisRepN,trials_4.thisTrialN,trials_4.thisN,trials_4.thisIndex,trials_2.thisRepN,trials_2.thisTrialN,trials_2.thisN,trials_2.thisIndex,trials.thisRepN,trials.thisTrialN,trials.thisN,trials.thisIndex,begin_global,begin_routine,end_global,end_routine,key_resp_2.keys,key_resp_2.corr,key_resp_2.rt,begin_book,key_resp_1.keys,key_resp_1.corr,key_resp_1.rt,date,frameRate,expName,session,participant,
images\volleyball.jpg,volley ball,z,,0,0,0,0,,,,,,,,,,,,,,,,,,,,,,,,2018_Dec_04_1106,59.9854941959,spanish_cond2,001,1072,
images\puma.jpg,puma,z,,,,,,0,0,0,0,,,,,,,,,48.2470594914,9.94227593765e-06,50.328400788,2.08135252167,z,1,2.06741505291,,,,,2018_Dec_04_1106,59.9854941959,spanish_cond2,001,1072,
images\worldmap.jpg,scooter,x,sounds\greatgatsby_spanish.wav,,,,,,,,,0,0,0,0,0,0,0,220,92.6191331746,9.30088572204e-06,95.6225879555,3.00346504396,,,,82.3243863531,None,0,,2018_Dec_04_1106,59.9854941959,spanish_cond2,001,1072,
images\parkbench03.jpg,park bench,z,sounds\greatgatsby_spanish.wav,,,,,,,,,0,0,0,0,0,1,1,71,96.8297394675,9.30088572204e-06,99.3069662008,2.4772363549,,,,,z,1,2.46739029337,2018_Dec_04_1106,59.9854941959,spanish_cond2,001,1072,
images\squirrel.jpg,binder,x,sounds\greatgatsby_spanish.wav,,,,,,,,,0,0,0,0,0,2,2,132,100.480657781,9.94227593765e-06,103.474500946,2.99385406915,,,,,None,0,,2018_Dec_04_1106,59.9854941959,spanish_cond2,001,1072,
images\raisin.jpg,ruler,x,sounds\greatgatsby_spanish.wav,,,,,,,,,0,0,0,0,0,3,3,218,104.614552351,8.98010330275e-06,105.591829116,0.977286386944,,,,,x,1,0.967137887841,2018_Dec_04_1106,59.9854941959,spanish_cond2,001,1072,
images\bottleofredwine02.jpg,pipe,x,sounds\greatgatsby_spanish.wav,,,,,,,,,0,0,0,0,0,4,4,213,106.78355278,8.98010330275e-06,107.775700305,0.992157467699,,,,,x,1,0.983811086451,2018_Dec_04_1106,59.9854941959,spanish_cond2,001,1072,
images\lemon02.jpg,lemon,z,sounds\greatgatsby_spanish.wav,,,,,,,,,0,0,0,0,0,5,5,14,108.974669644,8.98010330275e-06,109.926218362,0.951558339642,,,,,z,1,0.933795339195,2018_Dec_04_1106,59.9854941959,spanish_cond2,001,1072,
images\cloud.jpg,ceiling fan,x,sounds\greatgatsby_spanish.wav,,,,,,,,,0,0,0,0,0,6,6,149,111.070391001,1.02630001493e-05,112.226624263,1.15624416695,,,,,x,1,1.13360912999,2018_Dec_04_1106,59.9854941959,spanish_cond2,001,1072,
images\clothespin02a.jpg,clothes pin,z,sounds\greatgatsby_spanish.wav,,,,,,,,,0,0,0,0,0,7,7,79,113.40673631,8.98010330275e-06,115.644291305,2.23756429605,,,,,z,1,2.21746004972,2018_Dec_04_1106,59.9854941959,spanish_cond2,001,1072,
images\dryingmachine01.jpg,drying machine,z,sounds\greatgatsby_spanish.wav,,,,,,,,,0,0,0,0,0,8,8,18,116.844328316,9.62155172601e-06,118.428305919,1.58398722514,,,,,z,1,1.567298632,2018_Dec_04_1106,59.9854941959,spanish_cond2,001,1072,
images\bench02.jpg,electric toothbrush,x,sounds\greatgatsby_spanish.wav,,,,,,,,,0,0,0,0,0,9,9,172,119.607011294,8.98016151041e-06,121.745763147,2.13876115379,,,,,x,1,2.11739520036,2018_Dec_04_1106,59.9854941959,spanish_cond2,001,1072,
images\rhinoceros01.jpg,envelope,x,sounds\greatgatsby_spanish.wav,,,,,,,,,0,0,0,0,0,10,10,173,122.860362643,9.30082751438e-06,124.279874458,1.4195214365,,,,,x,1,1.4007430409,2018_Dec_04_1106,59.9854941959,spanish_cond2,001,1072,
images\graduationcap.jpg,graduation cap,z,sounds\greatgatsby_spanish.wav,,,,,,,,,0,0,0,0,0,11,11,35,125.419163515,9.30088572204e-06,126.313387629,0.894233735919,,,,,z,1,0.883628533455,2018_Dec_04_1106,59.9854941959,spanish_cond2,001,1072,
images\bus.jpg,microphone,x,sounds\greatgatsby_spanish.wav,,,,,,,,,0,0,0,0,0,12,12,203,127.508367869,9.62155172601e-06,129.481017627,1.97266002098,,,,,x,1,1.95074884588,2018_Dec_04_1106,59.9854941959,spanish_cond2,001,1072,
images\leek.jpg,donut,x,sounds\greatgatsby_spanish.wav,,,,,,,,,0,0,0,0,0,13,13,169,130.649829795,9.94227593765e-06,131.464793114,0.814973261673,,,,,x,1,0.800430596806,2018_Dec_04_1106,59.9854941959,spanish_cond2,001,1072,
images\charcoalbarbecue.jpg,charcoal barbecue,z,sounds\greatgatsby_spanish.wav,,,,,,,,,0,0,0,0,0,14,14,77,132.657323064,8.98010330275e-06,134.565560016,1.90824689431,,,,,z,1,1.88403937395,2018_Dec_04_1106,59.9854941959,spanish_cond2,001,1072,
images\coin01b.jpg,arrow,x,sounds\greatgatsby_spanish.wav,,,,,,,,,0,0,0,0,0,15,15,124,135.740532226,9.62155172601e-06,138.133101112,2.39257946931,,,,,x,1,2.36749831145,2018_Dec_04_1106,59.9854941959,spanish_cond2,001,1072,
images\butterfly.jpg,butterfly,z,sounds\greatgatsby_spanish.wav,,,,,,,,,0,0,0,0,0,16,16,91,139.280140013,8.98010330275e-06,140.10024381,0.820114060363,,,,,z,1,0.800443746266,2018_Dec_04_1106,59.9854941959,spanish_cond2,001,1072,
images\tape01a.jpg,tie,x,sounds\greatgatsby_spanish.wav,,,,,,,,,0,0,0,0,0,17,17,232,141.25668554,8.98016151041e-06,143.084306661,1.82763074257,,,,,x,1,1.8173616532,2018_Dec_04_1106,59.9854941959,spanish_cond2,001,1072,
images\candle08a.jpg,screw driver,x,sounds\greatgatsby_spanish.wav,,,,,,,,,0,0,0,0,0,18,18,221,144.267679774,8.98010330275e-06,146.168386894,1.90071706264,,,,,x,1,1.88403841184,2018_Dec_04_1106,59.9854941959,spanish_cond2,001,1072,
images\flipflop01b.jpg,flip flop,z,sounds\greatgatsby_spanish.wav,,,,,,,,,0,0,0,0,0,19,19,27,147.316679485,9.30082751438e-06,148.735673339,1.41900379665,,,,,z,1,1.40058139875,2018_Dec_04_1106,59.9854941959,spanish_cond2,001,1072,
images\globe.jpg,cloud,x,sounds\greatgatsby_spanish.wav,,,,,,,,,0,0,0,0,0,20,20,154,149.938817151,9.62155172601e-06,150.619458383,0.680650532828,,,,,x,1,0.667065533751,2018_Dec_04_1106,59.9854941959,spanish_cond2,001,1072,
images\banjo.jpg,knife,x,sounds\greatgatsby_spanish.wav,,,,,,,,,0,0,0,0,0,21,21,191,151.780975164,9.30082751438e-06,153.270119481,1.48915425857,,,,,x,1,1.4672735518,2018_Dec_04_1106,59.9854941959,spanish_cond2,001,1072,
images\bat.jpg,hand,x,sounds\greatgatsby_spanish.wav,,,,,,,,,0,0,0,0,0,22,22,185,154.44049483,9.62160993367e-06,155.43730368,0.996818792075,,,,,x,1,0.983809803613,2018_Dec_04_1106,59.9854941959,spanish_cond2,001,1072,
images\mattress.jpg,cat,x,sounds\greatgatsby_spanish.wav,,,,,,,,,0,0,0,0,0,23,23,147,156.610824638,8.98010330275e-06,157.871232118,1.26041710097,,,,,x,1,1.2505517964,2018_Dec_04_1106,59.9854941959,spanish_cond2,001,1072,
images\highlighter03b.jpg,coin,x,sounds\greatgatsby_spanish.wav,,,,,,,,,0,0,0,0,0,24,24,156,159.046440697,8.98010330275e-06,160.10520661,1.0587755348,,,,,x,1,1.05051606835,2018_Dec_04_1106,59.9854941959,spanish_cond2,001,1072,
images\treadmill.jpg,lily,x,sounds\greatgatsby_spanish.wav,,,,,,,,,0,0,0,0,0,25,25,199,161.250863535,9.62155172601e-06,163.38924143,2.13838783733,,,,,x,1,2.11742631008,2018_Dec_04_1106,59.9854941959,spanish_cond2,001,1072,
images\razor04a.jpg,razor,z,sounds\greatgatsby_spanish.wav,,,,,,,,,0,0,0,0,0,26,26,36,164.562010944,9.30088572204e-06,165.373075929,0.811074926925,,,,,z,1,0.800454650715,2018_Dec_04_1106,59.9854941959,spanish_cond2,001,1072,
images\binder03b.jpg,dj mixer,x,sounds\greatgatsby_spanish.wav,,,,,,,,,0,0,0,0,0,27,27,167,166.567736092,9.30082751438e-06,167.740297139,1.17257066874,,,,,x,1,1.15051933966,2018_Dec_04_1106,59.9854941959,spanish_cond2,001,1072,
images\swan.jpg,swan,z,sounds\greatgatsby_spanish.wav,,,,,,,,,0,0,0,0,0,28,28,54,168.911346319,9.62155172601e-06,170.174221728,1.26288535143,,,,,z,1,1.25053511903,2018_Dec_04_1106,59.9854941959,spanish_cond2,001,1072,
images\tissuebox03.jpg,tissue box,z,sounds\greatgatsby_spanish.wav,,,,,,,,,0,0,0,0,0,29,29,58,171.328226958,8.98010330275e-06,172.208048562,0.879831225029,,,,,z,1,0.867117297661,2018_Dec_04_1106,59.9854941959,spanish_cond2,001,1072,
images\magnifyingglass01b.jpg,magnifying glass,z,sounds\greatgatsby_spanish.wav,,,,,,,,,0,0,0,0,0,30,30,64,173.349218633,9.94227593765e-06,175.9256462,2.57643750892,,,,,z,1,2.56755520694,2018_Dec_04_1106,59.9854941959,spanish_cond2,001,1072,
images\safe.jpg,safe,z,sounds\greatgatsby_spanish.wav,,,,,,,,,0,0,0,0,0,31,31,78,177.110984677,9.62155172601e-06,178.29285843,1.18188401661,,,,,z,1,1.16717233305,2018_Dec_04_1106,59.9854941959,spanish_cond2,001,1072,
images\mirror02.jpg,8 ball,x,sounds\greatgatsby_spanish.wav,,,,,,,,,0,0,0,0,0,32,32,121,179.461507031,9.30082751438e-06,180.276680101,0.81518237025,,,,,x,1,0.800429313967,2018_Dec_04_1106,59.9854941959,spanish_cond2,001,1072,
images\corn01.jpg,corn,z,sounds\greatgatsby_spanish.wav,,,,,,,,,0,0,0,0,0,33,33,22,181.449363341,9.30082751438e-06,184.144303813,2.69495041366,,,,,z,1,2.68424065696,2018_Dec_04_1106,59.9854941959,spanish_cond2,001,1072,
images\apricot.jpg,apricot,z,sounds\greatgatsby_spanish.wav,,,,,,,,,0,0,0,0,0,34,34,32,185.333893736,9.30082751438e-06,186.128106881,0.794223408739,,,,,z,1,0.783754191012,2018_Dec_04_1106,59.9854941959,spanish_cond2,001,1072,
images\swallow.jpg,mattress,x,sounds\greatgatsby_spanish.wav,,,,,,,,,0,0,0,0,0,35,35,202,187.30264997,9.62155172601e-06,188.91236877,1.60972874257,,,,,x,1,1.6008849268,2018_Dec_04_1106,59.9854941959,spanish_cond2,001,1072,
images\marker01a.jpg,marker,z,sounds\greatgatsby_spanish.wav,,,,,,,,,0,0,0,0,0,36,36,95,190.09077299,9.62155172601e-06,192.062896128,1.97213500453,,,,,z,1,1.95072735776,2018_Dec_04_1106,59.9854941959,spanish_cond2,001,1072,
images\dresser02.jpg,dresser,z,sounds\greatgatsby_spanish.wav,,,,,,,,,0,0,0,0,0,37,37,87,193.254599907,9.30082751438e-06,196.247101506,2.99251282396,,,,,None,0,,2018_Dec_04_1106,59.9854941959,spanish_cond2,001,1072,
images\djmixer01.jpg,light bulb,x,sounds\greatgatsby_spanish.wav,,,,,,,,,0,0,0,0,0,38,38,196,197.441556409,8.98010330275e-06,198.231053067,0.789505637891,,,,,x,1,0.767098631884,2018_Dec_04_1106,59.9854941959,spanish_cond2,001,1072,
images\electrictoothbrush01a.jpg,banjo,x,sounds\greatgatsby_spanish.wav,,,,,,,,,0,0,0,0,0,39,39,127,199.396187554,9.62155172601e-06,200.38156952,0.985392229224,,,,,x,1,0.967134039267,2018_Dec_04_1106,59.9854941959,spanish_cond2,001,1072,
images\masquerademask02b.jpg,mirror,x,sounds\greatgatsby_spanish.wav,,,,,,,,,0,0,0,0,0,40,40,204,201.57414854,8.65943729877e-06,202.41541688,0.841277961095,,,,,x,1,0.817116303486,2018_Dec_04_1106,59.9854941959,spanish_cond2,001,1072,
images\scooter.jpg,pen,x,sounds\greatgatsby_spanish.wav,,,,,,,,,0,0,0,0,0,41,41,212,203.595417316,9.62155172601e-06,204.916015341,1.32060796703,,,,,x,1,1.30055728066,2018_Dec_04_1106,59.9854941959,spanish_cond2,001,1072,
images\8ball.jpg,nail clipper,x,sounds\greatgatsby_spanish.wav,,,,,,,,,0,0,0,0,0,42,42,206,206.054039162,9.62155172601e-06,208.600241245,2.54621202452,,,,,x,1,2.53418283141,2018_Dec_04_1106,59.9854941959,spanish_cond2,001,1072,
images\plate01b.jpg,plate,z,sounds\greatgatsby_spanish.wav,,,,,,,,,0,0,0,0,0,43,43,3,209.785588381,9.30082751438e-06,210.567381377,0.781802618178,,,,,z,1,0.767086444597,2018_Dec_04_1106,59.9854941959,spanish_cond2,001,1072,
images\bowl02b (1).jpg,bowl,z,sounds\greatgatsby_spanish.wav,,,,,,,,,0,0,0,0,0,44,44,24,211.748426073,9.30082751438e-06,214.234949798,2.48653302534,,,,,z,1,2.46751024219,2018_Dec_04_1106,59.9854941959,spanish_cond2,001,1072,
images\bracelet02a.jpg,chess knight,x,sounds\greatgatsby_spanish.wav,,,,,,,,,0,0,0,0,0,45,45,152,215.413047731,9.30082751438e-06,218.402479412,2.98944130173,,,,,None,0,,2018_Dec_04_1106,59.9854941959,spanish_cond2,001,1072,
images\stapler03a.jpg,candy cane,x,sounds\greatgatsby_spanish.wav,,,,,,,,,0,0,0,0,0,46,46,145,219.605912512,9.30082751438e-06,220.553166808,0.94726391742,,,,,x,1,0.93381105439,2018_Dec_04_1106,59.9854941959,spanish_cond2,001,1072,
images\hanger02a.jpg,hanger,z,sounds\greatgatsby_spanish.wav,,,,,,,,,0,0,0,0,0,47,47,88,221.728972886,9.30082751438e-06,222.520318166,0.791355863563,,,,,x,0,0.767111781344,2018_Dec_04_1106,59.9854941959,spanish_cond2,001,1072,
images\fork01.jpg,cooking pot,x,sounds\greatgatsby_spanish.wav,,,,,,,,,0,0,0,0,0,48,48,160,223.676130645,9.30082751438e-06,225.370997031,1.69487536553,,,,,x,1,1.68398664781,2018_Dec_04_1106,59.9854941959,spanish_cond2,001,1072,
images\pipe.jpg,icecube,x,sounds\greatgatsby_spanish.wav,,,,,,,,,0,0,0,0,0,49,49,188,226.556763026,8.65943729877e-06,227.504861774,0.948107728153,,,,,x,1,0.933814582299,2018_Dec_04_1106,59.9854941959,spanish_cond2,001,1072,
images\pen03c.jpg,pepper,x,sounds\greatgatsby_spanish.wav,,,,,,,,,0,0,0,0,0,50,50,211,228.691963241,8.98010330275e-06,231.105785507,2.41383188829,,,,,x,1,2.40088383638,2018_Dec_04_1106,59.9854941959,spanish_cond2,001,1072,
images\lollipop03b.jpg,lollipop,z,sounds\greatgatsby_spanish.wav,,,,,,,,,0,0,0,0,0,51,51,42,232.281392419,9.30082751438e-06,233.006186341,0.724803543766,,,,,z,1,0.70041257242,2018_Dec_04_1106,59.9854941959,spanish_cond2,001,1072,
images\diaper01a.jpg,camera,x,sounds\greatgatsby_spanish.wav,,,,,,,,,0,0,0,0,0,52,52,143,234.189826292,9.62155172601e-06,235.040011251,0.85019457998,,,,,x,1,0.833775390522,2018_Dec_04_1106,59.9854941959,spanish_cond2,001,1072,
images\drink.jpg,drink,z,sounds\greatgatsby_spanish.wav,,,,,,,,,0,0,0,0,0,53,53,117,236.214682947,9.62155172601e-06,238.207465816,1.99279345269,,,,,z,1,1.98406990641,2018_Dec_04_1106,59.9854941959,spanish_cond2,001,1072,
images\giraffe.jpg,lettuce,x,sounds\greatgatsby_spanish.wav,,,,,,,,,0,0,0,0,0,54,54,195,239.379182732,8.98016151041e-06,240.824749086,1.44557565468,,,,,x,1,1.43391977804,2018_Dec_04_1106,59.9854941959,spanish_cond2,001,1072,
images\donut.jpg,rhinoceros,x,sounds\greatgatsby_spanish.wav,,,,,,,,,0,0,0,0,0,55,55,216,242.023458322,8.98010330275e-06,243.22535967,1.20191161125,,,,,x,1,1.18388209358,2018_Dec_04_1106,59.9854941959,spanish_cond2,001,1072,
images\antelope.jpg,antelope,z,sounds\greatgatsby_spanish.wav,,,,,,,,,0,0,0,0,0,56,56,12,244.347050255,9.62155172601e-06,246.859550583,2.51251059171,,,,,z,1,2.50082007749,2018_Dec_04_1106,59.9854941959,spanish_cond2,001,1072,
images\corkscrew02a.jpg,masquerade mask,x,sounds\greatgatsby_spanish.wav,,,,,,,,,0,0,0,0,0,57,57,201,248.037580845,8.98016151041e-06,249.076758228,1.03918764542,,,,,x,1,1.0171404857,2018_Dec_04_1106,59.9854941959,spanish_cond2,001,1072,
images\knife04.jpg,tooth brush,x,sounds\greatgatsby_spanish.wav,,,,,,,,,0,0,0,0,0,58,58,233,250.237904258,9.62155172601e-06,251.260637114,1.02274311916,,,,,x,1,1.00049198238,2018_Dec_04_1106,59.9854941959,spanish_cond2,001,1072,
images\peach01.jpg,peach,z,sounds\greatgatsby_spanish.wav,,,,,,,,,0,0,0,0,0,59,59,106,252.517364668,9.30082751438e-06,254.194687424,1.67733237799,,,,,z,1,1.66732018429,2018_Dec_04_1106,59.9854941959,spanish_cond2,001,1072,
images\beachumbrella01.jpg,beach umbrella,z,sounds\greatgatsby_spanish.wav,,,,,,,,,0,0,0,0,0,60,60,92,255.348491564,9.62155172601e-06,256.545273923,1.19679294212,,,,,z,1,1.1838865836,2018_Dec_04_1106,59.9854941959,spanish_cond2,001,1072,
images\handbag02a.jpg,candle,x,sounds\greatgatsby_spanish.wav,,,,,,,,,0,0,0,0,0,61,61,144,257.687750602,9.62155172601e-06,259.31242868,1.62468866241,,,,,x,1,1.60046446469,2018_Dec_04_1106,59.9854941959,spanish_cond2,001,1072,
images\aquarium.jpg,computer mouse,x,sounds\greatgatsby_spanish.wav,,,,,,,,,0,0,0,0,0,62,62,159,260.479213264,9.62155172601e-06,262.830105728,2.35090240597,,,,,x,1,2.33412337018,2018_Dec_04_1106,59.9854941959,spanish_cond2,001,1072,
images\gamecontroller01.jpg,game controller,z,sounds\greatgatsby_spanish.wav,,,,,,,,,0,0,0,0,0,63,63,112,264.035644988,9.94227593765e-06,265.080656242,1.04502055486,,,,,z,1,1.03380598704,2018_Dec_04_1106,59.9854941959,spanish_cond2,001,1072,
images\bullet (2).jpg,rubber glove,x,sounds\greatgatsby_spanish.wav,,,,,,,,,0,0,0,0,0,64,64,217,266.229673015,8.65937909111e-06,268.13140419,1.90174015507,,,,,x,1,1.88403648749,2018_Dec_04_1106,59.9854941959,spanish_cond2,001,1072,
images\panda.jpg,panda,z,sounds\greatgatsby_spanish.wav,,,,,,,,,0,0,0,0,0,65,65,83,269.324003094,8.98010330275e-06,270.165232306,0.841238833382,,,,,x,0,0.817109568394,2018_Dec_04_1106,59.9854941959,spanish_cond2,001,1072,
images\chessknight02b (1).jpg,cockroach,x,sounds\greatgatsby_spanish.wav,,,,,,,,,0,0,0,0,0,66,66,155,271.349314207,8.98010330275e-06,272.382430329,1.03312606359,,,,,x,1,1.01713663701,2018_Dec_04_1106,59.9854941959,spanish_cond2,001,1072,
images\broom02.jpg,broom,z,sounds\greatgatsby_spanish.wav,,,,,,,,,0,0,0,0,0,67,67,116,273.529453515,8.98010330275e-06,274.482958296,0.953515043948,,,,,z,1,0.933808809379,2018_Dec_04_1106,59.9854941959,spanish_cond2,001,1072,
images\cola.jpg,comb,x,sounds\greatgatsby_spanish.wav,,,,,,,,,0,0,0,0,0,68,68,157,275.671696069,9.30082751438e-06,278.083836808,2.41215068131,,,,,x,1,2.40083540784,2018_Dec_04_1106,59.9854941959,spanish_cond2,001,1072,
images\wallet01.jpg,lamp,x,sounds\greatgatsby_spanish.wav,,,,,,,,,0,0,0,0,0,69,69,193,279.227645431,8.98010330275e-06,280.634442678,1.4068062263,,,,,x,1,1.38389472984,2018_Dec_04_1106,59.9854941959,spanish_cond2,001,1072,
images\belt02a.jpg,snowman,x,sounds\greatgatsby_spanish.wav,,,,,,,,,0,0,0,0,0,70,70,224,281.820910725,9.94227593765e-06,283.451823895,1.63092375302,,,,,x,1,1.61732560443,2018_Dec_04_1106,59.9854941959,spanish_cond2,001,1072,
images\blackolive.jpg,tank,x,sounds\greatgatsby_spanish.wav,,,,,,,,,0,0,0,0,0,71,71,229,284.636042422,8.65937909111e-06,286.419190455,1.78315701289,,,,,x,1,1.76733981224,2018_Dec_04_1106,59.9854941959,spanish_cond2,001,1072,
images\bowtie.jpg,bowtie,z,sounds\greatgatsby_spanish.wav,,,,,,,,,0,0,0,0,0,72,72,89,287.607725534,8.98010330275e-06,290.603389098,2.99567350588,,,,,None,0,,2018_Dec_04_1106,59.9854941959,spanish_cond2,001,1072,
images\kiwi03.jpg,backpack,x,sounds\greatgatsby_spanish.wav,,,,,,,,,0,0,0,0,0,73,73,125,291.801191983,8.98010330275e-06,292.854115044,1.05293300381,,,,,x,1,1.03384960478,2018_Dec_04_1106,59.9854941959,spanish_cond2,001,1072,
images\cigar.jpg,crocodile,x,sounds\greatgatsby_spanish.wav,,,,,,,,,0,0,0,0,0,74,74,162,293.995069593,9.30082751438e-06,295.421402451,1.42634312145,,,,,x,1,1.41727223684,2018_Dec_04_1106,59.9854941959,spanish_cond2,001,1072,
images\dragonfly02.jpg,dragon fly,z,sounds\greatgatsby_spanish.wav,,,,,,,,,0,0,0,0,0,75,75,29,296.589656568,9.30088572204e-06,299.138946529,2.54929990333,,,,,z,1,2.53417673777,2018_Dec_04_1106,59.9854941959,spanish_cond2,001,1072,
images\tie01.jpg,bench,x,sounds\greatgatsby_spanish.wav,,,,,,,,,0,0,0,0,0,76,76,130,300.305139388,8.98016151041e-06,301.389341494,1.08421204891,,,,,x,1,1.06701158889,2018_Dec_04_1106,59.9854941959,spanish_cond2,001,1072,
images\bed.jpg,bed,z,sounds\greatgatsby_spanish.wav,,,,,,,,,0,0,0,0,0,77,77,103,302.587984341,9.94227593765e-06,303.906775437,1.31880103832,,,,,z,1,1.30055150774,2018_Dec_04_1106,59.9854941959,spanish_cond2,001,1072,
images\cat.jpg,black olive,x,sounds\greatgatsby_spanish.wav,,,,,,,,,0,0,0,0,0,78,78,133,305.097628671,9.62155172601e-06,305.857251993,0.759632943955,,,,,x,1,0.750427036837,2018_Dec_04_1106,59.9854941959,spanish_cond2,001,1072,
images\basketball01.jpg,basket ball,z,sounds\greatgatsby_spanish.wav,,,,,,,,,0,0,0,0,0,79,79,33,307.06824379,9.62155172601e-06,307.940938063,0.87270421593,,,,,z,1,0.850290795555,2018_Dec_04_1106,59.9854941959,spanish_cond2,001,1072,
images\diploma01.jpg,glasses,x,sounds\greatgatsby_spanish.wav,,,,,,,,,0,0,0,0,0,80,80,179,309.111385575,8.65937909111e-06,310.60840193,1.49702565558,,,,,x,1,1.48389992554,2018_Dec_04_1106,59.9854941959,spanish_cond2,001,1072,
images\elbow.jpg,elbow,z,sounds\greatgatsby_spanish.wav,,,,,,,,,0,0,0,0,0,81,81,105,311.791996018,9.94227593765e-06,312.658933713,0.86694827897,,,,,x,0,0.850474888051,2018_Dec_04_1106,59.9854941959,spanish_cond2,001,1072,
images\eyedrops.jpg,bicycle,x,sounds\greatgatsby_spanish.wav,,,,,,,,,0,0,0,0,0,82,82,131,313.827309382,9.30082751438e-06,314.692576455,0.86527733499,,,,,x,1,0.850286946981,2018_Dec_04_1106,59.9854941959,spanish_cond2,001,1072,
images\printer03a.jpg,printer,z,sounds\greatgatsby_spanish.wav,,,,,,,,,0,0,0,0,0,83,83,72,315.879286003,8.98016151041e-06,316.993293453,1.11401739193,,,,,z,1,1.10050295095,2018_Dec_04_1106,59.9854941959,spanish_cond2,001,1072,
images\atm.jpg,atm,z,sounds\greatgatsby_spanish.wav,,,,,,,,,0,0,0,0,0,84,84,96,318.157954559,9.30082751438e-06,319.493905063,1.33596012567,,,,,z,1,1.31722566852,2018_Dec_04_1106,59.9854941959,spanish_cond2,001,1072,
images\pepper05a.jpg,lighter,x,sounds\greatgatsby_spanish.wav,,,,,,,,,0,0,0,0,0,85,85,198,320.722152484,9.30088572204e-06,321.794478701,1.07233648002,,,,,x,1,1.05049041082,2018_Dec_04_1106,59.9854941959,spanish_cond2,001,1072,
images\ant.jpg,ant,z,sounds\greatgatsby_spanish.wav,,,,,,,,,0,0,0,0,0,86,86,98,322.959732816,9.30082751438e-06,323.878317433,0.918594559713,,,,,z,1,0.900466260733,2018_Dec_04_1106,59.9854941959,spanish_cond2,001,1072,
images\tent.jpg,tent,z,sounds\greatgatsby_spanish.wav,,,,,,,,,0,0,0,0,0,87,87,11,325.07135444,9.30082751438e-06,325.74542543,0.674080291297,,,,,z,1,0.650392335083,2018_Dec_04_1106,59.9854941959,spanish_cond2,001,1072,
images\sportshorts02.jpg,tape,x,sounds\greatgatsby_spanish.wav,,,,,,,,,0,0,0,0,0,88,88,230,326.928240813,8.98010330275e-06,328.829525227,1.90129403549,,,,,x,1,1.88402814884,2018_Dec_04_1106,59.9854941959,spanish_cond2,001,1072,
images\chameleon.jpg,50 dollar bill,x,sounds\greatgatsby_spanish.wav,,,,,,,,,0,0,0,0,0,89,89,120,330.02091374,9.30082751438e-06,331.146757631,1.12585383316,,,,,x,1,1.11719154409,2018_Dec_04_1106,59.9854941959,spanish_cond2,001,1072,
images\croissant02b.jpg,croissant,z,sounds\greatgatsby_spanish.wav,,,,,,,,,0,0,0,0,0,90,90,39,332.290156055,8.65943729877e-06,333.113889746,0.823743312212,,,,,z,1,0.800421937427,2018_Dec_04_1106,59.9854941959,spanish_cond2,001,1072,
images\carrot02.jpg,corkscrew,x,sounds\greatgatsby_spanish.wav,,,,,,,,,0,0,0,0,0,91,91,161,334.287209934,9.30088572204e-06,335.514469862,1.22726922855,,,,,x,1,1.21719930548,2018_Dec_04_1106,59.9854941959,spanish_cond2,001,1072,
images\bowlingball.jpg,bowling ball,z,sounds\greatgatsby_spanish.wav,,,,,,,,,0,0,0,0,0,92,92,20,336.674984397,9.30082751438e-06,339.315412005,2.64043787075,,,,,z,1,2.61756004975,2018_Dec_04_1106,59.9854941959,spanish_cond2,001,1072,
images\dreamcatcher.jpg,dream catcher,z,sounds\greatgatsby_spanish.wav,,,,,,,,,0,0,0,0,0,93,93,48,340.478779653,9.62155172601e-06,341.299219563,0.820449852734,,,,,z,1,0.800441821979,2018_Dec_04_1106,59.9854941959,spanish_cond2,001,1072,
images\hat05.jpg,hat,z,sounds\greatgatsby_spanish.wav,,,,,,,,,0,0,0,0,0,94,94,15,342.473000624,9.30082751438e-06,345.250215363,2.77722435998,,,,,z,1,2.76760793303,2018_Dec_04_1106,59.9854941959,spanish_cond2,001,1072,
images\key03b.jpg,cigar,x,sounds\greatgatsby_spanish.wav,,,,,,,,,0,0,0,0,0,95,95,153,346.419990648,9.62160993367e-06,347.367353026,0.947372320341,,,,,x,1,0.933799829276,2018_Dec_04_1106,59.9854941959,spanish_cond2,001,1072,
images\scissors04a.jpg,leek,x,sounds\greatgatsby_spanish.wav,,,,,,,,,0,0,0,0,0,96,96,194,348.548297978,9.62155172601e-06,349.784613075,1.23632503935,,,,,x,1,1.21720604051,2018_Dec_04_1106,59.9854941959,spanish_cond2,001,1072,
images\toothbrush03a.jpg,parrot,x,sounds\greatgatsby_spanish.wav,,,,,,,,,0,0,0,0,0,97,97,210,350.904751703,9.62155172601e-06,351.701756063,0.797014622833,,,,,x,1,0.783779207035,2018_Dec_04_1106,59.9854941959,spanish_cond2,001,1072,
images\lightbulb03b.jpg,treadmill,x,sounds\greatgatsby_spanish.wav,,,,,,,,,0,0,0,0,0,98,98,234,352.869459506,9.30088572204e-06,355.119239653,2.24979041039,,,,,x,1,2.23411176016,2018_Dec_04_1106,59.9854941959,spanish_cond2,001,1072,
images\lock02a.jpg,lock,z,sounds\greatgatsby_spanish.wav,,,,,,,,,0,0,0,0,0,99,99,65,356.272523587,9.30088572204e-06,357.73654858,1.46403461456,,,,,z,1,1.45059329737,2018_Dec_04_1106,59.9854941959,spanish_cond2,001,1072,
images\straw.jpg,straw,z,sounds\greatgatsby_spanish.wav,,,,,,,,,0,0,0,0,0,100,100,109,358.906435155,9.30082751438e-06,359.803719887,0.897294353636,,,,,z,1,0.883786968421,2018_Dec_04_1106,59.9854941959,spanish_cond2,001,1072,
images\broadsword.jpg,teapot,x,sounds\greatgatsby_spanish.wav,,,,,,,,,0,0,0,0,0,101,101,231,360.959423964,9.62155172601e-06,361.620831059,0.661416396033,,,,,x,1,0.650387203554,2018_Dec_04_1106,59.9854941959,spanish_cond2,001,1072,
images\pingpongpaddle01c (1).jpg,ping pong paddle,z,sounds\greatgatsby_spanish.wav,,,,,,,,,0,0,0,0,0,102,102,10,362.811054401,9.62155172601e-06,363.754696764,0.943652625836,,,,,z,1,0.933797263482,2018_Dec_04_1106,59.9854941959,spanish_cond2,001,1072,
images\lily.jpg,kiwi,x,sounds\greatgatsby_spanish.wav,,,,,,,,,0,0,0,0,0,103,103,190,364.947774501,9.30082751438e-06,365.938545823,0.990780943423,,,,,x,1,0.967142377864,2018_Dec_04_1106,59.9854941959,spanish_cond2,001,1072,
images\cookingpot.jpg,grasshopper,x,sounds\greatgatsby_spanish.wav,,,,,,,,,0,0,0,0,0,104,104,183,367.136488862,8.98010330275e-06,368.58918415,1.45270555018,,,,,x,1,1.43391143932,2018_Dec_04_1106,59.9854941959,spanish_cond2,001,1072,
images\ear.jpg,bullet,x,sounds\greatgatsby_spanish.wav,,,,,,,,,0,0,0,0,0,105,105,139,369.77020864,9.30082751438e-06,370.706382429,0.936184372113,,,,,x,1,0.917139459343,2018_Dec_04_1106,59.9854941959,spanish_cond2,001,1072,
images\licenseplate.jpg,license plate,z,sounds\greatgatsby_spanish.wav,,,,,,,,,0,0,0,0,0,106,106,40,371.92410226,9.30082751438e-06,372.990274529,1.06618188979,,,,,z,1,1.05049842881,2018_Dec_04_1106,59.9854941959,spanish_cond2,001,1072,
images\skateboard.jpg,key,x,sounds\greatgatsby_spanish.wav,,,,,,,,,0,0,0,0,0,107,107,189,374.110231629,9.30082751438e-06,375.274141613,1.16391960479,,,,,x,1,1.15051292529,2018_Dec_04_1106,59.9854941959,spanish_cond2,001,1072,
images\axe01.jpg,axe,z,sounds\greatgatsby_spanish.wav,,,,,,,,,0,0,0,0,0,108,108,104,376.401763247,9.30082751438e-06,378.941709071,2.53995544574,,,,,z,1,2.51751797146,2018_Dec_04_1106,59.9854941959,spanish_cond2,001,1072,
images\cocktailshrimp01.jpg,cocktail shrimp,z,sounds\greatgatsby_spanish.wav,,,,,,,,,0,0,0,0,0,109,109,30,380.136818882,8.65937909111e-06,381.008873001,0.872063420189,,,,,z,1,0.850437043293,2018_Dec_04_1106,59.9854941959,spanish_cond2,001,1072,
images\flamingo.jpg,flamingo,z,sounds\greatgatsby_spanish.wav,,,,,,,,,0,0,0,0,0,110,110,52,382.173008129,8.98010330275e-06,384.026284494,1.85328566597,,,,,z,1,1.83402683388,2018_Dec_04_1106,59.9854941959,spanish_cond2,001,1072,
images\computermouse02a.jpg,world map,x,sounds\greatgatsby_spanish.wav,,,,,,,,,0,0,0,0,0,111,111,239,385.166946226,8.98010330275e-06,386.743615294,1.57667933078,,,,,x,1,1.5672931798,2018_Dec_04_1106,59.9854941959,spanish_cond2,001,1072,
images\triangleruler02.jpg,bottle of red wine,x,sounds\greatgatsby_spanish.wav,,,,,,,,,0,0,0,0,0,112,112,134,387.936177316,8.98010330275e-06,389.72768937,1.79152231652,,,,,x,1,1.76735713112,2018_Dec_04_1106,59.9854941959,spanish_cond2,001,1072,
images\mailbox01.jpg,mail box,z,sounds\greatgatsby_spanish.wav,,,,,,,,,0,0,0,0,0,113,113,73,390.922321631,8.98016151041e-06,393.828676606,2.90636395535,,,,,z,1,2.8842754229,2018_Dec_04_1106,59.9854941959,spanish_cond2,001,1072,
images\spoon02b.jpg,spoon,z,sounds\greatgatsby_spanish.wav,,,,,,,,,0,0,0,0,0,114,114,38,394.993428796,8.98010330275e-06,395.629117786,0.635698932456,,,,,z,1,0.617062935897,2018_Dec_04_1106,59.9854941959,spanish_cond2,001,1072,
images\saltshaker03c.jpg,salt shaker,z,sounds\greatgatsby_spanish.wav,,,,,,,,,0,0,0,0,0,115,115,63,396.810182688,9.30088572204e-06,398.579818845,1.76964577916,,,,,z,1,1.75066629291,2018_Dec_04_1106,59.9854941959,spanish_cond2,001,1072,
images\battery03b.jpg,battery,z,sounds\greatgatsby_spanish.wav,,,,,,,,,0,0,0,0,0,116,116,34,399.761727557,8.98010330275e-06,400.630322726,0.868605111376,,,,,z,1,0.85044634412,2018_Dec_04_1106,59.9854941959,spanish_cond2,001,1072,
images\cherry01.jpg,highlighter,x,sounds\greatgatsby_spanish.wav,,,,,,,,,0,0,0,0,0,117,117,187,401.812237532,9.62160993367e-06,402.664148598,0.851921329042,,,,,x,1,0.833769938268,2018_Dec_04_1106,59.9854941959,spanish_cond2,001,1072,
images\sock03.jpg,sock,z,sounds\greatgatsby_spanish.wav,,,,,,,,,0,0,0,0,0,118,118,90,403.840222155,8.98010330275e-06,404.648081237,0.807868061471,,,,,z,1,0.783879912691,2018_Dec_04_1106,59.9854941959,spanish_cond2,001,1072,
images\doorhandle.jpg,doll,x,sounds\greatgatsby_spanish.wav,,,,,,,,,0,0,0,0,0,119,119,168,405.824899824,9.62155172601e-06,407.732050502,1.90716029966,,,,,x,1,1.88403071457,2018_Dec_04_1106,59.9854941959,spanish_cond2,001,1072,
images\feather03b.jpg,feather,z,sounds\greatgatsby_spanish.wav,,,,,,,,,0,0,0,0,0,120,120,114,408.911557352,8.98010330275e-06,410.149301892,1.23775448219,,,,,z,1,1.21719834325,2018_Dec_04_1106,59.9854941959,spanish_cond2,001,1072,
images\glasses01b.jpg,calculator,x,sounds\greatgatsby_spanish.wav,,,,,,,,,0,0,0,0,0,121,121,142,411.260560141,9.62155172601e-06,413.233410028,1.97285982867,,,,,x,1,1.95073056495,2018_Dec_04_1106,59.9854941959,spanish_cond2,001,1072,
images\cake.jpg,cake,z,sounds\greatgatsby_spanish.wav,,,,,,,,,0,0,0,0,0,122,122,23,414.41460931,9.62155172601e-06,415.233923819,0.819324451149,,,,,z,1,0.800483836094,2018_Dec_04_1106,59.9854941959,spanish_cond2,001,1072,
images\flower01.jpg,bus,x,sounds\greatgatsby_spanish.wav,,,,,,,,,0,0,0,0,0,123,123,140,416.431548705,9.30088572204e-06,418.284619169,1.85308040609,,,,,x,1,1.83401592943,2018_Dec_04_1106,59.9854941959,spanish_cond2,001,1072,
images\honeycomb.jpg,honey comb,z,sounds\greatgatsby_spanish.wav,,,,,,,,,0,0,0,0,0,124,124,59,419.474267142,9.30082751438e-06,421.035307271,1.56105071265,,,,,z,1,1.55063184776,2018_Dec_04_1106,59.9854941959,spanish_cond2,001,1072,
images\lightswitch02a.jpg,fork,x,sounds\greatgatsby_spanish.wav,,,,,,,,,0,0,0,0,0,125,125,177,422.240604709,9.30088572204e-06,423.53589611,1.2953003819,,,,,x,1,1.28388247843,2018_Dec_04_1106,59.9854941959,spanish_cond2,001,1072,
images\nailclipper03a.jpg,aquarium,x,sounds\greatgatsby_spanish.wav,,,,,,,,,0,0,0,0,0,126,126,123,424.678659512,9.30082751438e-06,426.486619619,1.80797004997,,,,,x,1,1.78401461453,2018_Dec_04_1106,59.9854941959,spanish_cond2,001,1072,
images\eraser.jpg,eraser,z,sounds\greatgatsby_spanish.wav,,,,,,,,,0,0,0,0,0,127,127,110,427.668927947,8.98010330275e-06,428.837189119,1.16827079427,,,,,z,1,1.15052062256,2018_Dec_04_1106,59.9854941959,spanish_cond2,001,1072,
images\volleyball.jpg,volley ball,z,sounds\greatgatsby_spanish.wav,,,,,,,,,0,0,0,0,0,128,128,2,429.970612553,8.98010330275e-06,431.187757978,1.21715472557,,,,,z,1,1.20053059683,2018_Dec_04_1106,59.9854941959,spanish_cond2,001,1072,
images\banana04a.jpg,banana,z,sounds\greatgatsby_spanish.wav,,,,,,,,,0,0,0,0,0,129,129,118,432.372775095,9.30088572204e-06,435.371979071,2.99921423942,,,,,None,0,,2018_Dec_04_1106,59.9854941959,spanish_cond2,001,1072,
images\tank.jpg,wallet,x,sounds\greatgatsby_spanish.wav,,,,,,,,,0,0,0,0,0,130,130,237,436.556500678,9.94227593765e-06,437.672670412,1.11617967684,,,,,x,1,1.10046959622,2018_Dec_04_1106,59.9854941959,spanish_cond2,001,1072,
images\pictureframe04.jpg,picture frame,z,sounds\greatgatsby_spanish.wav,,,,,,,,,0,0,0,0,0,131,131,41,438.874453736,9.62155172601e-06,440.189948807,1.31550533389,,,,,z,1,1.30055214919,2018_Dec_04_1106,59.9854941959,spanish_cond2,001,1072,
images\medal01.jpg,medal,z,sounds\greatgatsby_spanish.wav,,,,,,,,,0,0,0,0,0,132,132,115,441.359459499,8.98016151041e-06,443.657471557,2.29802135861,,,,,z,1,2.28413424251,2018_Dec_04_1106,59.9854941959,spanish_cond2,001,1072,
images\plant01.jpg,plant,z,sounds\greatgatsby_spanish.wav,,,,,,,,,0,0,0,0,0,133,133,47,444.842193613,9.30082751438e-06,445.641275267,0.799091917288,,,,,z,1,0.783757077472,2018_Dec_04_1106,59.9854941959,spanish_cond2,001,1072,
images\radish01.jpg,raisin,x,sounds\greatgatsby_spanish.wav,,,,,,,,,0,0,0,0,0,134,134,214,446.828404637,9.30088572204e-06,448.99209172,2.16369702615,,,,,x,1,2.15076116147,2018_Dec_04_1106,59.9854941959,spanish_cond2,001,1072,
images\highheelshoe02a.jpg,high heel shoe,z,sounds\greatgatsby_spanish.wav,,,,,,,,,0,0,0,0,0,135,135,75,450.171788115,9.94227593765e-06,451.275998894,1.10422104184,,,,,z,1,1.08384899539,2018_Dec_04_1106,59.9854941959,spanish_cond2,001,1072,
images\nametag01a.jpg,name tag,z,sounds\greatgatsby_spanish.wav,,,,,,,,,0,0,0,0,0,136,136,108,452.426072114,9.30082751438e-06,453.559873675,1.13381086197,,,,,z,1,1.11717711174,2018_Dec_04_1106,59.9854941959,spanish_cond2,001,1072,
images\hairband.jpg,hairband,z,sounds\greatgatsby_spanish.wav,,,,,,,,,0,0,0,0,0,137,137,66,454.70368743,9.62155172601e-06,455.610374029,0.906696219812,,,,,z,1,0.883785685583,2018_Dec_04_1106,59.9854941959,spanish_cond2,001,1072,
images\notebook02b.jpg,notebook,z,sounds\greatgatsby_spanish.wav,,,,,,,,,0,0,0,0,0,138,138,7,456.786060158,9.30082751438e-06,458.177675547,1.39162565209,,,,,x,0,1.36721575836,2018_Dec_04_1106,59.9854941959,spanish_cond2,001,1072,
images\dolphin01.jpg,dolphin,z,sounds\greatgatsby_spanish.wav,,,,,,,,,0,0,0,0,0,139,139,99,459.376277984,9.30082751438e-06,460.628256978,1.25198861578,,,,,z,1,1.23387314554,2018_Dec_04_1106,59.9854941959,spanish_cond2,001,1072,
images\nailpolish02b.jpg,nail polish,z,sounds\greatgatsby_spanish.wav,,,,,,,,,0,0,0,0,0,140,140,94,461.768733655,1.02630001493e-05,462.795470042,1.02674697031,,,,,z,1,1.01717031252,2018_Dec_04_1106,59.9854941959,spanish_cond2,001,1072,
images\dice05a.jpg,band aid,x,sounds\greatgatsby_spanish.wav,,,,,,,,,0,0,0,0,0,141,141,126,463.977432635,8.65943729877e-06,464.812615338,0.835192004626,,,,,x,1,0.817101229681,2018_Dec_04_1106,59.9854941959,spanish_cond2,001,1072,
images\baseball01a.jpg,baseball,z,sounds\greatgatsby_spanish.wav,,,,,,,,,0,0,0,0,0,142,142,74,466.011147858,8.98010330275e-06,466.746426393,0.735288156022,,,,,z,1,0.717090261111,2018_Dec_04_1106,59.9854941959,spanish_cond2,001,1072,
images\parkfountain.jpg,park fountain,z,sounds\greatgatsby_spanish.wav,,,,,,,,,0,0,0,0,0,143,143,93,467.985251113,8.98010330275e-06,469.697136111,1.71189461951,,,,,z,1,1.70064541412,2018_Dec_04_1106,59.9854941959,spanish_cond2,001,1072,
images\candy.jpg,candy,z,sounds\greatgatsby_spanish.wav,,,,,,,,,0,0,0,0,0,144,144,31,470.87461602,9.62155172601e-06,473.19798794,2.32338186231,,,,,z,1,2.30079974391,2018_Dec_04_1106,59.9854941959,spanish_cond2,001,1072,
images\cheetah.jpg,cheetah,z,sounds\greatgatsby_spanish.wav,,,,,,,,,0,0,0,0,0,145,145,82,474.377158356,9.30088572204e-06,475.281837897,0.904689804185,,,,,z,1,0.883794344962,2018_Dec_04_1106,59.9854941959,spanish_cond2,001,1072,
images\coffeepot03b.jpg,coffee pot,z,sounds\greatgatsby_spanish.wav,,,,,,,,,0,0,0,0,0,146,146,107,476.447594899,8.65937909111e-06,477.065436219,0.617850941489,,,,,z,1,0.600222963607,2018_Dec_04_1106,59.9854941959,spanish_cond2,001,1072,
images\parrot01.jpg,chameleon,x,sounds\greatgatsby_spanish.wav,,,,,,,,,0,0,0,0,0,147,147,150,478.244673345,9.30082751438e-06,479.766251614,1.52158789069,,,,,x,1,1.5006058375,2018_Dec_04_1106,59.9854941959,spanish_cond2,001,1072,
images\handfan01b.jpg,handfan,z,sounds\greatgatsby_spanish.wav,,,,,,,,,0,0,0,0,0,148,148,69,480.957442243,8.65943729877e-06,483.833914903,2.87648196059,,,,,z,1,2.86760863865,2018_Dec_04_1106,59.9854941959,spanish_cond2,001,1072,
images\doll.jpg,carrot,x,sounds\greatgatsby_spanish.wav,,,,,,,,,0,0,0,0,0,149,149,146,485.019818807,9.30082751438e-06,486.034442934,1.01463342825,,,,,x,1,1.00048204005,2018_Dec_04_1106,59.9854941959,spanish_cond2,001,1072,
images\bicycle.jpg,hand bag,x,sounds\greatgatsby_spanish.wav,,,,,,,,,0,0,0,0,0,150,150,186,487.227224328,9.30082751438e-06,489.36860447,2.14138976356,,,,,x,1,2.1174279137,2018_Dec_04_1106,59.9854941959,spanish_cond2,001,1072,
images\seagull.jpg,seagull,z,sounds\greatgatsby_spanish.wav,,,,,,,,,0,0,0,0,0,151,151,50,490.555422422,9.30088572204e-06,493.336068529,2.7806560492,,,,,z,1,2.76742865134,2018_Dec_04_1106,59.9854941959,spanish_cond2,001,1072,
images\microphone01.jpg,diaper,x,sounds\greatgatsby_spanish.wav,,,,,,,,,0,0,0,0,0,152,152,164,494.517746002,9.62155172601e-06,495.553433966,1.03569790616,,,,,x,1,1.01715363516,2018_Dec_04_1106,59.9854941959,spanish_cond2,001,1072,
images\puzzle.jpg,puzzle,z,sounds\greatgatsby_spanish.wav,,,,,,,,,0,0,0,0,0,153,153,57,496.737269876,9.30088572204e-06,499.254332748,2.51707249333,,,,,z,1,2.50084733858,2018_Dec_04_1106,59.9854941959,spanish_cond2,001,1072,
images\lion.jpg,lion,z,sounds\greatgatsby_spanish.wav,,,,,,,,,0,0,0,0,0,154,154,44,500.443122157,8.98010330275e-06,501.071464767,0.628351910389,,,,,z,1,0.617084744794,2018_Dec_04_1106,59.9854941959,spanish_cond2,001,1072,
images\button07.jpg,radish,x,sounds\greatgatsby_spanish.wav,,,,,,,,,0,0,0,0,0,155,155,215,502.258303565,9.62155172601e-06,505.255662448,2.99736882444,,,,,None,0,,2018_Dec_04_1106,59.9854941959,spanish_cond2,001,1072,
images\pineapple01a.jpg,pineapple,z,sounds\greatgatsby_spanish.wav,,,,,,,,,0,0,0,0,0,156,156,51,506.444604198,8.98016151041e-06,508.723310599,2.27871666371,,,,,z,1,2.26746617543,2018_Dec_04_1106,59.9854941959,spanish_cond2,001,1072,
images\gorilla.jpg,gorilla,z,sounds\greatgatsby_spanish.wav,,,,,,,,,0,0,0,0,0,157,157,80,509.912317134,8.65937909111e-06,510.573755018,0.661446864309,,,,,z,1,0.650396504381,2018_Dec_04_1106,59.9854941959,spanish_cond2,001,1072,
images\aloe02.jpg,broad sword,x,sounds\greatgatsby_spanish.wav,,,,,,,,,0,0,0,0,0,158,158,137,511.779229813,9.30082751438e-06,513.791205126,2.01198493392,,,,,x,1,2.00070237374,2018_Dec_04_1106,59.9854941959,spanish_cond2,001,1072,
images\shotglass.jpg,shot glass,z,sounds\greatgatsby_spanish.wav,,,,,,,,,0,0,0,0,0,159,159,86,514.975088502,9.30082751438e-06,515.574994917,0.599916356616,,,,,z,1,0.583737706067,2018_Dec_04_1106,59.9854941959,spanish_cond2,001,1072,
images\table02.jpg,table,z,sounds\greatgatsby_spanish.wav,,,,,,,,,0,0,0,0,0,160,160,49,516.761257704,9.30082751438e-06,517.625471857,0.864223774348,,,,,z,1,0.850451154867,2018_Dec_04_1106,59.9854941959,spanish_cond2,001,1072,
images\beermug01b.jpg,beer mug,z,sounds\greatgatsby_spanish.wav,,,,,,,,,0,0,0,0,0,161,161,111,518.815314506,8.98010330275e-06,519.525931704,0.71062681888,,,,,z,1,0.700408723787,2018_Dec_04_1106,59.9854941959,spanish_cond2,001,1072,
images\apple06.jpg,apple,z,sounds\greatgatsby_spanish.wav,,,,,,,,,0,0,0,0,0,162,162,13,520.715261524,9.30088572204e-06,521.459738268,0.744486045209,,,,,z,1,0.733754479617,2018_Dec_04_1106,59.9854941959,spanish_cond2,001,1072,
images\puma.jpg,puma,z,sounds\greatgatsby_spanish.wav,,,,,,,,,0,0,0,0,0,163,163,4,522.558154303,9.62155172601e-06,523.343539989,0.785395628831,,,,,z,1,0.767104725528,2018_Dec_04_1106,59.9854941959,spanish_cond2,001,1072,
images\bandaid01.jpg,door handle,x,sounds\greatgatsby_spanish.wav,,,,,,,,,0,0,0,0,0,164,164,170,524.524729009,9.30082751438e-06,526.577657843,2.05293909746,,,,,x,1,2.03407314565,2018_Dec_04_1106,59.9854941959,spanish_cond2,001,1072,
images\boxingglove02a.jpg,bracelet,x,sounds\greatgatsby_spanish.wav,,,,,,,,,0,0,0,0,0,165,165,135,527.762765082,9.62155172601e-06,528.82821445,1.06545931078,,,,,z,0,1.05051157827,2018_Dec_04_1106,59.9854941959,spanish_cond2,001,1072,
images\headphones02b.jpg,headphones,z,sounds\greatgatsby_spanish.wav,,,,,,,,,0,0,0,0,0,166,166,101,529.973996776,8.98010330275e-06,530.995387104,1.02139994956,,,,,z,1,1.00048139866,2018_Dec_04_1106,59.9854941959,spanish_cond2,001,1072,
images\redfox.jpg,red fox,z,sounds\greatgatsby_spanish.wav,,,,,,,,,0,0,0,0,0,167,167,1,532.183346173,9.62155172601e-06,533.712732978,1.5293970682,,,,,z,1,1.51728641265,2018_Dec_04_1106,59.9854941959,spanish_cond2,001,1072,
images\bull.jpg,button,x,sounds\greatgatsby_spanish.wav,,,,,,,,,0,0,0,0,0,168,168,141,534.894633351,9.30088572204e-06,536.796799421,1.90217633243,,,,,x,1,1.88402943168,2018_Dec_04_1106,59.9854941959,spanish_cond2,001,1072,
images\crocodile.jpg,triangle ruler,x,sounds\greatgatsby_spanish.wav,,,,,,,,,0,0,0,0,0,169,169,235,537.968840262,3.14303906634e-05,540.64773903,2.67891961441,,,,,x,1,2.66754244233,2018_Dec_04_1106,59.9854941959,spanish_cond2,001,1072,
images\cockroach02.jpg,belt,x,sounds\greatgatsby_spanish.wav,,,,,,,,,0,0,0,0,0,170,170,129,541.822047352,9.30088572204e-06,544.815285,2.99324759032,,,,,None,0,,2018_Dec_04_1106,59.9854941959,spanish_cond2,001,1072,
images\leaf01a.jpg,leaf,z,sounds\greatgatsby_spanish.wav,,,,,,,,,0,0,0,0,0,171,171,68,545.992403138,9.62160993367e-06,546.765894333,0.773501137621,,,,,z,1,0.750412925263,2018_Dec_04_1106,59.9854941959,spanish_cond2,001,1072,
images\lighter02b.jpg,stapler,x,sounds\greatgatsby_spanish.wav,,,,,,,,,0,0,0,0,0,172,172,227,547.942283157,9.30082751438e-06,548.816399818,0.87412660307,,,,,x,1,0.85044634412,2018_Dec_04_1106,59.9854941959,spanish_cond2,001,1072,
images\toucan.jpg,toucan,z,sounds\greatgatsby_spanish.wav,,,,,,,,,0,0,0,0,0,173,173,81,549.98764656,8.98016151041e-06,551.033609066,1.045972127,,,,,z,1,1.03381560859,2018_Dec_04_1106,59.9854941959,spanish_cond2,001,1072,
images\showerhead01.jpg,skateboard,x,sounds\greatgatsby_spanish.wav,,,,,,,,,0,0,0,0,0,174,174,223,552.209111744,9.30082751438e-06,553.584226481,1.37512435863,,,,,x,1,1.35056982073,2018_Dec_04_1106,59.9854941959,spanish_cond2,001,1072,
images\ruler02b.jpg,watermelon,x,sounds\greatgatsby_spanish.wav,,,,,,,,,0,0,0,0,0,175,175,238,554.758298434,8.98010330275e-06,557.551858596,2.7935697842,,,,,x,1,2.78419133049,2018_Dec_04_1106,59.9854941959,spanish_cond2,001,1072,
images\sunglasses03a.jpg,sun glasses,z,sounds\greatgatsby_spanish.wav,,,,,,,,,0,0,0,0,0,176,176,17,558.734824718,8.98016151041e-06,561.319438306,2.58462321019,,,,,z,1,2.56752762513,2018_Dec_04_1106,59.9854941959,spanish_cond2,001,1072,
images\parkingmeter.jpg,ear,x,sounds\greatgatsby_spanish.wav,,,,,,,,,0,0,0,0,0,177,177,171,562.486142069,9.62155172601e-06,563.569985613,1.08385348547,,,,,x,1,1.06716040225,2018_Dec_04_1106,59.9854941959,spanish_cond2,001,1072,
,,,sounds\greatgatsby_spanish.wav,,,,,,,,,0,0,0,0,,,,,,,,,,,,,,,,2018_Dec_04_1106,59.9854941959,spanish_cond2,001,1072,
images\pictureframe04.jpg,picture frame,z,sounds\animalfarm_english.wav,,,,,,,,,0,1,1,1,0,0,0,41,584.718128107,9.62155172601e-06,587.709066523,2.99094867922,,,,574.572815954,None,0,,2018_Dec_04_1106,59.9854941959,spanish_cond2,001,1072,
images\sunglasses03a.jpg,sun glasses,z,sounds\animalfarm_english.wav,,,,,,,,,0,1,1,1,0,1,1,17,588.816442153,9.62155172601e-06,589.59298242,0.776550530165,,,,,z,1,0.767085803149,2018_Dec_04_1106,59.9854941959,spanish_cond2,001,1072,
images\doorhandle.jpg,doll,x,sounds\animalfarm_english.wav,,,,,,,,,0,1,1,1,0,2,2,168,590.694293261,9.30082751438e-06,592.577043988,1.88276131026,,,,,x,1,1.86735783663,2018_Dec_04_1106,59.9854941959,spanish_cond2,001,1072,
images\tulip02.jpg,sport shorts,x,sounds\animalfarm_english.wav,,,,,,,,,0,1,1,1,0,3,3,225,593.783032253,8.98010330275e-06,595.977874906,2.19485227379,,,,,x,1,2.18410178582,2018_Dec_04_1106,59.9854941959,spanish_cond2,001,1072,
images\aquarium.jpg,computer mouse,x,sounds\animalfarm_english.wav,,,,,,,,,0,1,1,1,0,4,4,159,597.111787115,8.98010330275e-06,599.412041316,2.30026414385,,,,,x,1,2.28412526241,2018_Dec_04_1106,59.9854941959,spanish_cond2,001,1072,
images\hat05.jpg,hat,z,sounds\animalfarm_english.wav,,,,,,,,,0,1,1,1,0,5,5,15,600.514927207,9.30082751438e-06,603.512894171,2.99797690695,,,,,None,0,,2018_Dec_04_1106,59.9854941959,spanish_cond2,001,1072,
images\ear.jpg,bullet,x,sounds\animalfarm_english.wav,,,,,,,,,0,1,1,1,0,6,6,139,604.616140228,8.98016151041e-06,605.680259256,1.06412896997,,,,,x,1,1.050522162,2018_Dec_04_1106,59.9854941959,spanish_cond2,001,1072,
images\giraffe.jpg,lettuce,x,sounds\animalfarm_english.wav,,,,,,,,,0,1,1,1,0,7,7,195,606.781060155,8.98010330275e-06,608.230878275,1.44982806279,,,,,x,1,1.43392202305,2018_Dec_04_1106,59.9854941959,spanish_cond2,001,1072,
images\key03b.jpg,cigar,x,sounds\animalfarm_english.wav,,,,,,,,,0,1,1,1,0,8,8,153,609.331598994,9.30082751438e-06,610.047965393,0.716376020748,,,,,x,1,0.700404554489,2018_Dec_04_1106,59.9854941959,spanish_cond2,001,1072,
images\volleyball.jpg,volley ball,z,sounds\animalfarm_english.wav,,,,,,,,,0,1,1,1,0,9,9,2,611.180737448,9.30082751438e-06,613.215408092,2.03468026599,,,,,z,1,2.01739481551,2018_Dec_04_1106,59.9854941959,spanish_cond2,001,1072,
images\shotglass.jpg,shot glass,z,sounds\animalfarm_english.wav,,,,,,,,,0,1,1,1,0,10,10,86,614.323731446,9.62155172601e-06,614.949180532,0.62545934919,,,,,z,1,0.61707865115,2018_Dec_04_1106,59.9854941959,spanish_cond2,001,1072,
images\computerkeyboard01a.jpg,computer keyboard,z,sounds\animalfarm_english.wav,,,,,,,,,0,1,1,1,0,11,11,61,616.140829147,9.62155172601e-06,617.199734894,1.05891536811,,,,,x,0,1.05051318184,2018_Dec_04_1106,59.9854941959,spanish_cond2,001,1072,
images\triangleruler02.jpg,bottle of red wine,x,sounds\animalfarm_english.wav,,,,,,,,,0,1,1,1,0,12,12,134,618.310291732,8.98010330275e-06,619.233626513,0.923344402399,,,,,x,1,0.900486465951,2018_Dec_04_1106,59.9854941959,spanish_cond2,001,1072,
images\sportshorts02.jpg,tape,x,sounds\animalfarm_english.wav,,,,,,,,,0,1,1,1,0,13,13,230,620.340787582,8.98010330275e-06,621.667480864,1.32670322433,,,,,x,1,1.31724427023,2018_Dec_04_1106,59.9854941959,spanish_cond2,001,1072,
images\showerhead01.jpg,skateboard,x,sounds\animalfarm_english.wav,,,,,,,,,0,1,1,1,0,14,14,223,622.774505628,8.98010330275e-06,623.451229924,0.676733917091,,,,,x,1,0.667070985946,2018_Dec_04_1106,59.9854941959,spanish_cond2,001,1072,
images\cockroach02.jpg,belt,x,sounds\animalfarm_english.wav,,,,,,,,,0,1,1,1,0,15,15,129,624.54901735,8.98010330275e-06,625.418373264,0.869364893704,,,,,x,1,0.850446985511,2018_Dec_04_1106,59.9854941959,spanish_cond2,001,1072,
images\plant01.jpg,plant,z,sounds\animalfarm_english.wav,,,,,,,,,0,1,1,1,0,16,16,47,626.529351206,9.62155172601e-06,627.418859794,0.889518530807,,,,,z,1,0.867117297719,2018_Dec_04_1106,59.9854941959,spanish_cond2,001,1072,
images\microphone01.jpg,diaper,x,sounds\animalfarm_english.wav,,,,,,,,,0,1,1,1,0,17,17,164,628.516798279,9.30082751438e-06,629.752774056,1.23598603974,,,,,x,1,1.2172153414,2018_Dec_04_1106,59.9854941959,spanish_cond2,001,1072,
images\stapler03a.jpg,candy cane,x,sounds\animalfarm_english.wav,,,,,,,,,0,1,1,1,0,18,18,145,630.862480989,9.30082751438e-06,632.086547201,1.22407679539,,,,,x,1,1.20040391304,2018_Dec_04_1106,59.9854941959,spanish_cond2,001,1072,
images\bus.jpg,microphone,x,sounds\animalfarm_english.wav,,,,,,,,,0,1,1,1,0,19,19,203,633.204859657,9.30082751438e-06,634.18717427,0.982324555691,,,,,x,1,0.967139812128,2018_Dec_04_1106,59.9854941959,spanish_cond2,001,1072,
images\aloe02.jpg,broad sword,x,sounds\animalfarm_english.wav,,,,,,,,,0,1,1,1,0,20,20,137,635.307059851,8.98010330275e-06,636.204340734,0.897290504945,,,,,x,1,0.883797231421,2018_Dec_04_1106,59.9854941959,spanish_cond2,001,1072,
images\lipstick04.jpg,lipstick,z,sounds\animalfarm_english.wav,,,,,,,,,0,1,1,1,0,21,21,56,637.382382862,9.30082751438e-06,639.005035924,1.62266236218,,,,,z,1,1.60064631217,2018_Dec_04_1106,59.9854941959,spanish_cond2,001,1072,
images\toothbrush03a.jpg,parrot,x,sounds\animalfarm_english.wav,,,,,,,,,0,1,1,1,0,22,22,210,640.096231941,9.30082751438e-06,641.222119129,1.12589777156,,,,,x,1,1.11706261517,2018_Dec_04_1106,59.9854941959,spanish_cond2,001,1072,
images\pepper05a.jpg,lighter,x,sounds\animalfarm_english.wav,,,,,,,,,0,1,1,1,0,23,23,198,642.343118886,9.30082751438e-06,643.639487582,1.29637863784,,,,,x,1,1.28389530716,2018_Dec_04_1106,59.9854941959,spanish_cond2,001,1072,
images\printer03a.jpg,printer,z,sounds\animalfarm_english.wav,,,,,,,,,0,1,1,1,0,24,24,72,644.748088036,9.30082751438e-06,645.70665087,0.958572776522,,,,,x,0,0.950471424323,2018_Dec_04_1106,59.9854941959,spanish_cond2,001,1072,
images\snowman.jpg,globe,x,sounds\animalfarm_english.wav,,,,,,,,,0,1,1,1,0,25,25,180,646.895121806,8.98010330275e-06,647.757150903,0.86203871842,,,,,x,1,0.850447947683,2018_Dec_04_1106,59.9854941959,spanish_cond2,001,1072,
images\cherry01.jpg,highlighter,x,sounds\animalfarm_english.wav,,,,,,,,,0,1,1,1,0,26,26,187,648.865633653,9.30088572204e-06,649.55743461,0.691810899181,,,,,x,1,0.683589277498,2018_Dec_04_1106,59.9854941959,spanish_cond2,001,1072,
images\toucan.jpg,toucan,z,sounds\animalfarm_english.wav,,,,,,,,,0,1,1,1,0,27,27,81,650.657420884,8.65937909111e-06,651.491386781,0.833975518879,,,,,z,1,0.817104116199,2018_Dec_04_1106,59.9854941959,spanish_cond2,001,1072,
images\butterfly.jpg,butterfly,z,sounds\animalfarm_english.wav,,,,,,,,,0,1,1,1,0,28,28,91,652.598411866,9.30088572204e-06,653.391855287,0.793453042628,,,,,z,1,0.783765095402,2018_Dec_04_1106,59.9854941959,spanish_cond2,001,1072,
images\grasshopper.jpg,cauliflower,x,sounds\animalfarm_english.wav,,,,,,,,,0,1,1,1,0,29,29,148,654.562119989,9.30082751438e-06,655.542370457,0.980259769247,,,,,x,1,0.967132435646,2018_Dec_04_1106,59.9854941959,spanish_cond2,001,1072,
images\charcoalbarbecue.jpg,charcoal barbecue,z,sounds\animalfarm_english.wav,,,,,,,,,0,1,1,1,0,30,30,77,656.658245451,8.98016151041e-06,657.80959032,1.15135449095,,,,,z,1,1.133848386,2018_Dec_04_1106,59.9854941959,spanish_cond2,001,1072,
images\apricot.jpg,apricot,z,sounds\animalfarm_english.wav,,,,,,,,,0,1,1,1,0,31,31,32,658.927510216,9.30082751438e-06,659.943443838,1.01594356378,,,,,z,1,1.00048236077,2018_Dec_04_1106,59.9854941959,spanish_cond2,001,1072,
images\camera01a.jpg,bull,x,sounds\animalfarm_english.wav,,,,,,,,,0,1,1,1,0,32,32,138,661.127963199,9.62155172601e-06,662.527407651,1.39945471421,,,,,x,1,1.38390755863,2018_Dec_04_1106,59.9854941959,spanish_cond2,001,1072,
images\binder03b.jpg,dj mixer,x,sounds\animalfarm_english.wav,,,,,,,,,0,1,1,1,0,33,33,167,663.639838768,9.30082751438e-06,664.277848478,0.638019331614,,,,,z,0,0.617070633103,2018_Dec_04_1106,59.9854941959,spanish_cond2,001,1072,
images\licenseplate.jpg,license plate,z,sounds\animalfarm_english.wav,,,,,,,,,0,1,1,1,0,34,34,40,665.395478124,9.62155172601e-06,666.211638365,0.816170824983,,,,,z,1,0.80043669045,2018_Dec_04_1106,59.9854941959,spanish_cond2,001,1072,
images\cocktailshrimp01.jpg,cocktail shrimp,z,sounds\animalfarm_english.wav,,,,,,,,,0,1,1,1,0,35,35,30,667.326305213,9.30082751438e-06,670.112600136,2.78630454541,,,,,z,1,2.76759029354,2018_Dec_04_1106,59.9854941959,spanish_cond2,001,1072,
images\dresser02.jpg,dresser,z,sounds\animalfarm_english.wav,,,,,,,,,0,1,1,1,0,36,36,87,671.234608874,9.30082751438e-06,674.23011721,2.99551795737,,,,,None,0,,2018_Dec_04_1106,59.9854941959,spanish_cond2,001,1072,
images\bicycle.jpg,hand bag,x,sounds\animalfarm_english.wav,,,,,,,,,0,1,1,1,0,37,37,186,675.339741398,9.62155172601e-06,676.630851912,1.29112077685,,,,,x,1,1.26722884364,2018_Dec_04_1106,59.9854941959,spanish_cond2,001,1072,
images\ashtray02b.jpg,ashtray,z,sounds\animalfarm_english.wav,,,,,,,,,0,1,1,1,0,38,38,43,677.823485775,9.30082751438e-06,679.114789362,1.29131352878,,,,,z,1,1.26721633557,2018_Dec_04_1106,59.9854941959,spanish_cond2,001,1072,
images\desktopcomputer.jpg,desktop computer,z,sounds\animalfarm_english.wav,,,,,,,,,0,1,1,1,0,39,39,16,680.278676895,8.98010330275e-06,682.165689009,1.88702109491,,,,,z,1,1.8675169131,2018_Dec_04_1106,59.9854941959,spanish_cond2,001,1072,
images\masquerademask02b.jpg,mirror,x,sounds\animalfarm_english.wav,,,,,,,,,0,1,1,1,0,40,40,204,683.270616594,9.62155172601e-06,685.899804298,2.62919764541,,,,,z,0,2.61758282076,2018_Dec_04_1106,59.9854941959,spanish_cond2,001,1072,
images\diaper01a.jpg,camera,x,sounds\animalfarm_english.wav,,,,,,,,,0,1,1,1,0,41,41,143,687.020006427,9.30082751438e-06,688.93384024,1.91384343413,,,,,x,1,1.90070519608,2018_Dec_04_1106,59.9854941959,spanish_cond2,001,1072,
images\beachumbrella01.jpg,beach umbrella,z,sounds\animalfarm_english.wav,,,,,,,,,0,1,1,1,0,42,42,92,690.038916959,9.62155172601e-06,690.917650043,0.878743347479,,,,,z,1,0.867110241903,2018_Dec_04_1106,59.9854941959,spanish_cond2,001,1072,
images\fryingpan01.jpg,frying pan,z,sounds\animalfarm_english.wav,,,,,,,,,0,1,1,1,0,43,43,45,692.131108166,8.98010330275e-06,693.03495416,0.903855615063,,,,,z,1,0.883907558629,2018_Dec_04_1106,59.9854941959,spanish_cond2,001,1072,
images\cloud.jpg,ceiling fan,x,sounds\animalfarm_english.wav,,,,,,,,,0,1,1,1,0,44,44,149,694.140558782,8.98010330275e-06,695.335400472,1.19485131162,,,,,x,1,1.1838583604,2018_Dec_04_1106,59.9854941959,spanish_cond2,001,1072,
images\fireextinguisher02.jpg,fire extinguisher,z,sounds\animalfarm_english.wav,,,,,,,,,0,1,1,1,0,45,45,175,696.521477243,8.98010330275e-06,697.385892165,0.864424864936,,,,,x,0,0.850440891867,2018_Dec_04_1106,59.9854941959,spanish_cond2,001,1072,
images\worldmap.jpg,scooter,x,sounds\animalfarm_english.wav,,,,,,,,,0,1,1,1,0,46,46,220,698.517362744,9.30082751438e-06,699.769821854,1.25246841082,,,,,x,1,1.23388821929,2018_Dec_04_1106,59.9854941959,spanish_cond2,001,1072,
images\flamingo.jpg,flamingo,z,sounds\animalfarm_english.wav,,,,,,,,,0,1,1,1,0,47,47,52,700.866769318,8.98010330275e-06,701.603594999,0.736834981944,,,,,z,1,0.717084167467,2018_Dec_04_1106,59.9854941959,spanish_cond2,001,1072,
images\corkscrew02a.jpg,masquerade mask,x,sounds\animalfarm_english.wav,,,,,,,,,0,1,1,1,0,48,48,201,702.707381146,9.30082751438e-06,703.554075724,0.846704519994,,,,,x,1,0.833793671452,2018_Dec_04_1106,59.9854941959,spanish_cond2,001,1072,
images\50dollarbill.jpg,cherry,x,sounds\animalfarm_english.wav,,,,,,,,,0,1,1,1,0,49,49,151,704.751122996,9.30082751438e-06,706.871538725,2.12042567058,,,,,x,1,2.10075375286,2018_Dec_04_1106,59.9854941959,spanish_cond2,001,1072,
images\cactus.jpg,cactus,z,sounds\animalfarm_english.wav,,,,,,,,,0,1,1,1,0,50,50,70,708.064763993,8.98010330275e-06,709.238777254,1.17402512766,,,,,z,1,1.15051933966,2018_Dec_04_1106,59.9854941959,spanish_cond2,001,1072,
images\seagull.jpg,seagull,z,sounds\animalfarm_english.wav,,,,,,,,,0,1,1,1,0,51,51,50,710.346416194,9.30082751438e-06,711.172585101,0.826178849384,,,,,z,1,0.817105719761,2018_Dec_04_1106,59.9854941959,spanish_cond2,001,1072,
images\boxingglove02a.jpg,bracelet,x,sounds\animalfarm_english.wav,,,,,,,,,0,1,1,1,0,52,52,135,712.283691972,9.30082751438e-06,713.206601159,0.922918808821,,,,,x,1,0.900648108218,2018_Dec_04_1106,59.9854941959,spanish_cond2,001,1072,
images\antelope.jpg,antelope,z,sounds\animalfarm_english.wav,,,,,,,,,0,1,1,1,0,53,53,12,714.309973579,8.65937909111e-06,715.156904847,0.846940889605,,,,,z,1,0.83377955982,2018_Dec_04_1106,59.9854941959,spanish_cond2,001,1072,
images\gps.jpg,gps,z,sounds\animalfarm_english.wav,,,,,,,,,0,1,1,1,0,54,54,21,716.342770265,9.94227593765e-06,717.807530345,1.46477034304,,,,,z,1,1.45059009013,2018_Dec_04_1106,59.9854941959,spanish_cond2,001,1072,
images\broom02.jpg,broom,z,sounds\animalfarm_english.wav,,,,,,,,,0,1,1,1,0,55,55,116,718.900315844,8.98010330275e-06,720.158110108,1.25780388567,,,,,z,1,1.2338808428,2018_Dec_04_1106,59.9854941959,spanish_cond2,001,1072,
images\radish01.jpg,raisin,x,sounds\animalfarm_english.wav,,,,,,,,,0,1,1,1,0,56,56,214,721.26878048,9.62155172601e-06,722.275285937,1.0065150779,,,,,x,1,0.983810765785,2018_Dec_04_1106,59.9854941959,spanish_cond2,001,1072,
images\orange.jpg,bat,x,sounds\animalfarm_english.wav,,,,,,,,,0,1,1,1,0,57,57,128,723.429102264,8.98010330275e-06,726.109555555,2.6804625917,,,,,x,1,2.66755815747,2018_Dec_04_1106,59.9854941959,spanish_cond2,001,1072,
images\ladybug03.jpg,giraffe,x,sounds\animalfarm_english.wav,,,,,,,,,0,1,1,1,0,58,58,178,727.290695183,8.98010330275e-06,728.793570426,1.50288518466,,,,,x,1,1.48395861703,2018_Dec_04_1106,59.9854941959,spanish_cond2,001,1072,
images\hanger02a.jpg,hanger,z,sounds\animalfarm_english.wav,,,,,,,,,0,1,1,1,0,59,59,88,729.886473628,9.62155172601e-06,731.210790706,1.32432669937,,,,,z,1,1.30054990412,2018_Dec_04_1106,59.9854941959,spanish_cond2,001,1072,
images\ceilingfan02.jpg,paper clip,x,sounds\animalfarm_english.wav,,,,,,,,,0,1,1,1,0,60,60,208,732.385085879,9.62155172601e-06,735.178424104,2.79334848834,,,,,x,1,2.78424617334,2018_Dec_04_1106,59.9854941959,spanish_cond2,001,1072,
images\mirror02.jpg,8 ball,x,sounds\animalfarm_english.wav,,,,,,,,,0,1,1,1,0,61,61,121,736.278620769,9.30082751438e-06,737.879083951,1.60047312407,,,,,x,1,1.58394841821,2018_Dec_04_1106,59.9854941959,spanish_cond2,001,1072,
images\handbag02a.jpg,candle,x,sounds\animalfarm_english.wav,,,,,,,,,0,1,1,1,0,62,62,144,738.995595571,8.98016151041e-06,741.613330092,2.61774414225,,,,,x,1,2.60087626742,2018_Dec_04_1106,59.9854941959,spanish_cond2,001,1072,
images\dryingmachine01.jpg,drying machine,z,sounds\animalfarm_english.wav,,,,,,,,,0,1,1,1,0,63,63,18,742.734778855,9.30082751438e-06,743.597151121,0.862381887331,,,,,z,1,0.850453079154,2018_Dec_04_1106,59.9854941959,spanish_cond2,001,1072,
images\lollipop03b.jpg,lollipop,z,sounds\animalfarm_english.wav,,,,,,,,,0,1,1,1,0,64,64,42,744.689224304,8.98010330275e-06,745.264235898,0.57502121554,,,,,z,1,0.550388101605,2018_Dec_04_1106,59.9854941959,spanish_cond2,001,1072,
images\hammer02a.jpg,flower,x,sounds\animalfarm_english.wav,,,,,,,,,0,1,1,1,0,65,65,176,746.431651335,9.30082751438e-06,748.731742933,2.30010121875,,,,,x,1,2.28414033615,2018_Dec_04_1106,59.9854941959,spanish_cond2,001,1072,
images\table02.jpg,table,z,sounds\animalfarm_english.wav,,,,,,,,,0,1,1,1,0,66,66,49,749.846032294,8.98010330275e-06,751.315688785,1.46966579196,,,,,z,1,1.45059169381,2018_Dec_04_1106,59.9854941959,spanish_cond2,001,1072,
images\crocodile.jpg,triangle ruler,x,sounds\animalfarm_english.wav,,,,,,,,,0,1,1,1,0,67,67,235,752.412772875,9.30082751438e-06,753.1828048,0.770041866635,,,,,x,1,0.750418056676,2018_Dec_04_1106,59.9854941959,spanish_cond2,001,1072,
images\chessknight02b (1).jpg,cockroach,x,sounds\animalfarm_english.wav,,,,,,,,,0,1,1,1,0,68,68,155,754.291328282,9.30082751438e-06,756.88371641,2.59239775006,,,,,x,1,2.58420659666,2018_Dec_04_1106,59.9854941959,spanish_cond2,001,1072,
images\doll.jpg,carrot,x,sounds\animalfarm_english.wav,,,,,,,,,0,1,1,1,0,69,69,146,757.994897046,8.98010330275e-06,759.617709505,1.62282208004,,,,,x,1,1.60062835191,2018_Dec_04_1106,59.9854941959,spanish_cond2,001,1072,
images\hairband.jpg,hairband,z,sounds\animalfarm_english.wav,,,,,,,,,0,1,1,1,0,70,70,66,760.727216631,8.98016151041e-06,761.501523413,0.774316404306,,,,,z,1,0.750443072757,2018_Dec_04_1106,59.9854941959,spanish_cond2,001,1072,
images\bullet (2).jpg,rubber glove,x,sounds\animalfarm_english.wav,,,,,,,,,0,1,1,1,0,71,71,217,762.60595645,9.62155172601e-06,763.435307207,0.829361019481,,,,,x,1,0.817107323324,2018_Dec_04_1106,59.9854941959,spanish_cond2,001,1072,
images\clothespin02a.jpg,clothes pin,z,sounds\animalfarm_english.wav,,,,,,,,,0,1,1,1,0,72,72,79,764.539914715,9.30082751438e-06,765.352449232,0.812544780318,,,,,z,1,0.800435407611,2018_Dec_04_1106,59.9854941959,spanish_cond2,001,1072,
images\paintbrush03a.jpg,paint brush,z,sounds\animalfarm_english.wav,,,,,,,,,0,1,1,1,0,73,73,0,766.527136643,9.30088572204e-06,767.302918411,0.775791389227,,,,,z,1,0.767096707539,2018_Dec_04_1106,59.9854941959,spanish_cond2,001,1072,
images\radio03a.jpg,radio,z,sounds\animalfarm_english.wav,,,,,,,,,0,1,1,1,0,74,74,37,768.477359511,9.62160993367e-06,769.770180417,1.29283020709,,,,,z,1,1.28388279915,2018_Dec_04_1106,59.9854941959,spanish_cond2,001,1072,
images\eyedrops.jpg,bicycle,x,sounds\animalfarm_english.wav,,,,,,,,,0,1,1,1,0,75,75,131,770.870566626,9.30082751438e-06,772.270807422,1.40025073779,,,,,x,1,1.38391910447,2018_Dec_04_1106,59.9854941959,spanish_cond2,001,1072,
images\arrow02.jpg,hammer,x,sounds\animalfarm_english.wav,,,,,,,,,0,1,1,1,0,76,76,184,773.427994822,9.62155172601e-06,775.404737591,1.97675303189,,,,,x,1,1.96723089623,2018_Dec_04_1106,59.9854941959,spanish_cond2,001,1072,
images\dreamcatcher.jpg,dream catcher,z,sounds\animalfarm_english.wav,,,,,,,,,0,1,1,1,0,77,77,48,776.504782877,9.94227593765e-06,777.755468092,1.25069547835,,,,,z,1,1.23383594217,2018_Dec_04_1106,59.9854941959,spanish_cond2,001,1072,
images\raisin.jpg,ruler,x,sounds\animalfarm_english.wav,,,,,,,,,0,1,1,1,0,78,78,218,778.860156742,9.62155172601e-06,779.505907637,0.645761158317,,,,,x,1,0.633668783645,2018_Dec_04_1106,59.9854941959,spanish_cond2,001,1072,
images\belt02a.jpg,snowman,x,sounds\animalfarm_english.wav,,,,,,,,,0,1,1,1,0,79,79,224,780.608934002,9.30082751438e-06,781.322991548,0.714067167428,,,,,x,1,0.7004067995,2018_Dec_04_1106,59.9854941959,spanish_cond2,001,1072,
images\handfan01b.jpg,handfan,z,sounds\animalfarm_english.wav,,,,,,,,,0,1,1,1,0,80,80,69,782.437161281,9.30082751438e-06,783.173444627,0.736292967456,,,,,z,1,0.717079677386,2018_Dec_04_1106,59.9854941959,spanish_cond2,001,1072,
images\lamp04b.jpg,parking meter,x,sounds\animalfarm_english.wav,,,,,,,,,0,1,1,1,0,81,81,209,784.295586142,8.98016151041e-06,785.257302923,0.961726723413,,,,,x,1,0.950483290886,2018_Dec_04_1106,59.9854941959,spanish_cond2,001,1072,
images\scissors04a.jpg,leek,x,sounds\animalfarm_english.wav,,,,,,,,,0,1,1,1,0,82,82,194,786.350599327,9.62155172601e-06,787.824596424,1.47400671837,,,,,x,1,1.45061606838,2018_Dec_04_1106,59.9854941959,spanish_cond2,001,1072,
images\drink.jpg,drink,z,sounds\animalfarm_english.wav,,,,,,,,,0,1,1,1,0,83,83,117,788.923913037,9.30088572204e-06,790.541919206,1.61801579094,,,,,z,1,1.60064278427,2018_Dec_04_1106,59.9854941959,spanish_cond2,001,1072,
images\hairdryer03a.jpg,hairdryer,z,sounds\animalfarm_english.wav,,,,,,,,,0,1,1,1,0,84,84,119,791.713114954,9.30082751438e-06,793.542636974,1.82953132107,,,,,z,1,1.81733246782,2018_Dec_04_1106,59.9854941959,spanish_cond2,001,1072,
images\corn01.jpg,corn,z,sounds\animalfarm_english.wav,,,,,,,,,0,1,1,1,0,85,85,22,794.641744799,9.62160993367e-06,795.326440235,0.684706340428,,,,,z,1,0.667101774889,2018_Dec_04_1106,59.9854941959,spanish_cond2,001,1072,
images\candycane01a.jpg,lip,x,sounds\animalfarm_english.wav,,,,,,,,,0,1,1,1,0,86,86,200,796.497600063,8.98016151041e-06,797.510285125,1.01269436354,,,,,x,1,1.00049326528,2018_Dec_04_1106,59.9854941959,spanish_cond2,001,1072,
images\teapot.jpg,light switch,x,sounds\animalfarm_english.wav,,,,,,,,,0,1,1,1,0,87,87,197,798.678607876,9.30082751438e-06,800.594381074,1.91578314034,,,,,x,1,1.90072091133,2018_Dec_04_1106,59.9854941959,spanish_cond2,001,1072,
images\cat.jpg,black olive,x,sounds\animalfarm_english.wav,,,,,,,,,0,1,1,1,0,88,88,133,801.724782056,8.98010330275e-06,804.195234891,2.47046245699,,,,,x,1,2.45084313717,2018_Dec_04_1106,59.9854941959,spanish_cond2,001,1072,
images\dragonfly02.jpg,dragon fly,z,sounds\animalfarm_english.wav,,,,,,,,,0,1,1,1,0,89,89,29,805.291979341,9.30082751438e-06,806.962584325,1.67061460589,,,,,z,1,1.65066173871,2018_Dec_04_1106,59.9854941959,spanish_cond2,001,1072,
images\carrot02.jpg,corkscrew,x,sounds\animalfarm_english.wav,,,,,,,,,0,1,1,1,0,90,90,161,808.064676116,1.50738051161e-05,809.779929301,1.7152634479,,,,,x,1,1.70065728069,2018_Dec_04_1106,59.9854941959,spanish_cond2,001,1072,
images\gluestick.jpg,squirrel,x,sounds\animalfarm_english.wav,,,,,,,,,0,1,1,1,0,91,91,226,810.96458144,9.30082751438e-06,811.830436389,0.865864570776,,,,,x,1,0.850437363959,2018_Dec_04_1106,59.9854941959,spanish_cond2,001,1072,
images\lily.jpg,kiwi,x,sounds\animalfarm_english.wav,,,,,,,,,0,1,1,1,0,92,92,190,812.929463072,3.78448166884e-05,813.747564623,0.818132981483,,,,,x,1,0.800442142703,2018_Dec_04_1106,59.9854941959,spanish_cond2,001,1072,
images\axe01.jpg,axe,z,sounds\animalfarm_english.wav,,,,,,,,,0,1,1,1,0,93,93,104,814.850668281,9.30082751438e-06,815.581332316,0.730673977348,,,,,z,1,0.717078715272,2018_Dec_04_1106,59.9854941959,spanish_cond2,001,1072,
images\comb02a.jpg,diploma,x,sounds\animalfarm_english.wav,,,,,,,,,0,1,1,1,0,94,94,166,816.761848789,9.62155172601e-06,819.76554475,3.00370654505,,,,,None,0,,2018_Dec_04_1106,59.9854941959,spanish_cond2,001,1072,
images\tent.jpg,tent,z,sounds\animalfarm_english.wav,,,,,,,,,0,1,1,1,0,95,95,11,820.892788257,8.98010330275e-06,822.59972136,1.70694272412,,,,,x,0,1.68399787298,2018_Dec_04_1106,59.9854941959,spanish_cond2,001,1072,
images\bottleofredwine02.jpg,pipe,x,sounds\animalfarm_english.wav,,,,,,,,,0,1,1,1,0,96,96,213,823.697495637,8.98016151041e-06,825.383718655,1.68623264035,,,,,x,1,1.66731409065,2018_Dec_04_1106,59.9854941959,spanish_cond2,001,1072,
images\floorlamp.jpg,floor lamp,z,sounds\animalfarm_english.wav,,,,,,,,,0,1,1,1,0,97,97,26,826.544013498,9.30082751438e-06,827.584278117,1.0402745608,,,,,z,1,1.01717768901,2018_Dec_04_1106,59.9854941959,spanish_cond2,001,1072,
images\lion.jpg,lion,z,sounds\animalfarm_english.wav,,,,,,,,,0,1,1,1,0,98,98,44,828.69596645,9.30082751438e-06,831.351845319,2.65588848997,,,,,z,1,2.63422715478,2018_Dec_04_1106,59.9854941959,spanish_cond2,001,1072,
images\lightswitch02a.jpg,fork,x,sounds\animalfarm_english.wav,,,,,,,,,0,1,1,1,0,99,99,177,832.463168995,9.30082751438e-06,833.185618143,0.722458769975,,,,,x,1,0.700405195937,2018_Dec_04_1106,59.9854941959,spanish_cond2,001,1072,
images\nametag01a.jpg,name tag,z,sounds\animalfarm_english.wav,,,,,,,,,0,1,1,1,0,100,100,108,834.305721813,9.30082751438e-06,835.136108169,0.830396299134,,,,,z,1,0.817117907049,2018_Dec_04_1106,59.9854941959,spanish_cond2,001,1072,
images\notebook02b.jpg,notebook,z,sounds\animalfarm_english.wav,,,,,,,,,0,1,1,1,0,101,101,7,836.24216757,8.98010330275e-06,837.053229989,0.811072040466,,,,,z,1,0.800433162542,2018_Dec_04_1106,59.9854941959,spanish_cond2,001,1072,
images\backpack01b.jpg,swallow,x,sounds\animalfarm_english.wav,,,,,,,,,0,1,1,1,0,102,102,228,838.245901376,9.62155172601e-06,839.720549211,1.47465713572,,,,,x,1,1.45059778745,2018_Dec_04_1106,59.9854941959,spanish_cond2,001,1072,
images\skateboard.jpg,key,x,sounds\animalfarm_english.wav,,,,,,,,,0,1,1,1,0,103,103,189,840.81093349,8.65943729877e-06,841.971093631,1.16016912134,,,,,x,1,1.15052382974,2018_Dec_04_1106,59.9854941959,spanish_cond2,001,1072,
images\nailclipper03a.jpg,aquarium,x,sounds\animalfarm_english.wav,,,,,,,,,0,1,1,1,0,104,104,123,843.070559699,9.62160993367e-06,844.655100805,1.58455201064,,,,,x,1,1.56728644465,2018_Dec_04_1106,59.9854941959,spanish_cond2,001,1072,
images\pipe.jpg,icecube,x,sounds\animalfarm_english.wav,,,,,,,,,0,1,1,1,0,105,105,188,845.763861298,8.65943729877e-06,846.455546796,0.691695119778,,,,,x,1,0.66710049205,2018_Dec_04_1106,59.9854941959,spanish_cond2,001,1072,
images\diploma01.jpg,glasses,x,sounds\animalfarm_english.wav,,,,,,,,,0,1,1,1,0,106,106,179,847.58805073,9.30082751438e-06,848.83942998,1.25138887193,,,,,x,1,1.23387635272,2018_Dec_04_1106,59.9854941959,spanish_cond2,001,1072,
images\cookingpot.jpg,grasshopper,x,sounds\animalfarm_english.wav,,,,,,,,,0,1,1,1,0,107,107,183,849.953185666,8.98010330275e-06,850.923279617,0.97010421427,,,,,x,1,0.950481045875,2018_Dec_04_1106,59.9854941959,spanish_cond2,001,1072,
images\lantern03.jpg,lantern,z,sounds\animalfarm_english.wav,,,,,,,,,0,1,1,1,0,108,108,5,852.105941377,8.65937909111e-06,853.307200646,1.20126857038,,,,,z,1,1.1838763206,2018_Dec_04_1106,59.9854941959,spanish_cond2,001,1072,
images\magnifyingglass01b.jpg,magnifying glass,z,sounds\animalfarm_english.wav,,,,,,,,,0,1,1,1,0,109,109,64,854.413642664,8.98016151041e-06,856.37459389,1.96096116805,,,,,z,1,1.95071068039,2018_Dec_04_1106,59.9854941959,spanish_cond2,001,1072,
images\basketball01.jpg,basket ball,z,sounds\animalfarm_english.wav,,,,,,,,,0,1,1,1,0,110,110,33,857.515327143,9.30082751438e-06,858.175033467,0.659715945949,,,,,z,1,0.650393297197,2018_Dec_04_1106,59.9854941959,spanish_cond2,001,1072,
images\tank.jpg,wallet,x,sounds\animalfarm_english.wav,,,,,,,,,0,1,1,1,0,111,111,237,859.279348479,9.30082751438e-06,860.358743976,1.0794051183,,,,,x,1,1.06700613658,2018_Dec_04_1106,59.9854941959,spanish_cond2,001,1072,
images\panda.jpg,panda,z,sounds\animalfarm_english.wav,,,,,,,,,0,1,1,1,0,112,112,83,861.468390615,9.30082751438e-06,862.242709906,0.774329233041,,,,,z,1,0.750439544907,2018_Dec_04_1106,59.9854941959,spanish_cond2,001,1072,
images\rhinoceros01.jpg,envelope,x,sounds\animalfarm_english.wav,,,,,,,,,0,1,1,1,0,113,113,173,863.354796251,9.30082751438e-06,864.126501043,0.771713772789,,,,,x,1,0.750419018848,2018_Dec_04_1106,59.9854941959,spanish_cond2,001,1072,
images\mattress.jpg,cat,x,sounds\animalfarm_english.wav,,,,,,,,,0,1,1,1,0,114,114,147,865.230934401,8.98010330275e-06,866.393727642,1.16280350403,,,,,x,1,1.1505411485,2018_Dec_04_1106,59.9854941959,spanish_cond2,001,1072,
images\mailbox01.jpg,mail box,z,sounds\animalfarm_english.wav,,,,,,,,,0,1,1,1,0,115,115,73,867.513369155,9.30082751438e-06,868.39420872,0.880849827372,,,,,z,1,0.867117297719,2018_Dec_04_1106,59.9854941959,spanish_cond2,001,1072,
images\parrot01.jpg,chameleon,x,sounds\animalfarm_english.wav,,,,,,,,,0,1,1,1,0,116,116,150,869.508977235,8.98016151041e-06,872.278511083,2.76954379061,,,,,z,0,2.75095205323,2018_Dec_04_1106,59.9854941959,spanish_cond2,001,1072,
images\blackolive.jpg,tank,x,sounds\animalfarm_english.wav,,,,,,,,,0,1,1,1,0,117,117,229,873.393426166,9.94227593765e-06,874.245640632,0.852224408125,,,,,x,1,0.833802330832,2018_Dec_04_1106,59.9854941959,spanish_cond2,001,1072,
images\banjo.jpg,knife,x,sounds\animalfarm_english.wav,,,,,,,,,0,1,1,1,0,118,118,191,875.341719591,9.30082751438e-06,877.062966044,1.72125607519,,,,,x,1,1.70065086638,2018_Dec_04_1106,59.9854941959,spanish_cond2,001,1072,
images\screw03c.jpg,screw,z,sounds\animalfarm_english.wav,,,,,,,,,0,1,1,1,0,119,119,84,878.236399767,8.98010330275e-06,879.48023796,1.24384781515,,,,,z,1,1.2338875779,2018_Dec_04_1106,59.9854941959,spanish_cond2,001,1072,
images\paperclip04.jpg,eye drops,x,sounds\animalfarm_english.wav,,,,,,,,,0,1,1,1,0,120,120,174,880.612429193,9.62155172601e-06,881.514060946,0.901642015146,,,,,x,1,0.883799476491,2018_Dec_04_1106,59.9854941959,spanish_cond2,001,1072,
images\chameleon.jpg,50 dollar bill,x,sounds\animalfarm_english.wav,,,,,,,,,0,1,1,1,0,121,121,120,882.624533435,8.98010330275e-06,883.764858092,1.14033363719,,,,,x,1,1.11743593164,2018_Dec_04_1106,59.9854941959,spanish_cond2,001,1072,
images\screwdriver02b.jpg,cola,x,sounds\animalfarm_english.wav,,,,,,,,,0,1,1,1,0,122,122,158,884.930415927,9.30082751438e-06,886.96538484,2.03497853427,,,,,x,1,2.0173925705,2018_Dec_04_1106,59.9854941959,spanish_cond2,001,1072,
images\mitten01.jpg,mitten,z,sounds\animalfarm_english.wav,,,,,,,,,0,1,1,1,0,123,123,102,888.15703987,8.98010330275e-06,888.965861748,0.808831820905,,,,,z,1,0.800420975254,2018_Dec_04_1106,59.9854941959,spanish_cond2,001,1072,
images\bowl02b (1).jpg,bowl,z,sounds\animalfarm_english.wav,,,,,,,,,0,1,1,1,0,124,124,24,890.083549124,8.65937909111e-06,891.799906222,1.71636704064,,,,,z,1,1.70066978876,2018_Dec_04_1106,59.9854941959,spanish_cond2,001,1072,
images\tie01.jpg,bench,x,sounds\animalfarm_english.wav,,,,,,,,,0,1,1,1,0,125,125,130,892.897327067,9.30082751438e-06,894.183992742,1.28667593759,,,,,x,1,1.26739882445,2018_Dec_04_1106,59.9854941959,spanish_cond2,001,1072,
images\cheetah.jpg,cheetah,z,sounds\animalfarm_english.wav,,,,,,,,,0,1,1,1,0,126,126,82,895.286290755,8.98010330275e-06,896.150944292,0.864663479559,,,,,z,1,0.850444419775,2018_Dec_04_1106,59.9854941959,spanish_cond2,001,1072,
images\hand01a.jpg,cupcake,x,sounds\animalfarm_english.wav,,,,,,,,,0,1,1,1,0,127,127,163,897.340304259,8.98010330275e-06,900.335154481,2.99486048421,,,,,None,0,,2018_Dec_04_1106,59.9854941959,spanish_cond2,001,1072,
images\egg01b (1).jpg,egg,z,sounds\animalfarm_english.wav,,,,,,,,,0,1,1,1,0,128,128,19,901.524493281,8.98010330275e-06,902.452506384,0.928023045533,,,,,z,1,0.91715164663,2018_Dec_04_1106,59.9854941959,spanish_cond2,001,1072,
images\knife04.jpg,tooth brush,x,sounds\animalfarm_english.wav,,,,,,,,,0,1,1,1,0,129,129,233,903.549604907,8.98016151041e-06,904.219600205,0.67000491987,,,,,x,1,0.650415106094,2018_Dec_04_1106,59.9854941959,spanish_cond2,001,1072,
images\tape01a.jpg,tie,x,sounds\animalfarm_english.wav,,,,,,,,,0,1,1,1,0,130,130,232,905.346215745,8.98010330275e-06,906.270093502,0.923887699726,,,,,x,1,0.900474920112,2018_Dec_04_1106,59.9854941959,spanish_cond2,001,1072,
images\computermouse02a.jpg,world map,x,sounds\animalfarm_english.wav,,,,,,,,,0,1,1,1,0,131,131,239,907.371387025,8.98016151041e-06,908.087197939,0.715820536134,,,,,x,1,0.700419628236,2018_Dec_04_1106,59.9854941959,spanish_cond2,001,1072,
images\highlighter03b.jpg,coin,x,sounds\animalfarm_english.wav,,,,,,,,,0,1,1,1,0,132,132,156,909.188590243,9.30082751438e-06,910.054328771,0.865748791373,,,,,x,1,0.850424855947,2018_Dec_04_1106,59.9854941959,spanish_cond2,001,1072,
images\dice05a.jpg,band aid,x,sounds\animalfarm_english.wav,,,,,,,,,0,1,1,1,0,133,133,126,911.168214669,9.30082751438e-06,913.58852828,2.42032387445,,,,,x,1,2.40082482412,2018_Dec_04_1106,59.9854941959,spanish_cond2,001,1072,
images\sock03.jpg,sock,z,sounds\animalfarm_english.wav,,,,,,,,,0,1,1,1,0,134,134,90,914.694281074,9.62155172601e-06,915.338962052,0.644691240974,,,,,z,1,0.633737417404,2018_Dec_04_1106,59.9854941959,spanish_cond2,001,1072,
images\broadsword.jpg,teapot,x,sounds\animalfarm_english.wav,,,,,,,,,0,1,1,1,0,135,135,231,916.431340559,8.98010330275e-06,918.373035518,1.94170426019,,,,,x,1,1.91738545051,2018_Dec_04_1106,59.9854941959,spanish_cond2,001,1072,
images\ant.jpg,ant,z,sounds\animalfarm_english.wav,,,,,,,,,0,1,1,1,0,136,136,98,919.467501262,8.98010330275e-06,920.106787432,0.639296112407,,,,,z,1,0.617060370103,2018_Dec_04_1106,59.9854941959,spanish_cond2,001,1072,
images\plate01b.jpg,plate,z,sounds\animalfarm_english.wav,,,,,,,,,0,1,1,1,0,137,137,3,921.205649587,8.98010330275e-06,922.090593066,0.884953101282,,,,,z,1,0.867116656271,2018_Dec_04_1106,59.9854941959,spanish_cond2,001,1072,
images\peach01.jpg,peach,z,sounds\animalfarm_english.wav,,,,,,,,,0,1,1,1,0,138,138,106,923.220518422,9.30088572204e-06,924.191117826,0.970609987562,,,,,z,1,0.950478159415,2018_Dec_04_1106,59.9854941959,spanish_cond2,001,1072,
images\barrel01.jpg,barrel,z,sounds\animalfarm_english.wav,,,,,,,,,0,1,1,1,0,139,139,9,925.390631424,9.30082751438e-06,927.158506195,1.76788503391,,,,,z,1,1.75066693436,2018_Dec_04_1106,59.9854941959,spanish_cond2,001,1072,
images\razor04a.jpg,razor,z,sounds\animalfarm_english.wav,,,,,,,,,0,1,1,1,0,140,140,36,928.257623963,8.65943729877e-06,929.008957029,0.751343009237,,,,,z,1,0.733758007584,2018_Dec_04_1106,59.9854941959,spanish_cond2,001,1072,
images\straw.jpg,straw,z,sounds\animalfarm_english.wav,,,,,,,,,0,1,1,1,0,141,141,109,930.099785824,9.30088572204e-06,931.009432014,0.909656131931,,,,,z,1,0.900453431997,2018_Dec_04_1106,59.9854941959,spanish_cond2,001,1072,
images\birthdaycandle.jpg,birthday candle,z,sounds\animalfarm_english.wav,,,,,,,,,0,1,1,1,0,142,142,55,932.177907747,8.98010330275e-06,932.926572756,0.74867430958,,,,,z,1,0.733755121066,2018_Dec_04_1106,59.9854941959,spanish_cond2,001,1072,
images\cauliflower01.jpg,glue stick,x,sounds\animalfarm_english.wav,,,,,,,,,0,1,1,1,0,143,143,181,934.121499757,9.30082751438e-06,935.460523066,1.33903293073,,,,,x,1,1.31722887571,2018_Dec_04_1106,59.9854941959,spanish_cond2,001,1072,
images\thumbtack02a.jpg,thumb tack,z,sounds\animalfarm_english.wav,,,,,,,,,0,1,1,1,0,144,144,60,936.606078644,9.62155172601e-06,939.261448532,2.65537918883,,,,,z,1,2.63421047735,2018_Dec_04_1106,59.9854941959,spanish_cond2,001,1072,
images\daisy.jpg,daisy,z,sounds\animalfarm_english.wav,,,,,,,,,0,1,1,1,0,145,145,6,940.431825806,8.98016151041e-06,941.228603418,0.796787554107,,,,,z,1,0.783772792667,2018_Dec_04_1106,59.9854941959,spanish_cond2,001,1072,
images\djmixer01.jpg,light bulb,x,sounds\animalfarm_english.wav,,,,,,,,,0,1,1,1,0,146,146,196,942.350186562,9.62155172601e-06,944.679429236,2.32925229589,,,,,x,1,2.31747198047,2018_Dec_04_1106,59.9854941959,spanish_cond2,001,1072,
images\tissuebox03.jpg,tissue box,z,sounds\animalfarm_english.wav,,,,,,,,,0,1,1,1,0,147,147,58,945.805643878,9.30082751438e-06,946.429854349,0.62422009249,,,,,z,1,0.600383643585,2018_Dec_04_1106,59.9854941959,spanish_cond2,001,1072,
images\battery03b.jpg,battery,z,sounds\animalfarm_english.wav,,,,,,,,,0,1,1,1,0,148,148,34,947.538888415,9.30082751438e-06,948.763754178,1.22487570549,,,,,x,0,1.20053316263,2018_Dec_04_1106,59.9854941959,spanish_cond2,001,1072,
images\blueberry02.jpg,blueberry,z,sounds\animalfarm_english.wav,,,,,,,,,0,1,1,1,0,149,149,46,949.915106745,9.30082751438e-06,951.614460304,1.69936382252,,,,,z,1,1.68395233096,2018_Dec_04_1106,59.9854941959,spanish_cond2,001,1072,
images\8ball.jpg,nail clipper,x,sounds\animalfarm_english.wav,,,,,,,,,0,1,1,1,0,150,150,206,952.730061405,9.30088572204e-06,955.098635406,2.36858394393,,,,,x,1,2.35081709479,2018_Dec_04_1106,59.9854941959,spanish_cond2,001,1072,
images\redfox.jpg,red fox,z,sounds\animalfarm_english.wav,,,,,,,,,0,1,1,1,0,151,151,1,956.211461008,8.98010330275e-06,956.899074021,0.687622634752,,,,,z,1,0.667078041763,2018_Dec_04_1106,59.9854941959,spanish_cond2,001,1072,
images\envelope02a.jpg,grand piano,x,sounds\animalfarm_english.wav,,,,,,,,,0,1,1,1,0,152,152,182,958.053074441,9.30088572204e-06,959.066260787,1.01319628814,,,,,x,1,1.00047787075,2018_Dec_04_1106,59.9854941959,spanish_cond2,001,1072,
images\lock02a.jpg,lock,z,sounds\animalfarm_english.wav,,,,,,,,,0,1,1,1,0,153,153,65,960.176460665,9.30082751438e-06,960.866700364,0.69024964096,,,,,z,1,0.667060402222,2018_Dec_04_1106,59.9854941959,spanish_cond2,001,1072,
images\feather03b.jpg,feather,z,sounds\animalfarm_english.wav,,,,,,,,,0,1,1,1,0,154,154,114,961.966979453,8.98016151041e-06,962.850523637,0.883554126718,,,,,z,1,0.867128522892,2018_Dec_04_1106,59.9854941959,spanish_cond2,001,1072,
images\flipflop01b.jpg,flip flop,z,sounds\animalfarm_english.wav,,,,,,,,,0,1,1,1,0,155,155,27,963.967358542,9.30082751438e-06,964.967552256,1.00020622206,,,,,z,1,0.983661631588,2018_Dec_04_1106,59.9854941959,spanish_cond2,001,1072,
images\bull.jpg,button,x,sounds\animalfarm_english.wav,,,,,,,,,0,1,1,1,0,156,156,141,966.073365666,9.30082751438e-06,968.25183435,2.17847830564,,,,,x,1,2.16743371869,2018_Dec_04_1106,59.9854941959,spanish_cond2,001,1072,
images\donut.jpg,rhinoceros,x,sounds\animalfarm_english.wav,,,,,,,,,0,1,1,1,0,157,157,216,969.378032635,8.98016151041e-06,970.419042924,1.04102023161,,,,,x,1,1.01717127464,2018_Dec_04_1106,59.9854941959,spanish_cond2,001,1072,
images\lemon02.jpg,lemon,z,sounds\animalfarm_english.wav,,,,,,,,,0,1,1,1,0,158,158,14,971.531011886,8.98010330275e-06,973.186379209,1.65537790593,,,,,z,1,1.63398308784,2018_Dec_04_1106,59.9854941959,spanish_cond2,001,1072,
images\scooter.jpg,pen,x,sounds\animalfarm_english.wav,,,,,,,,,0,1,1,1,0,159,159,212,974.278282411,8.98010330275e-06,975.036814969,0.758542179945,,,,,x,1,0.750419339631,2018_Dec_04_1106,59.9854941959,spanish_cond2,001,1072,
images\weight01.jpg,weight,z,sounds\animalfarm_english.wav,,,,,,,,,0,1,1,1,0,160,160,67,976.224203479,8.98016151041e-06,977.270725318,1.04653146031,,,,,x,0,1.03385056695,2018_Dec_04_1106,59.9854941959,spanish_cond2,001,1072,
images\parkbench03.jpg,park bench,z,sounds\animalfarm_english.wav,,,,,,,,,0,1,1,1,0,161,161,71,978.37591942,9.62155172601e-06,979.121142477,0.745232998859,,,,,z,1,0.733744537341,2018_Dec_04_1106,59.9854941959,spanish_cond2,001,1072,
images\bowtie.jpg,bowtie,z,sounds\animalfarm_english.wav,,,,,,,,,0,1,1,1,0,162,162,89,980.231324074,8.98010330275e-06,981.271672079,1.04035730619,,,,,z,1,1.01716069091,2018_Dec_04_1106,59.9854941959,spanish_cond2,001,1072,
images\icecube02 (2).jpg,aloe,x,sounds\animalfarm_english.wav,,,,,,,,,0,1,1,1,0,163,163,122,982.462042952,9.62155172601e-06,983.588913784,1.12688045343,,,,,x,1,1.11718609184,2018_Dec_04_1106,59.9854941959,spanish_cond2,001,1072,
images\glasses01b.jpg,calculator,x,sounds\animalfarm_english.wav,,,,,,,,,0,1,1,1,0,164,164,142,984.68113578,8.98010330275e-06,985.539378794,0.858251993719,,,,,x,1,0.833780842717,2018_Dec_04_1106,59.9854941959,spanish_cond2,001,1072,
images\dolphin01.jpg,dolphin,z,sounds\animalfarm_english.wav,,,,,,,,,0,1,1,1,0,165,165,99,986.639643771,9.30082751438e-06,988.323387315,1.68375316472,,,,,z,1,1.66731152486,2018_Dec_04_1106,59.9854941959,spanish_cond2,001,1072,
images\pen03c.jpg,pepper,x,sounds\animalfarm_english.wav,,,,,,,,,0,1,1,1,0,166,166,211,989.416932596,9.30082751438e-06,990.807352025,1.3904296924,,,,,x,1,1.36727156339,2018_Dec_04_1106,59.9854941959,spanish_cond2,001,1072,
images\squirrel.jpg,binder,x,sounds\animalfarm_english.wav,,,,,,,,,0,1,1,1,0,167,167,132,991.910047729,8.98010330275e-06,993.141226839,1.23118841002,,,,,x,1,1.21720475768,2018_Dec_04_1106,59.9854941959,spanish_cond2,001,1072,
images\puzzle.jpg,puzzle,z,sounds\animalfarm_english.wav,,,,,,,,,0,1,1,1,0,168,168,57,994.261060783,9.30082751438e-06,996.675438535,2.41438769363,,,,,x,0,2.40083925647,2018_Dec_04_1106,59.9854941959,spanish_cond2,001,1072,
images\atm.jpg,atm,z,sounds\animalfarm_english.wav,,,,,,,,,0,1,1,1,0,169,169,96,997.814361331,9.94227593765e-06,998.625894244,0.811542534619,,,,,z,1,0.800427389622,2018_Dec_04_1106,59.9854941959,spanish_cond2,001,1072,
images\bench02.jpg,electric toothbrush,x,sounds\animalfarm_english.wav,,,,,,,,,0,1,1,1,0,170,170,172,999.734741972,8.98010330275e-06,1000.726419,0.991687294212,,,,,x,1,0.967157451669,2018_Dec_04_1106,59.9854941959,spanish_cond2,001,1072,
images\headphones02b.jpg,headphones,z,sounds\animalfarm_english.wav,,,,,,,,,0,1,1,1,0,171,171,101,1001.83387866,9.30088572204e-06,1002.72689848,0.893029437517,,,,,z,1,0.883794024296,2018_Dec_04_1106,59.9854941959,spanish_cond2,001,1072,
images\cola.jpg,comb,x,sounds\animalfarm_english.wav,,,,,,,,,0,1,1,1,0,172,172,157,1003.84837707,8.98010330275e-06,1006.76122531,2.91285786586,,,,,x,1,2.9009656196,2018_Dec_04_1106,59.9854941959,spanish_cond2,001,1072,
images\fork01.jpg,cooking pot,x,sounds\animalfarm_english.wav,,,,,,,,,0,1,1,1,0,173,173,160,1007.85760671,9.30082751438e-06,1008.69501167,0.837414263864,,,,,x,1,0.817104757589,2018_Dec_04_1106,59.9854941959,spanish_cond2,001,1072,
images\flashlight05.jpg,flash light,z,sounds\animalfarm_english.wav,,,,,,,,,0,1,1,1,0,174,174,8,1009.87098933,9.30082751438e-06,1010.6288208,0.757840768318,,,,,z,1,0.733749668871,2018_Dec_04_1106,59.9854941959,spanish_cond2,001,1072,
images\baseball01a.jpg,baseball,z,sounds\animalfarm_english.wav,,,,,,,,,0,1,1,1,0,175,175,74,1011.76238407,8.98010330275e-06,1012.96271422,1.2003397693,,,,,z,1,1.18385900185,2018_Dec_04_1106,59.9854941959,spanish_cond2,001,1072,
images\hairpin.jpg,hair pin,z,sounds\animalfarm_english.wav,,,,,,,,,0,1,1,1,0,176,176,28,1014.13140034,9.30082751438e-06,1016.11348724,1.98209652473,,,,,z,1,1.96735469362,2018_Dec_04_1106,59.9854941959,spanish_cond2,001,1072,
images\rubberglove02a.jpg,lady bug,x,sounds\animalfarm_english.wav,,,,,,,,,0,1,1,1,0,177,177,192,1017.25512364,4.16933908127e-05,1019.16423615,1.90913528489,,,,,x,1,1.90071353473,2018_Dec_04_1106,59.9854941959,spanish_cond2,001,1072,
images\ruler02b.jpg,watermelon,x,sounds\animalfarm_english.wav,,,,,,,,,0,1,1,1,0,178,178,238,1020.26620832,8.98010330275e-06,1021.19807069,0.931871668901,,,,,x,1,0.917127913504,2018_Dec_04_1106,59.9854941959,spanish_cond2,001,1072,
images\nailpolish02b.jpg,nail polish,z,sounds\animalfarm_english.wav,,,,,,,,,0,1,1,1,0,179,179,94,1022.30707653,8.98010330275e-06,1023.16521403,0.858147118706,,,,,z,1,0.833791747107,2018_Dec_04_1106,59.9854941959,spanish_cond2,001,1072,
images\banana04a.jpg,banana,z,sounds\animalfarm_english.wav,,,,,,,,,0,1,1,1,0,180,180,118,1024.27109831,8.98010330275e-06,1024.91563882,0.644549483317,,,,,z,1,0.633740303863,2018_Dec_04_1106,59.9854941959,spanish_cond2,001,1072,
images\grandpiano.jpg,tulip,x,sounds\animalfarm_english.wav,,,,,,,,,0,1,1,1,0,181,181,236,1026.10041956,9.30088572204e-06,1027.66631217,1.56590222317,,,,,x,1,1.5505879093,2018_Dec_04_1106,59.9854941959,spanish_cond2,001,1072,
images\lychee02a.jpg,lychee,z,sounds\animalfarm_english.wav,,,,,,,,,0,1,1,1,0,182,182,62,1028.85886425,9.62155172601e-06,1029.85017021,0.99131622276,,,,,x,0,0.967147188669,2018_Dec_04_1106,59.9854941959,spanish_cond2,001,1072,
images\bracelet02a.jpg,chess knight,x,sounds\animalfarm_english.wav,,,,,,,,,0,1,1,1,0,183,183,152,1030.95861832,9.30082751438e-06,1033.80112591,2.84251785924,,,,,x,1,2.83426352422,2018_Dec_04_1106,59.9854941959,spanish_cond2,001,1072,
images\graduationcap.jpg,graduation cap,z,sounds\animalfarm_english.wav,,,,,,,,,0,1,1,1,0,184,184,35,1034.90291366,9.30082751438e-06,1037.76877375,2.86587002303,,,,,z,1,2.85095596599,2018_Dec_04_1106,59.9854941959,spanish_cond2,001,1072,
images\parkingmeter.jpg,ear,x,sounds\animalfarm_english.wav,,,,,,,,,0,1,1,1,0,185,185,171,1038.87024591,9.62155172601e-06,1041.25293858,2.38270326023,,,,,x,1,2.36747874756,2018_Dec_04_1106,59.9854941959,spanish_cond2,001,1072,
images\kiwi03.jpg,backpack,x,sounds\animalfarm_english.wav,,,,,,,,,0,1,1,1,0,186,186,125,1042.38196465,8.65943729877e-06,1043.23676539,0.854810682999,,,,,x,1,0.833783087728,2018_Dec_04_1106,59.9854941959,spanish_cond2,001,1072,
images\gamecontroller01.jpg,game controller,z,sounds\animalfarm_english.wav,,,,,,,,,0,1,1,1,0,187,187,112,1044.3565695,8.98010330275e-06,1045.25391902,0.897359459486,,,,,z,1,0.883798193594,2018_Dec_04_1106,59.9854941959,spanish_cond2,001,1072,
images\ladder.jpg,ladder,z,sounds\animalfarm_english.wav,,,,,,,,,0,1,1,1,0,188,188,113,1046.40972124,9.30082751438e-06,1047.32109546,0.911384163832,,,,,z,1,0.900468505744,2018_Dec_04_1106,59.9854941959,spanish_cond2,001,1072,
images\cake.jpg,cake,z,sounds\animalfarm_english.wav,,,,,,,,,0,1,1,1,0,189,189,23,1048.43472446,9.30082751438e-06,1049.30490655,0.870192347793,,,,,z,1,0.850458852074,2018_Dec_04_1106,59.9854941959,spanish_cond2,001,1072,
images\pouch01b.jpg,pouch,z,sounds\animalfarm_english.wav,,,,,,,,,0,1,1,1,0,190,190,25,1050.45657117,9.62155172601e-06,1053.45577387,2.99921295652,,,,,None,0,,2018_Dec_04_1106,59.9854941959,spanish_cond2,001,1072,
images\flower01.jpg,bus,x,sounds\animalfarm_english.wav,,,,,,,,,0,1,1,1,0,191,191,140,1054.57023417,9.30082751438e-06,1055.33970355,0.769479646871,,,,,x,1,0.750423508929,2018_Dec_04_1106,59.9854941959,spanish_cond2,001,1072,
,,,sounds\animalfarm_english.wav,,,,,,,,,0,1,1,1,,,,,,,,,,,,,,,,2018_Dec_04_1106,59.9854941959,spanish_cond2,001,1072,
