images,name,corrAns,sounds,trials_3.thisRepN,trials_3.thisTrialN,trials_3.thisN,trials_3.thisIndex,trials_4.thisRepN,trials_4.thisTrialN,trials_4.thisN,trials_4.thisIndex,trials_2.thisRepN,trials_2.thisTrialN,trials_2.thisN,trials_2.thisIndex,trials.thisRepN,trials.thisTrialN,trials.thisN,trials.thisIndex,begin_global,begin_routine,end_global,end_routine,key_resp_2.keys,key_resp_2.corr,begin_book,key_resp_1.keys,key_resp_1.corr,key_resp_1.rt,date,frameRate,expName,session,participant,
images/volleyball.jpg,volley ball,z,,0,0,0,0,,,,,,,,,,,,,,,,,,,,,,,2018_Dec_04_1104,59.9866284527,spanish_cond1,001,1073,
images/puma.jpg,puma,z,,,,,,0,0,0,0,,,,,,,,,48.1787155403,1.02634076029e-05,51.0059758727,2.82727187872,None,0,,,,,2018_Dec_04_1104,59.9866284527,spanish_cond1,001,1073,
images/dragonfly02.jpg,dragon fly,z,sounds/greatgatsby_english.wav,,,,,,,,,0,0,0,0,0,0,0,29,93.1875593956,9.30111855268e-06,96.002094378,2.81454556645,,,83.0039276802,None,0,,2018_Dec_04_1104,59.9866284527,spanish_cond1,001,1073,
images/hairdryer03a.jpg,hairdryer,z,sounds/greatgatsby_english.wav,,,,,,,,,0,0,0,0,0,1,1,119,97.109209778,9.30135138333e-06,98.2863842025,1.17718436732,,,,z,1,1.16732539609,2018_Dec_04_1104,59.9866284527,spanish_cond1,001,1073,
images/tent.jpg,tent,z,sounds/greatgatsby_english.wav,,,,,,,,,0,0,0,0,0,2,2,11,99.41490299,8.98051075637e-06,101.320507487,1.90561379865,,,,z,1,1.88409623085,2018_Dec_04_1104,59.9866284527,spanish_cond1,001,1073,
images/bowtie.jpg,bowtie,z,sounds/greatgatsby_english.wav,,,,,,,,,0,0,0,0,0,3,3,89,102.431712216,9.30135138333e-06,103.087672004,0.655969409971,,,,z,1,0.633747836109,2018_Dec_04_1104,59.9866284527,spanish_cond1,001,1073,
images/swallow.jpg,mattress,x,sounds/greatgatsby_english.wav,,,,,,,,,0,0,0,0,0,4,4,202,104.189717599,9.30111855268e-06,105.004886026,0.815178370103,,,,x,1,0.800484689651,2018_Dec_04_1104,59.9866284527,spanish_cond1,001,1073,
images/toucan.jpg,toucan,z,sounds/greatgatsby_english.wav,,,,,,,,,0,0,0,0,0,5,5,81,106.106552516,8.65990296006e-06,106.888762877,0.782220303547,,,,z,1,0.767146556173,2018_Dec_04_1104,59.9866284527,spanish_cond1,001,1073,
images/cookingpot.jpg,grasshopper,x,sounds/greatgatsby_english.wav,,,,,,,,,0,0,0,0,0,6,6,183,108.003319252,8.98051075637e-06,108.889250389,0.885941721033,,,,x,1,0.86708879238,2018_Dec_04_1104,59.9866284527,spanish_cond1,001,1073,
images/graduationcap.jpg,graduation cap,z,sounds/greatgatsby_english.wav,,,,,,,,,0,0,0,0,0,7,7,35,109.993438792,9.30135138333e-06,110.923233835,0.929804664804,,,,z,1,0.917175534181,2018_Dec_04_1104,59.9866284527,spanish_cond1,001,1073,
images/chameleon.jpg,50 dollar bill,x,sounds/greatgatsby_english.wav,,,,,,,,,0,0,0,0,0,8,8,120,112.036410423,8.98027792573e-06,113.624009781,1.58760930132,,,,x,1,1.56737818848,2018_Dec_04_1104,59.9866284527,spanish_cond1,001,1073,
images/remotecontrol01c.jpg,remote control,z,sounds/greatgatsby_english.wav,,,,,,,,,0,0,0,0,0,9,9,85,114.735799204,8.98051075637e-06,115.757944764,1.02215550304,,,,z,1,1.00053498033,2018_Dec_04_1104,59.9866284527,spanish_cond1,001,1073,
images/triangleruler02.jpg,bottle of red wine,x,sounds/greatgatsby_english.wav,,,,,,,,,0,0,0,0,0,10,10,134,116.870273658,9.30111855268e-06,118.075280536,1.20501650008,,,,x,1,1.18393256166,2018_Dec_04_1104,59.9866284527,spanish_cond1,001,1073,
images/worldmap.jpg,scooter,x,sounds/greatgatsby_english.wav,,,,,,,,,0,0,0,0,0,11,11,220,119.206139382,9.62195917964e-06,120.042511381,0.836382262176,,,,x,1,0.817154077347,2018_Dec_04_1104,59.9866284527,spanish_cond1,001,1073,
images/nailclipper03a.jpg,aquarium,x,sounds/greatgatsby_english.wav,,,,,,,,,0,0,0,0,0,12,12,123,121.142837853,9.30111855268e-06,122.293145868,1.15031795716,,,,x,1,1.13391862577,2018_Dec_04_1104,59.9866284527,spanish_cond1,001,1073,
images/flamingo.jpg,flamingo,z,sounds/greatgatsby_english.wav,,,,,,,,,0,0,0,0,0,13,13,52,123.391581307,9.30111855268e-06,124.093656857,0.702085814206,,,,z,1,0.683796410915,2018_Dec_04_1104,59.9866284527,spanish_cond1,001,1073,
images/sock03.jpg,sock,z,sounds/greatgatsby_english.wav,,,,,,,,,0,0,0,0,0,14,14,90,125.200986186,8.98027792573e-06,126.460991491,1.26001524739,,,,z,1,1.25061845081,2018_Dec_04_1104,59.9866284527,spanish_cond1,001,1073,
images/notebook02b.jpg,notebook,z,sounds/greatgatsby_english.wav,,,,,,,,,0,0,0,0,0,15,15,7,127.568510692,9.62195917964e-06,128.39487041,0.826369660441,,,,z,1,0.817161454121,2018_Dec_04_1104,59.9866284527,spanish_cond1,001,1073,
images/donut.jpg,rhinoceros,x,sounds/greatgatsby_english.wav,,,,,,,,,0,0,0,0,0,16,16,216,129.52181216,9.30111855268e-06,130.478796268,0.956994051347,,,,x,1,0.933853902156,2018_Dec_04_1104,59.9866284527,spanish_cond1,001,1073,
images/straw.jpg,straw,z,sounds/greatgatsby_english.wav,,,,,,,,,0,0,0,0,0,17,17,109,131.571782155,9.30135138333e-06,133.229593527,1.65782131464,,,,z,1,1.63405509712,2018_Dec_04_1104,59.9866284527,spanish_cond1,001,1073,
images/apple06.jpg,apple,z,sounds/greatgatsby_english.wav,,,,,,,,,0,0,0,0,0,18,18,13,134.356721301,8.98027792573e-06,135.663611163,1.30689948355,,,,x,0,1.28396748938,2018_Dec_04_1104,59.9866284527,spanish_cond1,001,1073,
images/bed.jpg,bed,z,sounds/greatgatsby_english.wav,,,,,,,,,0,0,0,0,0,19,19,103,136.785022857,9.30135138333e-06,137.864255449,1.07924317592,,,,z,1,1.06725262199,2018_Dec_04_1104,59.9866284527,spanish_cond1,001,1073,
images/giraffe.jpg,lettuce,x,sounds/greatgatsby_english.wav,,,,,,,,,0,0,0,0,0,20,20,195,138.967016275,9.30111855268e-06,139.798103899,0.831097245449,,,,x,1,0.817153435899,2018_Dec_04_1104,59.9866284527,spanish_cond1,001,1073,
images/pouch01b.jpg,pouch,z,sounds/greatgatsby_english.wav,,,,,,,,,0,0,0,0,0,21,21,25,140.912848864,9.30135138333e-06,143.582526346,2.66968742455,,,,z,1,2.65101859579,2018_Dec_04_1104,59.9866284527,spanish_cond1,001,1073,
images/key03b.jpg,cigar,x,sounds/greatgatsby_english.wav,,,,,,,,,0,0,0,0,0,22,22,153,144.685214687,9.30135138333e-06,145.449739903,0.764534838032,,,,x,1,0.750487432117,2018_Dec_04_1104,59.9866284527,spanish_cond1,001,1073,
images/8ball.jpg,nail clipper,x,sounds/greatgatsby_english.wav,,,,,,,,,0,0,0,0,0,23,23,206,146.566836793,9.30111855268e-06,148.167163427,1.60033689649,,,,x,1,1.5840443687,2018_Dec_04_1104,59.9866284527,spanish_cond1,001,1073,
images/backpack01b.jpg,swallow,x,sounds/greatgatsby_english.wav,,,,,,,,,0,0,0,0,0,24,24,228,149.298760276,8.98051075637e-06,151.134685175,1.83593484131,,,,z,0,1.81746326247,2018_Dec_04_1104,59.9866284527,spanish_cond1,001,1073,
images/baseball01a.jpg,baseball,z,sounds/greatgatsby_english.wav,,,,,,,,,0,0,0,0,0,25,25,74,152.266866718,9.62195917964e-06,153.618748178,1.35189172346,,,,z,1,1.33398912265,2018_Dec_04_1104,59.9866284527,spanish_cond1,001,1073,
images/ostrich.jpg,ostrich,z,sounds/greatgatsby_english.wav,,,,,,,,,0,0,0,0,0,26,26,76,154.719279598,9.30111855268e-06,156.086068988,1.36679965281,,,,z,1,1.35063477606,2018_Dec_04_1104,59.9866284527,spanish_cond1,001,1073,
images/hairband.jpg,hairband,z,sounds/greatgatsby_english.wav,,,,,,,,,0,0,0,0,0,27,27,66,157.19729296,9.62195917964e-06,158.270033302,1.07275060448,,,,z,1,1.05056944303,2018_Dec_04_1104,59.9866284527,spanish_cond1,001,1073,
images/marker01a.jpg,marker,z,sounds/greatgatsby_english.wav,,,,,,,,,0,0,0,0,0,28,28,95,159.369864885,9.94256697595e-06,160.40397919,1.03412488848,,,,z,1,1.01722842292,2018_Dec_04_1104,59.9866284527,spanish_cond1,001,1073,
images/plant01.jpg,plant,z,sounds/greatgatsby_english.wav,,,,,,,,,0,0,0,0,0,29,29,47,161.517352065,8.65967012942e-06,163.471339257,1.95399713446,,,,z,1,1.93397866678,2018_Dec_04_1104,59.9866284527,spanish_cond1,001,1073,
images/puzzle.jpg,puzzle,z,sounds/greatgatsby_english.wav,,,,,,,,,0,0,0,0,0,30,30,57,164.593580042,9.30111855268e-06,166.155595277,1.56202485599,,,,z,1,1.55067801056,2018_Dec_04_1104,59.9866284527,spanish_cond1,001,1073,
images/hand01a.jpg,cupcake,x,sounds/greatgatsby_english.wav,,,,,,,,,0,0,0,0,0,31,31,163,167.267175262,9.62195917964e-06,168.639499518,1.37233484024,,,,x,1,1.35049974825,2018_Dec_04_1104,59.9866284527,spanish_cond1,001,1073,
images/birthdaycandle.jpg,birthday candle,z,sounds/greatgatsby_english.wav,,,,,,,,,0,0,0,0,0,32,32,55,169.73798916,9.94256697595e-06,171.857255801,2.11927690404,,,,z,1,2.10088647017,2018_Dec_04_1104,59.9866284527,spanish_cond1,001,1073,
images/orange.jpg,bat,x,sounds/greatgatsby_english.wav,,,,,,,,,0,0,0,0,0,33,33,128,172.98353556,9.30111855268e-06,173.791096232,0.80757093546,,,,x,1,0.783808566863,2018_Dec_04_1104,59.9866284527,spanish_cond1,001,1073,
images/pepper05a.jpg,lighter,x,sounds/greatgatsby_english.wav,,,,,,,,,0,0,0,0,0,34,34,198,174.914579532,9.30135138333e-06,175.708335592,0.793766323244,,,,x,1,0.783801189857,2018_Dec_04_1104,59.9866284527,spanish_cond1,001,1073,
images/dice05a.jpg,band aid,x,sounds/greatgatsby_english.wav,,,,,,,,,0,0,0,0,0,35,35,126,176.823081519,9.621726349e-06,177.658876201,0.83580430341,,,,x,1,0.817162416177,2018_Dec_04_1104,59.9866284527,spanish_cond1,001,1073,
images/lettuce.jpg,mushroom,x,sounds/greatgatsby_english.wav,,,,,,,,,0,0,0,0,0,36,36,205,178.782826807,8.98051075637e-06,179.576081884,0.793265019543,,,,x,1,0.783812094713,2018_Dec_04_1104,59.9866284527,spanish_cond1,001,1073,
images/masquerademask02b.jpg,mirror,x,sounds/greatgatsby_english.wav,,,,,,,,,0,0,0,0,0,37,37,204,180.681378736,8.98051075637e-06,181.693349725,1.01198125258,,,,x,1,1.00054267817,2018_Dec_04_1104,59.9866284527,spanish_cond1,001,1073,
images/banjo.jpg,knife,x,sounds/greatgatsby_english.wav,,,,,,,,,0,0,0,0,0,38,38,191,182.791924682,8.98051075637e-06,184.110722028,1.31880696793,,,,x,1,1.30064489529,2018_Dec_04_1104,59.9866284527,spanish_cond1,001,1073,
images/lightbulb03b.jpg,treadmill,x,sounds/greatgatsby_english.wav,,,,,,,,,0,0,0,0,0,39,39,234,185.213468101,9.30135138333e-06,186.044603513,0.831145355245,,,,x,1,0.817176528508,2018_Dec_04_1104,59.9866284527,spanish_cond1,001,1073,
images/razor04a.jpg,razor,z,sounds/greatgatsby_english.wav,,,,,,,,,0,0,0,0,0,40,40,36,187.146374241,9.30135138333e-06,188.061833219,0.915468920954,,,,z,1,0.900523466058,2018_Dec_04_1104,59.9866284527,spanish_cond1,001,1073,
images/redfox.jpg,red fox,z,sounds/greatgatsby_english.wav,,,,,,,,,0,0,0,0,0,41,41,1,189.176066297,8.65967012942e-06,190.079137014,0.903080339078,,,,z,1,0.883918224834,2018_Dec_04_1104,59.9866284527,spanish_cond1,001,1073,
images/grasshopper.jpg,cauliflower,x,sounds/greatgatsby_english.wav,,,,,,,,,0,0,0,0,0,42,42,148,191.174047291,8.98051075637e-06,191.912914935,0.738877265947,,,,x,1,0.7171249229,2018_Dec_04_1104,59.9866284527,spanish_cond1,001,1073,
images/flower01.jpg,bus,x,sounds/greatgatsby_english.wav,,,,,,,,,0,0,0,0,0,43,43,140,193.027693897,9.30135138333e-06,193.730113273,0.702428997261,,,,x,1,0.683759206207,2018_Dec_04_1104,59.9866284527,spanish_cond1,001,1073,
images/lock02a.jpg,lock,z,sounds/greatgatsby_english.wav,,,,,,,,,0,0,0,0,0,44,44,65,194.842120152,8.98051075637e-06,195.697331288,0.855221078731,,,,z,1,0.833828596631,2018_Dec_04_1104,59.9866284527,spanish_cond1,001,1073,
images/beachumbrella01.jpg,beach umbrella,z,sounds/greatgatsby_english.wav,,,,,,,,,0,0,0,0,0,45,45,92,196.804559265,9.62195917964e-06,197.714567408,0.91001776536,,,,z,1,0.90048594051,2018_Dec_04_1104,59.9866284527,spanish_cond1,001,1073,
images/cupcake.jpg,scissors,x,sounds/greatgatsby_english.wav,,,,,,,,,0,0,0,0,0,46,46,219,198.833893705,8.98051075637e-06,199.998374532,1.16449109023,,,,x,1,1.15041000745,2018_Dec_04_1104,59.9866284527,spanish_cond1,001,1073,
images/dolphin01.jpg,dolphin,z,sounds/greatgatsby_english.wav,,,,,,,,,0,0,0,0,0,47,47,99,201.101037535,9.30111855268e-06,202.199185598,1.09815768502,,,,z,1,1.08390821819,2018_Dec_04_1104,59.9866284527,spanish_cond1,001,1073,
images/crocodile.jpg,triangle ruler,x,sounds/greatgatsby_english.wav,,,,,,,,,0,0,0,0,0,48,48,235,203.299795598,8.98051075637e-06,204.416466236,1.11667993967,,,,x,1,1.10056445561,2018_Dec_04_1104,59.9866284527,spanish_cond1,001,1073,
images/plate01b.jpg,plate,z,sounds/greatgatsby_english.wav,,,,,,,,,0,0,0,0,0,49,49,3,205.51756471,8.98051075637e-06,206.400372562,0.882817794569,,,,z,1,0.867147486191,2018_Dec_04_1104,59.9866284527,spanish_cond1,001,1073,
images/corkscrew02a.jpg,masquerade mask,x,sounds/greatgatsby_english.wav,,,,,,,,,0,0,0,0,0,50,50,201,207.504965728,9.94256697595e-06,208.684369238,1.17941345228,,,,x,1,1.1672747205,2018_Dec_04_1104,59.9866284527,spanish_cond1,001,1073,
images/ladybug03.jpg,giraffe,x,sounds/greatgatsby_english.wav,,,,,,,,,0,0,0,0,0,51,51,178,209.788844054,9.30111855268e-06,210.76829221,0.979459701804,,,,x,1,0.967209676048,2018_Dec_04_1104,59.9866284527,spanish_cond1,001,1073,
images/arrow02.jpg,hammer,x,sounds/greatgatsby_english.wav,,,,,,,,,0,0,0,0,0,52,52,184,211.867047097,9.30111855268e-06,212.702186524,0.835150331724,,,,x,1,0.817185509019,2018_Dec_04_1104,59.9866284527,spanish_cond1,001,1073,
images/volleyball.jpg,volley ball,z,sounds/greatgatsby_english.wav,,,,,,,,,0,0,0,0,0,53,53,2,213.835445726,9.30111855268e-06,214.569358386,0.733922602842,,,,z,1,0.717135506915,2018_Dec_04_1104,59.9866284527,spanish_cond1,001,1073,
images/lighter02b.jpg,stapler,x,sounds/greatgatsby_english.wav,,,,,,,,,0,0,0,0,0,54,54,227,215.671267349,8.98027792573e-06,216.469766709,0.798509303248,,,,x,1,0.783678670414,2018_Dec_04_1104,59.9866284527,spanish_cond1,001,1073,
images/cat.jpg,black olive,x,sounds/greatgatsby_english.wav,,,,,,,,,0,0,0,0,0,55,55,133,217.602529098,9.30111855268e-06,218.187056809,0.584537333343,,,,x,1,0.567090813071,2018_Dec_04_1104,59.9866284527,spanish_cond1,001,1073,
images/umbrella01.jpg,umbrella,z,sounds/greatgatsby_english.wav,,,,,,,,,0,0,0,0,0,56,56,53,219.301839621,9.30111855268e-06,220.204292288,0.902462609811,,,,z,1,0.883844456635,2018_Dec_04_1104,59.9866284527,spanish_cond1,001,1073,
images/honeycomb.jpg,honey comb,z,sounds/greatgatsby_english.wav,,,,,,,,,0,0,0,0,0,57,57,59,221.318838079,8.98051075637e-06,222.271535609,0.95270715165,,,,z,1,0.933849091176,2018_Dec_04_1104,59.9866284527,spanish_cond1,001,1073,
images/gamecontroller01.jpg,game controller,z,sounds/greatgatsby_english.wav,,,,,,,,,0,0,0,0,0,58,58,112,223.393774791,9.62195917964e-06,224.889021707,1.49525718042,,,,z,1,1.48407487036,2018_Dec_04_1104,59.9866284527,spanish_cond1,001,1073,
images/scissors04a.jpg,leek,x,sounds/greatgatsby_english.wav,,,,,,,,,0,0,0,0,0,59,59,194,225.983594575,9.30135138333e-06,226.756148025,0.772563393461,,,,x,1,0.750466905301,2018_Dec_04_1104,59.9866284527,spanish_cond1,001,1073,
images/thumbtack02a.jpg,thumb tack,z,sounds/greatgatsby_english.wav,,,,,,,,,0,0,0,0,0,60,60,60,227.86792045,8.98051075637e-06,228.823413797,0.955503290519,,,,z,1,0.933819584083,2018_Dec_04_1104,59.9866284527,spanish_cond1,001,1073,
images/cake.jpg,cake,z,sounds/greatgatsby_english.wav,,,,,,,,,0,0,0,0,0,61,61,23,229.938844808,8.98051075637e-06,230.707287441,0.768451933982,,,,x,0,0.750482621137,2018_Dec_04_1104,59.9866284527,spanish_cond1,001,1073,
images/camera01a.jpg,bull,x,sounds/greatgatsby_english.wav,,,,,,,,,0,0,0,0,0,62,62,138,231.817894326,9.30135138333e-06,232.941251899,1.1233678367,,,,x,1,1.10057888855,2018_Dec_04_1104,59.9866284527,spanish_cond1,001,1073,
images/clothespin02a.jpg,clothes pin,z,sounds/greatgatsby_english.wav,,,,,,,,,0,0,0,0,0,63,63,79,234.046451569,9.30111855268e-06,235.292071417,1.2456294694,,,,z,1,1.23410269385,2018_Dec_04_1104,59.9866284527,spanish_cond1,001,1073,
images/bandaid01.jpg,door handle,x,sounds/greatgatsby_english.wav,,,,,,,,,0,0,0,0,0,64,64,170,236.399203174,9.30135138333e-06,238.176065334,1.77687242371,,,,x,1,1.76740057557,2018_Dec_04_1104,59.9866284527,spanish_cond1,001,1073,
images/bottleofredwine02.jpg,pipe,x,sounds/greatgatsby_english.wav,,,,,,,,,0,0,0,0,0,65,65,213,239.276284683,9.30111855268e-06,240.043271515,0.766996453749,,,,x,1,0.750479093054,2018_Dec_04_1104,59.9866284527,spanish_cond1,001,1073,
images/nailpolish02b.jpg,nail polish,z,sounds/greatgatsby_english.wav,,,,,,,,,0,0,0,0,0,66,66,94,241.152244593,8.98051075637e-06,241.910448829,0.75821385812,,,,x,0,0.733787574805,2018_Dec_04_1104,59.9866284527,spanish_cond1,001,1073,
images/seagull.jpg,seagull,z,sounds/greatgatsby_english.wav,,,,,,,,,0,0,0,0,0,67,67,50,243.018535084,9.62195917964e-06,243.844335766,0.82581030461,,,,z,1,0.81715247361,2018_Dec_04_1104,59.9866284527,spanish_cond1,001,1073,
images/mirror02.jpg,8 ball,x,sounds/greatgatsby_english.wav,,,,,,,,,0,0,0,0,0,68,68,121,244.948652141,9.30111855268e-06,246.1617777,1.21314159548,,,,x,1,1.20064588939,2018_Dec_04_1104,59.9866284527,spanish_cond1,001,1073,
images/hammer02a.jpg,flower,x,sounds/greatgatsby_english.wav,,,,,,,,,0,0,0,0,0,69,69,176,247.258535392,8.98051075637e-06,248.162243082,0.903717632871,,,,x,1,0.883827137062,2018_Dec_04_1104,59.9866284527,spanish_cond1,001,1073,
images/radish01.jpg,raisin,x,sounds/greatgatsby_english.wav,,,,,,,,,0,0,0,0,0,70,70,214,249.274765377,9.30111855268e-06,251.196451361,1.92169592646,,,,x,1,1.90081982221,2018_Dec_04_1104,59.9866284527,spanish_cond1,001,1073,
images/lamp04b.jpg,parking meter,x,sounds/greatgatsby_english.wav,,,,,,,,,0,0,0,0,0,71,71,209,252.319014802,9.30111855268e-06,253.430396896,1.11139235715,,,,x,1,1.10056702164,2018_Dec_04_1104,59.9866284527,spanish_cond1,001,1073,
images/aquarium.jpg,computer mouse,x,sounds/greatgatsby_english.wav,,,,,,,,,0,0,0,0,0,72,72,159,254.566963803,9.30135138333e-06,255.881111181,1.31415732088,,,,x,1,1.30064553674,2018_Dec_04_1104,59.9866284527,spanish_cond1,001,1073,
images/saltshaker03c.jpg,salt shaker,z,sounds/greatgatsby_english.wav,,,,,,,,,0,0,0,0,0,73,73,63,256.995063619,9.30111855268e-06,257.61493532,0.619881964289,,,,z,1,0.600449152524,2018_Dec_04_1104,59.9866284527,spanish_cond1,001,1073,
images/flipflop01b.jpg,flip flop,z,sounds/greatgatsby_english.wav,,,,,,,,,0,0,0,0,0,74,74,27,258.734243976,9.30135138333e-06,259.632158932,0.897925219033,,,,z,1,0.883840287104,2018_Dec_04_1104,59.9866284527,spanish_cond1,001,1073,
images/parkingmeter.jpg,ear,x,sounds/greatgatsby_english.wav,,,,,,,,,0,0,0,0,0,75,75,171,260.735616066,9.62195917964e-06,261.649419748,0.913814266212,,,,x,1,0.900535012363,2018_Dec_04_1104,59.9866284527,spanish_cond1,001,1073,
images/snowman.jpg,globe,x,sounds/greatgatsby_english.wav,,,,,,,,,0,0,0,0,0,76,76,180,262.762794548,9.94256697595e-06,263.583278462,0.820494497661,,,,x,1,0.800480840961,2018_Dec_04_1104,59.9866284527,spanish_cond1,001,1073,
images/bullet (2).jpg,rubber glove,x,sounds/greatgatsby_english.wav,,,,,,,,,0,0,0,0,0,77,77,217,264.688501866,9.62195917964e-06,265.333797005,0.645305402344,,,,x,1,0.633780871751,2018_Dec_04_1104,59.9866284527,spanish_cond1,001,1073,
images/ear.jpg,bullet,x,sounds/greatgatsby_english.wav,,,,,,,,,0,0,0,0,0,78,78,139,266.437426051,9.30111855268e-06,267.167645807,0.730230019195,,,,x,1,0.717136789812,2018_Dec_04_1104,59.9866284527,spanish_cond1,001,1073,
images/cauliflower01.jpg,glue stick,x,sounds/greatgatsby_english.wav,,,,,,,,,0,0,0,0,0,79,79,181,268.2851032,9.30111855268e-06,268.884785804,0.59969286737,,,,x,1,0.583749295678,2018_Dec_04_1104,59.9866284527,spanish_cond1,001,1073,
images/tulip02.jpg,sport shorts,x,sounds/greatgatsby_english.wav,,,,,,,,,0,0,0,0,0,80,80,225,269.982420376,8.98051075637e-06,271.25215219,1.26974175638,,,,x,1,1.25062711048,2018_Dec_04_1104,59.9866284527,spanish_cond1,001,1073,
images/acousticguitar02.jpg,acoustic guitar,z,sounds/greatgatsby_english.wav,,,,,,,,,0,0,0,0,0,81,81,97,272.36688176,8.98051075637e-06,273.486095159,1.11922270036,,,,z,1,1.1005654179,2018_Dec_04_1104,59.9866284527,spanish_cond1,001,1073,
images/drink.jpg,drink,z,sounds/greatgatsby_english.wav,,,,,,,,,0,0,0,0,0,82,82,117,274.588106115,8.98027792573e-06,276.203541776,1.61544528301,,,,z,1,1.60071632219,2018_Dec_04_1104,59.9866284527,spanish_cond1,001,1073,
images/parkfountain.jpg,park fountain,z,sounds/greatgatsby_english.wav,,,,,,,,,0,0,0,0,0,83,83,93,277.324606438,9.30135138333e-06,278.354145184,1.02954868879,,,,z,1,1.01721751783,2018_Dec_04_1104,59.9866284527,spanish_cond1,001,1073,
images/globe.jpg,cloud,x,sounds/greatgatsby_english.wav,,,,,,,,,0,0,0,0,0,84,84,154,279.483990518,9.62195917964e-06,280.238029733,0.754049157258,,,,z,0,0.733812591992,2018_Dec_04_1104,59.9866284527,spanish_cond1,001,1073,
images/butterfly.jpg,butterfly,z,sounds/greatgatsby_english.wav,,,,,,,,,0,0,0,0,0,85,85,91,281.347735362,8.98027792573e-06,282.555331186,1.20760576683,,,,z,1,1.18391428003,2018_Dec_04_1104,59.9866284527,spanish_cond1,001,1073,
images/cigar.jpg,crocodile,x,sounds/greatgatsby_english.wav,,,,,,,,,0,0,0,0,0,86,86,162,283.654187745,8.65990296006e-06,284.405865413,0.751686647767,,,,x,1,0.7337959141,2018_Dec_04_1104,59.9866284527,spanish_cond1,001,1073,
images/charcoalbarbecue.jpg,charcoal barbecue,z,sounds/greatgatsby_english.wav,,,,,,,,,0,0,0,0,0,87,87,77,285.523944063,8.98051075637e-06,286.856577132,1.33264301182,,,,z,1,1.31729888753,2018_Dec_04_1104,59.9866284527,spanish_cond1,001,1073,
images/bat.jpg,hand,x,sounds/greatgatsby_english.wav,,,,,,,,,0,0,0,0,0,88,88,185,287.956821819,9.62195917964e-06,289.023846721,1.06703484524,,,,x,1,1.05055565154,2018_Dec_04_1104,59.9866284527,spanish_cond1,001,1073,
images/flashlight05.jpg,flash light,z,sounds/greatgatsby_english.wav,,,,,,,,,0,0,0,0,0,89,89,8,290.128260278,8.65967012942e-06,291.107787975,0.979536998086,,,,z,1,0.967154510086,2018_Dec_04_1104,59.9866284527,spanish_cond1,001,1073,
images/eraser.jpg,eraser,z,sounds/greatgatsby_english.wav,,,,,,,,,0,0,0,0,0,90,90,110,292.216467904,8.98051075637e-06,292.95829526,0.74183697789,,,,z,1,0.717125243507,2018_Dec_04_1104,59.9866284527,spanish_cond1,001,1073,
images/safe.jpg,safe,z,sounds/greatgatsby_english.wav,,,,,,,,,0,0,0,0,0,91,91,78,294.07240229,9.30111855268e-06,294.692142812,0.619750464335,,,,z,1,0.600449794205,2018_Dec_04_1104,59.9866284527,spanish_cond1,001,1073,
images/bull.jpg,button,x,sounds/greatgatsby_english.wav,,,,,,,,,0,0,0,0,0,92,92,141,295.799351545,9.62195917964e-06,297.442903507,1.64356222562,,,,x,1,1.63398068747,2018_Dec_04_1104,59.9866284527,spanish_cond1,001,1073,
images/lipstick04.jpg,lipstick,z,sounds/greatgatsby_english.wav,,,,,,,,,0,0,0,0,0,93,93,56,298.543931099,8.98051075637e-06,299.393473624,0.849552146392,,,,z,1,0.833835652797,2018_Dec_04_1104,59.9866284527,spanish_cond1,001,1073,
images/peach01.jpg,peach,z,sounds/greatgatsby_english.wav,,,,,,,,,0,0,0,0,0,94,94,106,300.523753228,9.62195917964e-06,301.594079101,1.07033581566,,,,z,1,1.05052742735,2018_Dec_04_1104,59.9866284527,spanish_cond1,001,1073,
images/gorilla.jpg,gorilla,z,sounds/greatgatsby_english.wav,,,,,,,,,0,0,0,0,0,95,95,80,302.705496154,9.62195917964e-06,303.511303386,0.805817495333,,,,z,1,0.783818509663,2018_Dec_04_1104,59.9866284527,spanish_cond1,001,1073,
images/feather03b.jpg,feather,z,sounds/greatgatsby_english.wav,,,,,,,,,0,0,0,0,0,96,96,114,304.613828795,9.30135138333e-06,305.478537117,0.864718264434,,,,z,1,0.850517228013,2018_Dec_04_1104,59.9866284527,spanish_cond1,001,1073,
images/treadmill.jpg,lily,x,sounds/greatgatsby_english.wav,,,,,,,,,0,0,0,0,0,97,97,199,306.584914193,9.30111855268e-06,307.97923102,1.39432644891,,,,x,1,1.38398285233,2018_Dec_04_1104,59.9866284527,spanish_cond1,001,1073,
images/icecube02 (2).jpg,aloe,x,sounds/greatgatsby_english.wav,,,,,,,,,0,0,0,0,0,98,98,122,309.091506352,9.30135138333e-06,310.580232152,1.48873606394,,,,x,1,1.46754019009,2018_Dec_04_1104,59.9866284527,spanish_cond1,001,1073,
images/leek.jpg,donut,x,sounds/greatgatsby_english.wav,,,,,,,,,0,0,0,0,0,99,99,169,311.688033277,1.12256966531e-05,313.414111103,1.72608905262,,,,x,1,1.70068999007,2018_Dec_04_1104,59.9866284527,spanish_cond1,001,1073,
images/antelope.jpg,antelope,z,sounds/greatgatsby_english.wav,,,,,,,,,0,0,0,0,0,100,100,12,314.52028676,9.62195917964e-06,315.631421249,1.11114443163,,,,z,1,1.10058241664,2018_Dec_04_1104,59.9866284527,spanish_cond1,001,1073,
images/binder03b.jpg,dj mixer,x,sounds/greatgatsby_english.wav,,,,,,,,,0,0,0,0,0,101,101,167,316.747296793,9.62195917964e-06,317.632002414,0.884715884691,,,,x,1,0.867191105615,2018_Dec_04_1104,59.9866284527,spanish_cond1,001,1073,
images/pen03c.jpg,pepper,x,sounds/greatgatsby_english.wav,,,,,,,,,0,0,0,0,0,102,102,211,318.727734727,8.98051075637e-06,320.016006114,1.28828100977,,,,x,1,1.26730227144,2018_Dec_04_1104,59.9866284527,spanish_cond1,001,1073,
images/puma.jpg,puma,z,sounds/greatgatsby_english.wav,,,,,,,,,0,0,0,0,0,103,103,4,321.114951517,9.30135138333e-06,321.883024987,0.768083413364,,,,z,1,0.750300766202,2018_Dec_04_1104,59.9866284527,spanish_cond1,001,1073,
images/bicycle.jpg,hand bag,x,sounds/greatgatsby_english.wav,,,,,,,,,0,0,0,0,0,104,104,186,322.994259224,9.30135138333e-06,323.850428065,0.856178783579,,,,x,1,0.833806466078,2018_Dec_04_1104,59.9866284527,spanish_cond1,001,1073,
images/shotglass.jpg,shot glass,z,sounds/greatgatsby_english.wav,,,,,,,,,0,0,0,0,0,105,105,86,324.962426925,8.98051075637e-06,326.034361589,1.07194428518,,,,z,1,1.05055148224,2018_Dec_04_1104,59.9866284527,spanish_cond1,001,1073,
images/rubberglove02a.jpg,lady bug,x,sounds/greatgatsby_english.wav,,,,,,,,,0,0,0,0,0,106,106,192,327.139608085,8.65967012942e-06,328.018255085,0.87865662179,,,,x,1,0.867162881419,2018_Dec_04_1104,59.9866284527,spanish_cond1,001,1073,
images/skateboard.jpg,key,x,sounds/greatgatsby_english.wav,,,,,,,,,0,0,0,0,0,107,107,189,329.110790665,9.62195917964e-06,330.852408583,1.74162818142,,,,x,1,1.71742192027,2018_Dec_04_1104,59.9866284527,spanish_cond1,001,1073,
images/broom02.jpg,broom,z,sounds/greatgatsby_english.wav,,,,,,,,,0,0,0,0,0,108,108,116,331.948087333,9.62195917964e-06,332.78629969,0.838222620543,,,,z,1,0.817166906549,2018_Dec_04_1104,59.9866284527,spanish_cond1,001,1073,
images/lion.jpg,lion,z,sounds/greatgatsby_english.wav,,,,,,,,,0,0,0,0,0,109,109,44,333.900457075,9.30111855268e-06,334.603460502,0.703013370279,,,,z,1,0.683774922043,2018_Dec_04_1104,59.9866284527,spanish_cond1,001,1073,
images/ruler02b.jpg,watermelon,x,sounds/greatgatsby_english.wav,,,,,,,,,0,0,0,0,0,110,110,238,335.707446524,9.30135138333e-06,337.15420747,1.44677153113,,,,x,1,1.43400576874,2018_Dec_04_1104,59.9866284527,spanish_cond1,001,1073,
images/stapler03a.jpg,candy cane,x,sounds/greatgatsby_english.wav,,,,,,,,,0,0,0,0,0,111,111,145,338.266955881,9.30111855268e-06,339.571542248,1.30459663016,,,,x,1,1.28395177354,2018_Dec_04_1104,59.9866284527,spanish_cond1,001,1073,
images/axe01.jpg,axe,z,sounds/greatgatsby_english.wav,,,,,,,,,0,0,0,0,0,112,112,104,340.676320156,9.62195917964e-06,341.555436707,0.879127135267,,,,z,1,0.867161277682,2018_Dec_04_1104,59.9866284527,spanish_cond1,001,1073,
images/paperclip04.jpg,eye drops,x,sounds/greatgatsby_english.wav,,,,,,,,,0,0,0,0,0,113,113,174,342.662910043,9.30135138333e-06,343.372625102,0.709726925939,,,,x,1,0.700460987631,2018_Dec_04_1104,59.9866284527,spanish_cond1,001,1073,
images/headphones02b.jpg,headphones,z,sounds/greatgatsby_english.wav,,,,,,,,,0,0,0,0,0,114,114,101,344.481266544,9.30111855268e-06,345.506575801,1.02531920001,,,,z,1,1.01719410461,2018_Dec_04_1104,59.9866284527,spanish_cond1,001,1073,
images/highlighter03b.jpg,coin,x,sounds/greatgatsby_english.wav,,,,,,,,,0,0,0,0,0,115,115,156,346.610285673,8.98051075637e-06,347.740551485,1.13027543481,,,,x,1,1.11726206751,2018_Dec_04_1104,59.9866284527,spanish_cond1,001,1073,
images/eyedrops.jpg,bicycle,x,sounds/greatgatsby_english.wav,,,,,,,,,0,0,0,0,0,116,116,131,348.842707732,9.30111855268e-06,349.974500869,1.13180404203,,,,x,1,1.11725020059,2018_Dec_04_1104,59.9866284527,spanish_cond1,001,1073,
images/mattress.jpg,cat,x,sounds/greatgatsby_english.wav,,,,,,,,,0,0,0,0,0,117,117,147,351.080491143,8.98051075637e-06,352.058653164,0.978172284784,,,,x,1,0.967403397895,2018_Dec_04_1104,59.9866284527,spanish_cond1,001,1073,
images/pingpongpaddle01c (1).jpg,ping pong paddle,z,sounds/greatgatsby_english.wav,,,,,,,,,0,0,0,0,0,118,118,10,353.171997815,9.62195917964e-06,354.008995561,0.837007688824,,,,z,1,0.817175245378,2018_Dec_04_1104,59.9866284527,spanish_cond1,001,1073,
images/hanger02a.jpg,hanger,z,sounds/greatgatsby_english.wav,,,,,,,,,0,0,0,0,0,119,119,88,355.104040225,9.30111855268e-06,355.992871097,0.888840814587,,,,z,1,0.867164484924,2018_Dec_04_1104,59.9866284527,spanish_cond1,001,1073,
images/chessknight02b (1).jpg,cockroach,x,sounds/greatgatsby_english.wav,,,,,,,,,0,0,0,0,0,120,120,155,357.103833994,9.62195917964e-06,358.160158326,1.05633427412,,,,x,1,1.03388466034,2018_Dec_04_1104,59.9866284527,spanish_cond1,001,1073,
images/bench02.jpg,electric toothbrush,x,sounds/greatgatsby_english.wav,,,,,,,,,0,0,0,0,0,121,121,172,359.271241498,9.62195917964e-06,361.144353952,1.87312271749,,,,x,1,1.85079883039,2018_Dec_04_1104,59.9866284527,spanish_cond1,001,1073,
images/fireextinguisher02.jpg,fire extinguisher,z,sounds/greatgatsby_english.wav,,,,,,,,,0,0,0,0,0,122,122,175,362.256781631,9.94279980659e-06,363.061542957,0.8047709479,,,,z,1,0.783801510697,2018_Dec_04_1104,59.9866284527,spanish_cond1,001,1073,
images/fork01.jpg,cooking pot,x,sounds/greatgatsby_english.wav,,,,,,,,,0,0,0,0,0,123,123,160,364.157580285,8.98051075637e-06,365.57895564,1.42138626007,,,,x,1,1.40066859731,2018_Dec_04_1104,59.9866284527,spanish_cond1,001,1073,
images/ant.jpg,ant,z,sounds/greatgatsby_english.wav,,,,,,,,,0,0,0,0,0,124,124,98,366.675395166,9.62195917964e-06,367.579524939,0.904139715713,,,,z,1,0.883864342002,2018_Dec_04_1104,59.9866284527,spanish_cond1,001,1073,
images/lily.jpg,kiwi,x,sounds/greatgatsby_english.wav,,,,,,,,,0,0,0,0,0,125,125,190,368.681068909,8.98051075637e-06,369.463369075,0.782310108421,,,,x,1,0.767145914724,2018_Dec_04_1104,59.9866284527,spanish_cond1,001,1073,
images/spoon02b.jpg,spoon,z,sounds/greatgatsby_english.wav,,,,,,,,,0,0,0,0,0,126,126,38,370.556837021,9.30111855268e-06,371.914075021,1.35724762175,,,,z,1,1.33398110443,2018_Dec_04_1104,59.9866284527,spanish_cond1,001,1073,
images/weight01.jpg,weight,z,sounds/greatgatsby_english.wav,,,,,,,,,0,0,0,0,0,127,127,67,373.019793956,8.98051075637e-06,374.664843735,1.64505972201,,,,z,1,1.63405221049,2018_Dec_04_1104,59.9866284527,spanish_cond1,001,1073,
images/table02.jpg,table,z,sounds/greatgatsby_english.wav,,,,,,,,,0,0,0,0,0,128,128,49,375.781204867,9.30135138333e-06,376.998855629,1.21766070509,,,,z,1,1.20059617609,2018_Dec_04_1104,59.9866284527,spanish_cond1,001,1073,
images/gluestick.jpg,squirrel,x,sounds/greatgatsby_english.wav,,,,,,,,,0,0,0,0,0,129,129,226,378.107122777,9.30135138333e-06,379.216136267,1.1090227915,,,,x,1,1.10056413501,2018_Dec_04_1104,59.9866284527,spanish_cond1,001,1073,
images/dresser02.jpg,dresser,z,sounds/greatgatsby_english.wav,,,,,,,,,0,0,0,0,0,130,130,87,380.339973976,9.30111855268e-06,381.2667272,0.926763487048,,,,z,1,0.917183231795,2018_Dec_04_1104,59.9866284527,spanish_cond1,001,1073,
images/diploma01.jpg,glasses,x,sounds/greatgatsby_english.wav,,,,,,,,,0,0,0,0,0,131,131,179,382.398099857,9.30135138333e-06,383.60071536,1.20262512472,,,,x,1,1.1839242226,2018_Dec_04_1104,59.9866284527,spanish_cond1,001,1073,
images/glasses01b.jpg,calculator,x,sounds/greatgatsby_english.wav,,,,,,,,,0,0,0,0,0,132,132,142,384.695853036,8.65967012942e-06,385.934722444,1.23887870926,,,,x,1,1.21727871359,2018_Dec_04_1104,59.9866284527,spanish_cond1,001,1073,
images/wallet01.jpg,lamp,x,sounds/greatgatsby_english.wav,,,,,,,,,0,0,0,0,0,133,133,193,387.042360957,8.98027792573e-06,388.085327135,1.04297612049,,,,x,1,1.03386894451,2018_Dec_04_1104,59.9866284527,spanish_cond1,001,1073,
images/sunglasses03a.jpg,sun glasses,z,sounds/greatgatsby_english.wav,,,,,,,,,0,0,0,0,0,134,134,17,389.195412511,9.30111855268e-06,390.335979904,1.14057733631,,,,x,0,1.11725180433,2018_Dec_04_1104,59.9866284527,spanish_cond1,001,1073,
images/microphone01.jpg,diaper,x,sounds/greatgatsby_english.wav,,,,,,,,,0,0,0,0,0,135,135,164,391.435359898,9.30111855268e-06,393.13677859,1.70142895589,,,,x,1,1.68408154161,2018_Dec_04_1104,59.9866284527,spanish_cond1,001,1073,
images/beermug01b.jpg,beer mug,z,sounds/greatgatsby_english.wav,,,,,,,,,0,0,0,0,0,136,136,111,394.255738291,8.98051075637e-06,395.537639947,1.28191127861,,,,z,1,1.26747674937,2018_Dec_04_1104,59.9866284527,spanish_cond1,001,1073,
images/tie01.jpg,bench,x,sounds/greatgatsby_english.wav,,,,,,,,,0,0,0,0,0,137,137,130,396.637091464,9.30135138333e-06,397.488238288,0.851156766992,,,,x,1,0.834065296454,2018_Dec_04_1104,59.9866284527,spanish_cond1,001,1073,
images/coin01b.jpg,arrow,x,sounds/greatgatsby_english.wav,,,,,,,,,0,0,0,0,0,138,138,124,398.592817663,9.30111855268e-06,400.172092752,1.57928471058,,,,x,1,1.56736600073,2018_Dec_04_1104,59.9866284527,spanish_cond1,001,1073,
images/apricot.jpg,apricot,z,sounds/greatgatsby_english.wav,,,,,,,,,0,0,0,0,0,139,139,32,401.289798712,8.98051075637e-06,402.272695374,0.982906284276,,,,z,1,0.967208072543,2018_Dec_04_1104,59.9866284527,spanish_cond1,001,1073,
images/medal01.jpg,medal,z,sounds/greatgatsby_english.wav,,,,,,,,,0,0,0,0,0,140,140,115,403.374200536,8.98051075637e-06,404.323275402,0.949084166903,,,,z,1,0.933851336362,2018_Dec_04_1104,59.9866284527,spanish_cond1,001,1073,
images/toothbrush03a.jpg,parrot,x,sounds/greatgatsby_english.wav,,,,,,,,,0,0,0,0,0,141,141,210,405.418476582,9.30111855268e-06,406.190467149,0.772000509314,,,,x,1,0.750457924558,2018_Dec_04_1104,59.9866284527,spanish_cond1,001,1073,
images/leaf01a.jpg,leaf,z,sounds/greatgatsby_english.wav,,,,,,,,,0,0,0,0,0,142,142,68,407.294270995,9.30111855268e-06,408.257734845,0.963474435033,,,,z,1,0.950470689917,2018_Dec_04_1104,59.9866284527,spanish_cond1,001,1073,
images/printer03a.jpg,printer,z,sounds/greatgatsby_english.wav,,,,,,,,,0,0,0,0,0,143,143,72,409.368156348,9.30111855268e-06,411.025188021,1.65704161581,,,,z,1,1.63406503992,2018_Dec_04_1104,59.9866284527,spanish_cond1,001,1073,
images/cocktailshrimp01.jpg,cocktail shrimp,z,sounds/greatgatsby_english.wav,,,,,,,,,0,0,0,0,0,144,144,30,412.140397727,9.30111855268e-06,413.225804724,1.08541758149,,,,z,1,1.06723305746,2018_Dec_04_1104,59.9866284527,spanish_cond1,001,1073,
images/electricguitar02.jpg,electric guitar,z,sounds/greatgatsby_english.wav,,,,,,,,,0,0,0,0,0,145,145,100,414.393746566,8.98051075637e-06,415.359740028,0.966003083624,,,,z,1,0.950517516583,2018_Dec_04_1104,59.9866284527,spanish_cond1,001,1073,
images/lollipop03b.jpg,lollipop,z,sounds/greatgatsby_english.wav,,,,,,,,,0,0,0,0,0,146,146,42,416.454847234,9.30111855268e-06,417.710426762,1.25559011265,,,,z,1,1.23395451577,2018_Dec_04_1104,59.9866284527,spanish_cond1,001,1073,
images/lantern03.jpg,lantern,z,sounds/greatgatsby_english.wav,,,,,,,,,0,0,0,0,0,147,147,5,418.819996401,9.62195917964e-06,419.727658713,0.907671933761,,,,z,1,0.883847022429,2018_Dec_04_1104,59.9866284527,spanish_cond1,001,1073,
images/cockroach02.jpg,belt,x,sounds/greatgatsby_english.wav,,,,,,,,,0,0,0,0,0,148,148,129,420.828295013,9.62195917964e-06,421.828248827,0.999963436741,,,,x,1,0.983864630572,2018_Dec_04_1104,59.9866284527,spanish_cond1,001,1073,
images/cheetah.jpg,cheetah,z,sounds/greatgatsby_english.wav,,,,,,,,,0,0,0,0,0,149,149,82,422.93074922,9.30111855268e-06,423.828827748,0.898088150425,,,,z,1,0.883849909063,2018_Dec_04_1104,59.9866284527,spanish_cond1,001,1073,
images/egg01b (1).jpg,egg,z,sounds/greatgatsby_english.wav,,,,,,,,,0,0,0,0,0,150,150,19,424.943162818,9.30135138333e-06,425.695863941,0.752711706329,,,,z,1,0.733641000697,2018_Dec_04_1104,59.9866284527,spanish_cond1,001,1073,
images/calculator02b.jpg,dice,x,sounds/greatgatsby_english.wav,,,,,,,,,0,0,0,0,0,151,151,165,426.799852528,8.98051075637e-06,427.863298385,1.06345612113,,,,x,1,1.05056046252,2018_Dec_04_1104,59.9866284527,spanish_cond1,001,1073,
images/bowl02b (1).jpg,bowl,z,sounds/greatgatsby_english.wav,,,,,,,,,0,0,0,0,0,152,152,24,428.983096799,8.65967012942e-06,429.680503138,0.697415640345,,,,z,1,0.683787110029,2018_Dec_04_1104,59.9866284527,spanish_cond1,001,1073,
images/ashtray02b.jpg,ashtray,z,sounds/greatgatsby_english.wav,,,,,,,,,0,0,0,0,0,153,153,43,430.848165944,9.30135138333e-06,431.797744358,0.949588677613,,,,z,1,0.933864165563,2018_Dec_04_1104,59.9866284527,spanish_cond1,001,1073,
images/battery03b.jpg,battery,z,sounds/greatgatsby_english.wav,,,,,,,,,0,0,0,0,0,154,154,34,432.907488155,9.30135138333e-06,433.814999081,0.907520548441,,,,z,1,0.883852795698,2018_Dec_04_1104,59.9866284527,spanish_cond1,001,1073,
images/mailbox01.jpg,mail box,z,sounds/greatgatsby_english.wav,,,,,,,,,0,0,0,0,0,155,155,73,434.936061178,3.62426508218e-05,436.315697154,1.3796645212,,,,z,1,1.36730961618,2018_Dec_04_1104,59.9866284527,spanish_cond1,001,1073,
images/belt02a.jpg,snowman,x,sounds/greatgatsby_english.wav,,,,,,,,,0,0,0,0,0,156,156,224,437.420811509,8.65967012942e-06,438.532989659,1.11218745098,,,,x,1,1.1005679837,2018_Dec_04_1104,59.9866284527,spanish_cond1,001,1073,
images/lightswitch02a.jpg,fork,x,sounds/greatgatsby_english.wav,,,,,,,,,0,0,0,0,0,157,157,177,439.646843632,9.30135138333e-06,440.666946452,1.02011244209,,,,x,1,1.00055005495,2018_Dec_04_1104,59.9866284527,spanish_cond1,001,1073,
images/licenseplate.jpg,license plate,z,sounds/greatgatsby_english.wav,,,,,,,,,0,0,0,0,0,158,158,40,441.78645749,8.98051075637e-06,442.950928053,1.16448050598,,,,z,1,1.15059539024,2018_Dec_04_1104,59.9866284527,spanish_cond1,001,1073,
images/doll.jpg,carrot,x,sounds/greatgatsby_english.wav,,,,,,,,,0,0,0,0,0,159,159,146,444.063650485,8.98051075637e-06,444.951527501,0.887887279503,,,,x,1,0.86720778374,2018_Dec_04_1104,59.9866284527,spanish_cond1,001,1073,
images/broadsword.jpg,teapot,x,sounds/greatgatsby_english.wav,,,,,,,,,0,0,0,0,0,160,160,231,446.044383171,8.98051075637e-06,446.918731083,0.87435753434,,,,x,1,0.850510171847,2018_Dec_04_1104,59.9866284527,spanish_cond1,001,1073,
images/djmixer01.jpg,light bulb,x,sounds/greatgatsby_english.wav,,,,,,,,,0,0,0,0,0,161,161,196,448.040308916,9.30135138333e-06,449.402745976,1.36244668253,,,,x,1,1.35063637979,2018_Dec_04_1104,59.9866284527,spanish_cond1,001,1073,
images/carrot02.jpg,corkscrew,x,sounds/greatgatsby_english.wav,,,,,,,,,0,0,0,0,0,162,162,161,450.507511055,8.65967012942e-06,451.920139416,1.41263830359,,,,x,1,1.40065512666,2018_Dec_04_1104,59.9866284527,spanish_cond1,001,1073,
images/pipe.jpg,icecube,x,sounds/greatgatsby_english.wav,,,,,,,,,0,0,0,0,0,163,163,188,453.030396062,9.62195917964e-06,453.804009531,0.773623732151,,,,x,1,0.750478772214,2018_Dec_04_1104,59.9866284527,spanish_cond1,001,1073,
images/croissant02b.jpg,croissant,z,sounds/greatgatsby_english.wav,,,,,,,,,0,0,0,0,0,164,164,39,454.91545962,9.30111855268e-06,455.554509151,0.63905915292,,,,x,0,0.61711372924,2018_Dec_04_1104,59.9866284527,spanish_cond1,001,1073,
images/candle08a.jpg,screw driver,x,sounds/greatgatsby_english.wav,,,,,,,,,0,0,0,0,0,165,165,221,456.669825981,9.30135138333e-06,457.555067545,0.885251827305,,,,x,1,0.867170899408,2018_Dec_04_1104,59.9866284527,spanish_cond1,001,1073,
images/hat05.jpg,hat,z,sounds/greatgatsby_english.wav,,,,,,,,,0,0,0,0,0,166,166,15,458.660599492,9.30135138333e-06,459.572299495,0.91171026649,,,,z,1,0.900504863821,2018_Dec_04_1104,59.9866284527,spanish_cond1,001,1073,
images/daisy.jpg,daisy,z,sounds/greatgatsby_english.wav,,,,,,,,,0,0,0,0,0,167,167,6,460.675718142,9.30135138333e-06,461.706250515,1.03054231568,,,,z,1,1.017209179,2018_Dec_04_1104,59.9866284527,spanish_cond1,001,1073,
images/computermouse02a.jpg,world map,x,sounds/greatgatsby_english.wav,,,,,,,,,0,0,0,0,0,168,168,239,462.809506551,8.98051075637e-06,463.856866112,1.04736918234,,,,x,1,1.03388947132,2018_Dec_04_1104,59.9866284527,spanish_cond1,001,1073,
images/50dollarbill.jpg,cherry,x,sounds/greatgatsby_english.wav,,,,,,,,,0,0,0,0,0,169,169,151,464.978979567,9.62195917964e-06,466.224196896,1.24522727192,,,,x,1,1.23395066685,2018_Dec_04_1104,59.9866284527,spanish_cond1,001,1073,
images/fryingpan01.jpg,frying pan,z,sounds/greatgatsby_english.wav,,,,,,,,,0,0,0,0,0,170,170,45,467.325915665,8.98051075637e-06,468.124736399,0.79883035575,,,,z,1,0.783804718172,2018_Dec_04_1104,59.9866284527,spanish_cond1,001,1073,
images/showerhead01.jpg,skateboard,x,sounds/greatgatsby_english.wav,,,,,,,,,0,0,0,0,0,171,171,223,469.232774865,8.65990296006e-06,470.075315817,0.842550894478,,,,x,1,0.833846557653,2018_Dec_04_1104,59.9866284527,spanish_cond1,001,1073,
images/button07.jpg,radish,x,sounds/greatgatsby_english.wav,,,,,,,,,0,0,0,0,0,172,172,215,471.187826244,8.65990296006e-06,472.125896164,0.938080825144,,,,x,1,0.917206645012,2018_Dec_04_1104,59.9866284527,spanish_cond1,001,1073,
images/rhinoceros01.jpg,envelope,x,sounds/greatgatsby_english.wav,,,,,,,,,0,0,0,0,0,173,173,173,473.238822581,9.62195917964e-06,474.293155169,1.05434317188,,,,x,1,1.03388177371,2018_Dec_04_1104,59.9866284527,spanish_cond1,001,1073,
images/scooter.jpg,pen,x,sounds/greatgatsby_english.wav,,,,,,,,,0,0,0,0,0,174,174,212,475.386897662,8.65967012942e-06,476.993936568,1.60704852757,,,,x,1,1.58404950052,2018_Dec_04_1104,59.9866284527,spanish_cond1,001,1073,
images/pineapple01a.jpg,pineapple,z,sounds/greatgatsby_english.wav,,,,,,,,,0,0,0,0,0,175,175,51,478.107548709,8.98051075637e-06,478.811105398,0.703566953307,,,,x,0,0.683781657368,2018_Dec_04_1104,59.9866284527,spanish_cond1,001,1073,
images/squirrel.jpg,binder,x,sounds/greatgatsby_english.wav,,,,,,,,,0,0,0,0,0,176,176,132,479.91654241,8.98051075637e-06,480.811687527,0.895155380247,,,,x,1,0.883853757754,2018_Dec_04_1104,59.9866284527,spanish_cond1,001,1073,
images/nametag01a.jpg,name tag,z,sounds/greatgatsby_english.wav,,,,,,,,,0,0,0,0,0,177,177,108,481.933929274,9.30111855268e-06,482.728896096,0.794976764591,,,,x,0,0.783815622795,2018_Dec_04_1104,59.9866284527,spanish_cond1,001,1073,
images/tape01a.jpg,tie,x,sounds/greatgatsby_english.wav,,,,,,,,,0,0,0,0,0,178,178,232,483.85594465,9.30111855268e-06,484.712780291,0.856845905306,,,,x,1,0.833805183182,2018_Dec_04_1104,59.9866284527,spanish_cond1,001,1073,
images/knife04.jpg,tooth brush,x,sounds/greatgatsby_english.wav,,,,,,,,,0,0,0,0,0,179,179,233,485.810530968,8.65967012942e-06,486.5633065,0.752785474295,,,,x,1,0.73377699079,2018_Dec_04_1104,59.9866284527,spanish_cond1,001,1073,
images/radio03a.jpg,radio,z,sounds/greatgatsby_english.wav,,,,,,,,,0,0,0,0,0,180,180,37,487.677610459,8.98051075637e-06,488.313812855,0.63621330075,,,,z,1,0.617102824384,2018_Dec_04_1104,59.9866284527,spanish_cond1,001,1073,
images/barrel01.jpg,barrel,z,sounds/greatgatsby_english.wav,,,,,,,,,0,0,0,0,0,181,181,9,489.44443885,8.98051075637e-06,490.314379909,0.869950680993,,,,z,1,0.850503436523,2018_Dec_04_1104,59.9866284527,spanish_cond1,001,1073,
images/gps.jpg,gps,z,sounds/greatgatsby_english.wav,,,,,,,,,0,0,0,0,0,182,182,21,491.433876193,8.98051075637e-06,492.348288303,0.914422052912,,,,z,1,0.90051416494,2018_Dec_04_1104,59.9866284527,spanish_cond1,001,1073,
images/candycane01a.jpg,lip,x,sounds/greatgatsby_english.wav,,,,,,,,,0,0,0,0,0,183,183,200,493.442581172,9.30135138333e-06,494.215495766,0.772924537305,,,,x,1,0.750443491852,2018_Dec_04_1104,59.9866284527,spanish_cond1,001,1073,
images/boxingglove02a.jpg,bracelet,x,sounds/greatgatsby_english.wav,,,,,,,,,0,0,0,0,0,184,184,135,495.328114922,9.30111855268e-06,496.532809728,1.20470442809,,,,x,1,1.18393480685,2018_Dec_04_1104,59.9866284527,spanish_cond1,001,1073,
images/screwdriver02b.jpg,cola,x,sounds/greatgatsby_english.wav,,,,,,,,,0,0,0,0,0,185,185,158,497.626879047,9.30111855268e-06,498.416673429,0.7898040039,,,,x,1,0.767139820615,2018_Dec_04_1104,59.9866284527,spanish_cond1,001,1073,
images/desktopcomputer.jpg,desktop computer,z,sounds/greatgatsby_english.wav,,,,,,,,,0,0,0,0,0,186,186,16,499.554338521,9.62195917964e-06,500.417243048,0.862914148718,,,,z,1,0.850489645032,2018_Dec_04_1104,59.9866284527,spanish_cond1,001,1073,
images/hairpin.jpg,hair pin,z,sounds/greatgatsby_english.wav,,,,,,,,,0,0,0,0,0,187,187,28,501.510085568,8.98051075637e-06,502.251098586,0.741022640141,,,,z,1,0.717126847012,2018_Dec_04_1104,59.9866284527,spanish_cond1,001,1073,
images/screw03c.jpg,screw,z,sounds/greatgatsby_english.wav,,,,,,,,,0,0,0,0,0,188,188,84,503.346068519,9.30111855268e-06,504.001607186,0.655548609793,,,,z,1,0.633784720208,2018_Dec_04_1104,59.9866284527,spanish_cond1,001,1073,
images/cactus.jpg,cactus,z,sounds/greatgatsby_english.wav,,,,,,,,,0,0,0,0,0,189,189,70,505.11419459,8.98051075637e-06,505.752101354,0.637916385895,,,,z,1,0.617084863363,2018_Dec_04_1104,59.9866284527,spanish_cond1,001,1073,
images/raisin.jpg,ruler,x,sounds/greatgatsby_english.wav,,,,,,,,,0,0,0,0,0,190,190,218,506.857551836,9.94256697595e-06,507.986061001,1.12851910805,,,,x,1,1.11723961635,2018_Dec_04_1104,59.9866284527,spanish_cond1,001,1073,
images/cloud.jpg,ceiling fan,x,sounds/greatgatsby_english.wav,,,,,,,,,0,0,0,0,0,191,191,149,509.092076292,9.30135138333e-06,509.853278086,0.7612120579,,,,x,1,0.750483903801,2018_Dec_04_1104,59.9866284527,spanish_cond1,001,1073,
images/dryingmachine01.jpg,drying machine,z,sounds/greatgatsby_english.wav,,,,,,,,,0,0,0,0,0,192,192,18,510.974857202,9.30111855268e-06,512.037224439,1.0623768589,,,,z,1,1.05055982107,2018_Dec_04_1104,59.9866284527,spanish_cond1,001,1073,
images/lemon02.jpg,lemon,z,sounds/greatgatsby_english.wav,,,,,,,,,0,0,0,0,0,193,193,14,513.149758601,8.98027792573e-06,513.721023096,0.571273795329,,,,z,1,0.550404426642,2018_Dec_04_1104,59.9866284527,spanish_cond1,001,1073,
images/dreamcatcher.jpg,dream catcher,z,sounds/greatgatsby_english.wav,,,,,,,,,0,0,0,0,0,194,194,48,514.820329642,8.98051075637e-06,515.671582307,0.851261966862,,,,z,1,0.833823144203,2018_Dec_04_1104,59.9866284527,spanish_cond1,001,1073,
images/mushroom01.jpg,shower head,x,sounds/greatgatsby_english.wav,,,,,,,,,0,0,0,0,0,195,195,222,516.789089093,8.98051075637e-06,517.922223209,1.13314373815,,,,x,1,1.11724538961,2018_Dec_04_1104,59.9866284527,spanish_cond1,001,1073,
images/ceilingfan02.jpg,paper clip,x,sounds/greatgatsby_english.wav,,,,,,,,,0,0,0,0,0,196,196,208,519.022810758,9.30135138333e-06,520.18955146,1.16675128648,,,,x,1,1.15057678777,2018_Dec_04_1104,59.9866284527,spanish_cond1,001,1073,
images/coffeepot03b.jpg,coffee pot,z,sounds/greatgatsby_english.wav,,,,,,,,,0,0,0,0,0,197,197,107,521.312711142,8.98051075637e-06,522.090083586,0.777382707689,,,,z,1,0.767148480518,2018_Dec_04_1104,59.9866284527,spanish_cond1,001,1073,
images/banana04a.jpg,banana,z,sounds/greatgatsby_english.wav,,,,,,,,,0,0,0,0,0,198,198,118,523.197571997,8.98051075637e-06,524.290708949,1.09314657352,,,,z,1,1.08391238772,2018_Dec_04_1104,59.9866284527,spanish_cond1,001,1073,
images/lip.jpg,boxing glove,x,sounds/greatgatsby_english.wav,,,,,,,,,0,0,0,0,0,199,199,136,525.395993612,9.94256697595e-06,526.20790533,0.811921981396,,,,x,1,0.800482444698,2018_Dec_04_1104,59.9866284527,spanish_cond1,001,1073,
images/pictureframe04.jpg,picture frame,z,sounds/greatgatsby_english.wav,,,,,,,,,0,0,0,0,0,200,200,41,527.331689477,9.30111855268e-06,528.992059646,1.66038011201,,,,z,1,1.65074950201,2018_Dec_04_1104,59.9866284527,spanish_cond1,001,1073,
images/candy.jpg,candy,z,sounds/greatgatsby_english.wav,,,,,,,,,0,0,0,0,0,201,201,31,530.095179692,9.30111855268e-06,531.142658564,1.04748945683,,,,z,1,1.03389139567,2018_Dec_04_1104,59.9866284527,spanish_cond1,001,1073,
images/bowlingball.jpg,bowling ball,z,sounds/greatgatsby_english.wav,,,,,,,,,0,0,0,0,0,202,202,20,532.276840831,8.98027792573e-06,533.043196784,0.76636557444,,,,z,1,0.750481979456,2018_Dec_04_1104,59.9866284527,spanish_cond1,001,1073,
images/blackolive.jpg,tank,x,sounds/greatgatsby_english.wav,,,,,,,,,0,0,0,0,0,203,203,229,534.158852948,9.62195917964e-06,535.677112363,1.51826967834,,,,x,1,1.50052776397,2018_Dec_04_1104,59.9866284527,spanish_cond1,001,1073,
images/tank.jpg,wallet,x,sounds/greatgatsby_english.wav,,,,,,,,,0,0,0,0,0,204,204,237,536.784659789,8.98027792573e-06,537.644515761,0.85986559419,,,,x,1,0.850506323157,2018_Dec_04_1104,59.9866284527,spanish_cond1,001,1073,
images/computerkeyboard01a.jpg,computer keyboard,z,sounds/greatgatsby_english.wav,,,,,,,,,0,0,0,0,0,205,205,61,538.761980852,9.94256697595e-06,539.645062608,0.883092020173,,,,z,1,0.867172823986,2018_Dec_04_1104,59.9866284527,spanish_cond1,001,1073,
images/paintbrush03a.jpg,paint brush,z,sounds/greatgatsby_english.wav,,,,,,,,,0,0,0,0,0,206,206,0,540.74779489,8.98051075637e-06,541.695647447,0.947862499626,,,,z,1,0.933861599769,2018_Dec_04_1104,59.9866284527,spanish_cond1,001,1073,
images/parkbench03.jpg,park bench,z,sounds/greatgatsby_english.wav,,,,,,,,,0,0,0,0,0,207,207,71,542.802991849,9.30135138333e-06,543.6128666,0.809884373099,,,,z,1,0.800492387265,2018_Dec_04_1104,59.9866284527,spanish_cond1,001,1073,
images/watermelon01.jpg,orange,x,sounds/greatgatsby_english.wav,,,,,,,,,0,0,0,0,0,208,208,207,544.743840909,9.30135138333e-06,545.713713621,0.969882974634,,,,x,1,0.950783723965,2018_Dec_04_1104,59.9866284527,spanish_cond1,001,1073,
images/handbag02a.jpg,candle,x,sounds/greatgatsby_english.wav,,,,,,,,,0,0,0,0,0,209,209,144,546.831608171,9.62195917964e-06,547.597329396,0.765731487889,,,,x,1,0.750479093054,2018_Dec_04_1104,59.9866284527,spanish_cond1,001,1073,
images/doorhandle.jpg,doll,x,sounds/greatgatsby_english.wav,,,,,,,,,0,0,0,0,0,210,210,168,548.702414244,9.30111855268e-06,549.481209454,0.778805152746,,,,x,1,0.767134689027,2018_Dec_04_1104,59.9866284527,spanish_cond1,001,1073,
images/comb02a.jpg,diploma,x,sounds/greatgatsby_english.wav,,,,,,,,,0,0,0,0,0,211,211,166,550.58611373,9.30135138333e-06,551.415079713,0.828975284705,,,,x,1,0.817166264867,2018_Dec_04_1104,59.9866284527,spanish_cond1,001,1073,
images/elbow.jpg,elbow,z,sounds/greatgatsby_english.wav,,,,,,,,,0,0,0,0,0,212,212,105,552.528338729,9.30135138333e-06,553.365626096,0.837297309656,,,,z,1,0.817153435666,2018_Dec_04_1104,59.9866284527,spanish_cond1,001,1073,
images/teapot.jpg,light switch,x,sounds/greatgatsby_english.wav,,,,,,,,,0,0,0,0,0,213,213,197,554.482911256,9.30135138333e-06,555.399538339,0.916637346381,,,,x,1,0.900516730733,2018_Dec_04_1104,59.9866284527,spanish_cond1,001,1073,
images/lychee02a.jpg,lychee,z,sounds/greatgatsby_english.wav,,,,,,,,,0,0,0,0,0,214,214,62,556.524231759,8.98027792573e-06,557.816892681,1.29267054331,,,,x,0,1.28394503822,2018_Dec_04_1104,59.9866284527,spanish_cond1,001,1073,
images/magnifyingglass01b.jpg,magnifying glass,z,sounds/greatgatsby_english.wav,,,,,,,,,0,0,0,0,0,215,215,64,558.925240332,9.62195917964e-06,560.184229559,1.25899884873,,,,z,1,1.25055783265,2018_Dec_04_1104,59.9866284527,spanish_cond1,001,1073,
images/cherry01.jpg,highlighter,x,sounds/greatgatsby_english.wav,,,,,,,,,0,0,0,0,0,216,216,187,561.295265904,8.98051075637e-06,562.00159564,0.706346093211,,,,x,1,0.683939136565,2018_Dec_04_1104,59.9866284527,spanish_cond1,001,1073,
images/diaper01a.jpg,camera,x,sounds/greatgatsby_english.wav,,,,,,,,,0,0,0,0,0,217,217,143,563.12246626,8.98027792573e-06,564.718871627,1.59641531017,,,,x,1,1.58405110426,2018_Dec_04_1104,59.9866284527,spanish_cond1,001,1073,
,,,sounds/greatgatsby_english.wav,,,,,,,,,0,0,0,0,,,,,,,,,,,,,,,2018_Dec_04_1104,59.9866284527,spanish_cond1,001,1073,
images/bat.jpg,hand,x,sounds/animalfarm_spanish.wav,,,,,,,,,0,1,1,1,0,0,0,185,585.843155474,9.62195917964e-06,587.07521639,1.23207053798,,,575.722347397,x,1,1.21727871359,2018_Dec_04_1104,59.9866284527,spanish_cond1,001,1073,
images/umbrella01.jpg,umbrella,z,sounds/animalfarm_spanish.wav,,,,,,,,,0,1,1,1,0,1,1,53,588.186996191,9.62195917964e-06,589.109127029,0.92214110191,,,,z,1,0.900524428347,2018_Dec_04_1104,59.9866284527,spanish_cond1,001,1073,
images/grasshopper.jpg,cauliflower,x,sounds/animalfarm_spanish.wav,,,,,,,,,0,1,1,1,0,2,2,148,590.202063844,9.30135138333e-06,591.393110555,1.19105633302,,,,x,1,1.16726413625,2018_Dec_04_1104,59.9866284527,spanish_cond1,001,1073,
images/lightbulb03b.jpg,treadmill,x,sounds/animalfarm_spanish.wav,,,,,,,,,0,1,1,1,0,3,3,234,592.495005727,9.62195917964e-06,593.677083497,1.18208803376,,,,x,1,1.16725740116,2018_Dec_04_1104,59.9866284527,spanish_cond1,001,1073,
images/atm.jpg,atm,z,sounds/animalfarm_spanish.wav,,,,,,,,,0,1,1,1,0,4,4,96,594.814416312,9.62195917964e-06,596.411196615,1.59678992489,,,,x,0,1.5840440481,2018_Dec_04_1104,59.9866284527,spanish_cond1,001,1073,
images/eraser.jpg,eraser,z,sounds/animalfarm_spanish.wav,,,,,,,,,0,1,1,1,0,5,5,110,597.517557013,8.98051075637e-06,598.661942717,1.14439564687,,,,z,1,1.13402703335,2018_Dec_04_1104,59.9866284527,spanish_cond1,001,1073,
images/sunglasses03a.jpg,sun glasses,z,sounds/animalfarm_spanish.wav,,,,,,,,,0,1,1,1,0,6,6,17,599.770029292,9.30135138333e-06,600.679081014,0.90906166425,,,,z,1,0.900520579424,2018_Dec_04_1104,59.9866284527,spanish_cond1,001,1073,
images/bicycle.jpg,hand bag,x,sounds/animalfarm_spanish.wav,,,,,,,,,0,1,1,1,0,7,7,186,601.788566301,9.62195917964e-06,603.096425093,1.30786873493,,,,x,1,1.28394760401,2018_Dec_04_1104,59.9866284527,spanish_cond1,001,1073,
images/parrot01.jpg,chameleon,x,sounds/animalfarm_spanish.wav,,,,,,,,,0,1,1,1,0,8,8,150,604.210579591,9.62195917964e-06,606.44737579,2.23680549976,,,,x,1,2.21755390149,2018_Dec_04_1104,59.9866284527,spanish_cond1,001,1073,
images/blackolive.jpg,tank,x,sounds/animalfarm_spanish.wav,,,,,,,,,0,1,1,1,0,9,9,229,607.56174614,4.39402647316e-05,608.381265614,0.819541924633,,,,x,1,0.80049431161,2018_Dec_04_1104,59.9866284527,spanish_cond1,001,1073,
images/cola.jpg,comb,x,sounds/animalfarm_spanish.wav,,,,,,,,,0,1,1,1,0,10,10,157,609.503210364,9.62195917964e-06,610.89864911,1.39544900996,,,,x,1,1.38399183284,2018_Dec_04_1104,59.9866284527,spanish_cond1,001,1073,
images/backpack01b.jpg,swallow,x,sounds/animalfarm_spanish.wav,,,,,,,,,0,1,1,1,0,11,11,228,612.02879978,8.65967012942e-06,613.549389311,1.52059883182,,,,x,1,1.50067722495,2018_Dec_04_1104,59.9866284527,spanish_cond1,001,1073,
images/tie01.jpg,bench,x,sounds/animalfarm_spanish.wav,,,,,,,,,0,1,1,1,0,12,12,130,614.647267318,9.30135138333e-06,615.48327689,0.836019193986,,,,x,1,0.817149907816,2018_Dec_04_1104,59.9866284527,spanish_cond1,001,1073,
images/cake.jpg,cake,z,sounds/animalfarm_spanish.wav,,,,,,,,,0,1,1,1,0,13,13,23,616.596243077,8.98051075637e-06,617.433830649,0.83759751427,,,,z,1,0.817159850383,2018_Dec_04_1104,59.9866284527,spanish_cond1,001,1073,
images/coin01b.jpg,arrow,x,sounds/animalfarm_spanish.wav,,,,,,,,,0,1,1,1,0,14,14,124,618.536388452,8.98027792573e-06,619.234375316,0.69799648528,,,,x,1,0.683806674555,2018_Dec_04_1104,59.9866284527,spanish_cond1,001,1073,
images/thumbtack02a.jpg,thumb tack,z,sounds/animalfarm_spanish.wav,,,,,,,,,0,1,1,1,0,15,15,60,620.344540233,9.30135138333e-06,621.318278081,0.97374779149,,,,z,1,0.950536760502,2018_Dec_04_1104,59.9866284527,spanish_cond1,001,1073,
images/sportshorts02.jpg,tape,x,sounds/animalfarm_spanish.wav,,,,,,,,,0,1,1,1,0,16,16,230,622.427430769,9.30111855268e-06,623.602260004,1.17483885633,,,,x,1,1.15057325969,2018_Dec_04_1104,59.9866284527,spanish_cond1,001,1073,
images/doorhandle.jpg,doll,x,sounds/animalfarm_spanish.wav,,,,,,,,,0,1,1,1,0,17,17,168,624.704673157,9.30135138333e-06,625.436121956,0.731459063012,,,,x,1,0.71714577009,2018_Dec_04_1104,59.9866284527,spanish_cond1,001,1073,
images/bus.jpg,microphone,x,sounds/animalfarm_spanish.wav,,,,,,,,,0,1,1,1,0,18,18,203,626.555164726,8.65967012942e-06,627.403327142,0.848171717022,,,,x,1,0.833823785419,2018_Dec_04_1104,59.9866284527,spanish_cond1,001,1073,
images/electricguitar02.jpg,electric guitar,z,sounds/animalfarm_spanish.wav,,,,,,,,,0,1,1,1,0,19,19,100,628.505341626,9.30111855268e-06,629.303879153,0.798547149636,,,,z,1,0.783778418088,2018_Dec_04_1104,59.9866284527,spanish_cond1,001,1073,
images/printer03a.jpg,printer,z,sounds/animalfarm_spanish.wav,,,,,,,,,0,1,1,1,0,20,20,72,630.412416999,9.30135138333e-06,631.937988454,1.52558139828,,,,z,1,1.51737483684,2018_Dec_04_1104,59.9866284527,spanish_cond1,001,1073,
images/shotglass.jpg,shot glass,z,sounds/animalfarm_spanish.wav,,,,,,,,,0,1,1,1,0,21,21,86,633.046276129,9.621726349e-06,633.838490752,0.792224565987,,,,z,1,0.783807283733,2018_Dec_04_1104,59.9866284527,spanish_cond1,001,1073,
images/doll.jpg,carrot,x,sounds/animalfarm_spanish.wav,,,,,,,,,0,1,1,1,0,22,22,146,634.949302264,8.98051075637e-06,635.722377225,0.773084582295,,,,x,1,0.750484224642,2018_Dec_04_1104,59.9866284527,spanish_cond1,001,1073,
images/mattress.jpg,cat,x,sounds/animalfarm_spanish.wav,,,,,,,,,0,1,1,1,0,23,23,147,636.826310005,8.98051075637e-06,637.706267835,0.87996745226,,,,x,1,0.86717571062,2018_Dec_04_1104,59.9866284527,spanish_cond1,001,1073,
images/candy.jpg,candy,z,sounds/animalfarm_spanish.wav,,,,,,,,,0,1,1,1,0,24,24,31,638.807751828,8.98051075637e-06,639.556795968,0.749053761363,,,,z,1,0.733808743302,2018_Dec_04_1104,59.9866284527,spanish_cond1,001,1073,
images/tape01a.jpg,tie,x,sounds/animalfarm_spanish.wav,,,,,,,,,0,1,1,1,0,25,25,232,640.681803385,9.30111855268e-06,641.423984507,0.742190744728,,,,x,1,0.733789819991,2018_Dec_04_1104,59.9866284527,spanish_cond1,001,1073,
images/charcoalbarbecue.jpg,charcoal barbecue,z,sounds/animalfarm_spanish.wav,,,,,,,,,0,1,1,1,0,26,26,77,642.541244971,9.62195917964e-06,643.457887129,0.916652099928,,,,z,1,0.900511599146,2018_Dec_04_1104,59.9866284527,spanish_cond1,001,1073,
images/wallet01.jpg,lamp,x,sounds/animalfarm_spanish.wav,,,,,,,,,0,1,1,1,0,27,27,193,644.562452712,8.98051075637e-06,645.80855462,1.24611185002,,,,x,1,1.23393014004,2018_Dec_04_1104,59.9866284527,spanish_cond1,001,1073,
images/giraffe.jpg,lettuce,x,sounds/animalfarm_spanish.wav,,,,,,,,,0,1,1,1,0,28,28,195,646.909010989,9.30111855268e-06,648.02569157,1.11669084453,,,,x,1,1.10040088254,2018_Dec_04_1104,59.9866284527,spanish_cond1,001,1073,
images/bowl02b (1).jpg,bowl,z,sounds/animalfarm_spanish.wav,,,,,,,,,0,1,1,1,0,29,29,24,649.143256729,9.62195917964e-06,650.026423159,0.883176372619,,,,z,1,0.867172823986,2018_Dec_04_1104,59.9866284527,spanish_cond1,001,1073,
images/battery03b.jpg,battery,z,sounds/animalfarm_spanish.wav,,,,,,,,,0,1,1,1,0,30,30,34,651.135507851,9.30111855268e-06,652.22706969,1.0915724223,,,,x,0,1.06724428292,2018_Dec_04_1104,59.9866284527,spanish_cond1,001,1073,
images/safe.jpg,safe,z,sounds/animalfarm_spanish.wav,,,,,,,,,0,1,1,1,0,31,31,78,653.336056239,9.30135138333e-06,654.061010863,0.724964246387,,,,z,1,0.70051134238,2018_Dec_04_1104,59.9866284527,spanish_cond1,001,1073,
images/plant01.jpg,plant,z,sounds/animalfarm_spanish.wav,,,,,,,,,0,1,1,1,0,32,32,47,655.172563265,8.98051075637e-06,656.294872046,1.12231808179,,,,z,1,1.10057054949,2018_Dec_04_1104,59.9866284527,spanish_cond1,001,1073,
images/cigar.jpg,crocodile,x,sounds/animalfarm_spanish.wav,,,,,,,,,0,1,1,1,0,33,33,162,657.391738465,9.30111855268e-06,658.745570936,1.35384241352,,,,x,1,1.33397340705,2018_Dec_04_1104,59.9866284527,spanish_cond1,001,1073,
images/lychee02a.jpg,lychee,z,sounds/animalfarm_spanish.wav,,,,,,,,,0,1,1,1,0,34,34,62,659.867502536,8.98051075637e-06,660.862831721,0.995339768706,,,,z,1,0.983865592862,2018_Dec_04_1104,59.9866284527,spanish_cond1,001,1073,
images/pouch01b.jpg,pouch,z,sounds/animalfarm_spanish.wav,,,,,,,,,0,1,1,1,0,35,35,25,661.973350405,8.65967012942e-06,663.263519241,1.2901781376,,,,z,1,1.26728591393,2018_Dec_04_1104,59.9866284527,spanish_cond1,001,1073,
images/razor04a.jpg,razor,z,sounds/animalfarm_spanish.wav,,,,,,,,,0,1,1,1,0,36,36,36,664.362069502,9.30135138333e-06,665.480837726,1.11877784552,,,,z,1,1.10058081313,2018_Dec_04_1104,59.9866284527,spanish_cond1,001,1073,
images/medal01.jpg,medal,z,sounds/animalfarm_spanish.wav,,,,,,,,,0,1,1,1,0,37,37,115,666.580389952,8.98051075637e-06,667.498091165,0.917710514739,,,,z,1,0.900545276003,2018_Dec_04_1104,59.9866284527,spanish_cond1,001,1073,
images/chameleon.jpg,50 dollar bill,x,sounds/animalfarm_spanish.wav,,,,,,,,,0,1,1,1,0,38,38,120,668.606564544,9.62195917964e-06,669.331935799,0.725381518481,,,,x,1,0.70048055239,2018_Dec_04_1104,59.9866284527,spanish_cond1,001,1073,
images/bandaid01.jpg,door handle,x,sounds/animalfarm_spanish.wav,,,,,,,,,0,1,1,1,0,39,39,170,670.437887263,9.62195917964e-06,671.882645562,1.44476888236,,,,x,1,1.43400192005,2018_Dec_04_1104,59.9866284527,spanish_cond1,001,1073,
images/ceilingfan02.jpg,paper clip,x,sounds/animalfarm_spanish.wav,,,,,,,,,0,1,1,1,0,40,40,208,672.979591843,9.94279980659e-06,675.383643839,2.40406225924,,,,x,1,2.38428209512,2018_Dec_04_1104,59.9866284527,spanish_cond1,001,1073,
images/graduationcap.jpg,graduation cap,z,sounds/animalfarm_spanish.wav,,,,,,,,,0,1,1,1,0,41,41,35,676.484482841,8.98051075637e-06,678.034385323,1.54991210345,,,,z,1,1.53399868053,2018_Dec_04_1104,59.9866284527,spanish_cond1,001,1073,
images/fryingpan01.jpg,frying pan,z,sounds/animalfarm_spanish.wav,,,,,,,,,0,1,1,1,0,42,42,45,679.133518032,9.30111855268e-06,680.084969199,0.951460788492,,,,z,1,0.933861279162,2018_Dec_04_1104,59.9866284527,spanish_cond1,001,1073,
images/electrictoothbrush01a.jpg,banjo,x,sounds/animalfarm_spanish.wav,,,,,,,,,0,1,1,1,0,43,43,127,681.179684791,9.62195917964e-06,682.569003657,1.3893291289,,,,x,1,1.36730672931,2018_Dec_04_1104,59.9866284527,spanish_cond1,001,1073,
images/broadsword.jpg,teapot,x,sounds/animalfarm_spanish.wav,,,,,,,,,0,1,1,1,0,44,44,231,683.66071656,8.98051075637e-06,685.169756222,1.5090489632,,,,x,1,1.50067914929,2018_Dec_04_1104,59.9866284527,spanish_cond1,001,1073,
images/envelope02a.jpg,grand piano,x,sounds/animalfarm_spanish.wav,,,,,,,,,0,1,1,1,0,45,45,182,686.293109625,9.62195917964e-06,688.520701787,2.22760210396,,,,x,1,2.21755807078,2018_Dec_04_1104,59.9866284527,spanish_cond1,001,1073,
images/parkbench03.jpg,park bench,z,sounds/animalfarm_spanish.wav,,,,,,,,,0,1,1,1,0,46,46,71,689.624487671,9.94279980659e-06,690.387910533,0.76343312487,,,,z,1,0.75047492329,2018_Dec_04_1104,59.9866284527,spanish_cond1,001,1073,
images/clothespin02a.jpg,clothes pin,z,sounds/animalfarm_spanish.wav,,,,,,,,,0,1,1,1,0,47,47,79,691.491210829,9.30135138333e-06,693.222049277,1.73084935197,,,,z,1,1.71742288233,2018_Dec_04_1104,59.9866284527,spanish_cond1,001,1073,
images/volleyball.jpg,volley ball,z,sounds/animalfarm_spanish.wav,,,,,,,,,0,1,1,1,0,48,48,2,694.353406219,9.30111855268e-06,695.255955426,0.902559470851,,,,z,1,0.883841570234,2018_Dec_04_1104,59.9866284527,spanish_cond1,001,1073,
images/lighter02b.jpg,stapler,x,sounds/animalfarm_spanish.wav,,,,,,,,,0,1,1,1,0,49,49,227,696.35659814,8.98051075637e-06,697.156502306,0.799913787283,,,,x,1,0.783830697415,2018_Dec_04_1104,59.9866284527,spanish_cond1,001,1073,
images/nametag01a.jpg,name tag,z,sounds/animalfarm_spanish.wav,,,,,,,,,0,1,1,1,0,50,50,108,698.276125921,8.98027792573e-06,699.007012157,0.730895537185,,,,z,1,0.71712011192,2018_Dec_04_1104,59.9866284527,spanish_cond1,001,1073,
images/dryingmachine01.jpg,drying machine,z,sounds/animalfarm_spanish.wav,,,,,,,,,0,1,1,1,0,51,51,18,700.126298683,8.98051075637e-06,700.957564312,0.831275251461,,,,z,1,0.817152152769,2018_Dec_04_1104,59.9866284527,spanish_cond1,001,1073,
images/bench02.jpg,electric toothbrush,x,sounds/animalfarm_spanish.wav,,,,,,,,,0,1,1,1,0,52,52,172,702.065036045,8.98051075637e-06,703.958443438,1.89341701451,,,,x,1,1.88414530293,2018_Dec_04_1104,59.9866284527,spanish_cond1,001,1073,
images/stapler03a.jpg,candy cane,x,sounds/animalfarm_spanish.wav,,,,,,,,,0,1,1,1,0,53,53,145,705.067340823,8.65967012942e-06,707.3593946,2.29206339829,,,,x,1,2.26757585537,2018_Dec_04_1104,59.9866284527,spanish_cond1,001,1073,
images/lightswitch02a.jpg,fork,x,sounds/animalfarm_spanish.wav,,,,,,,,,0,1,1,1,0,54,54,177,708.469655416,9.30111855268e-06,709.243265677,0.773620524909,,,,x,1,0.750443491619,2018_Dec_04_1104,59.9866284527,spanish_cond1,001,1073,
images/belt02a.jpg,snowman,x,sounds/animalfarm_spanish.wav,,,,,,,,,0,1,1,1,0,55,55,224,710.345241994,9.30111855268e-06,712.227432758,1.88220038591,,,,x,1,1.86743293749,2018_Dec_04_1104,59.9866284527,spanish_cond1,001,1073,
images/chessknight02b (1).jpg,cockroach,x,sounds/animalfarm_spanish.wav,,,,,,,,,0,1,1,1,0,56,56,155,713.334637963,9.30135138333e-06,714.527933324,1.19330594502,,,,x,1,1.1837667434,2018_Dec_04_1104,59.9866284527,spanish_cond1,001,1073,
images/nailpolish02b.jpg,nail polish,z,sounds/animalfarm_spanish.wav,,,,,,,,,0,1,1,1,0,57,57,94,715.635099079,8.98027792573e-06,717.162165786,1.52707568719,,,,z,1,1.51735078194,2018_Dec_04_1104,59.9866284527,spanish_cond1,001,1073,
images/cauliflower01.jpg,glue stick,x,sounds/animalfarm_spanish.wav,,,,,,,,,0,1,1,1,0,58,58,181,718.276511119,9.30111855268e-06,719.096055289,0.819554433227,,,,x,1,0.800483086146,2018_Dec_04_1104,59.9866284527,spanish_cond1,001,1073,
images/puma.jpg,puma,z,sounds/animalfarm_spanish.wav,,,,,,,,,0,1,1,1,0,59,59,4,720.193006382,8.98027792573e-06,720.946580535,0.753584096208,,,,z,1,0.733799762791,2018_Dec_04_1104,59.9866284527,spanish_cond1,001,1073,
images/ashtray02b.jpg,ashtray,z,sounds/animalfarm_spanish.wav,,,,,,,,,0,1,1,1,0,60,60,43,722.060186903,8.65967012942e-06,722.880471322,0.820294361096,,,,z,1,0.800496235956,2018_Dec_04_1104,59.9866284527,spanish_cond1,001,1073,
images/lollipop03b.jpg,lollipop,z,sounds/animalfarm_spanish.wav,,,,,,,,,0,1,1,1,0,61,61,42,723.971688694,9.62195917964e-06,724.697651058,0.725972626824,,,,z,1,0.717135186074,2018_Dec_04_1104,59.9866284527,spanish_cond1,001,1073,
images/cactus.jpg,cactus,z,sounds/animalfarm_spanish.wav,,,,,,,,,0,1,1,1,0,62,62,70,725.808205984,8.65967012942e-06,726.781580123,0.973383760778,,,,z,1,0.950525214197,2018_Dec_04_1104,59.9866284527,spanish_cond1,001,1073,
images/barrel01.jpg,barrel,z,sounds/animalfarm_spanish.wav,,,,,,,,,0,1,1,1,0,63,63,9,727.910400719,9.62195917964e-06,729.065554669,1.15516453376,,,,z,1,1.13390932465,2018_Dec_04_1104,59.9866284527,spanish_cond1,001,1073,
images/toothbrush03a.jpg,parrot,x,sounds/animalfarm_spanish.wav,,,,,,,,,0,1,1,1,0,64,64,210,730.157702804,9.30135138333e-06,731.49957936,1.34188649897,,,,x,1,1.31730562309,2018_Dec_04_1104,59.9866284527,spanish_cond1,001,1073,
images/lock02a.jpg,lock,z,sounds/animalfarm_spanish.wav,,,,,,,,,0,1,1,1,0,65,65,65,732.609910416,9.62195917964e-06,733.483471895,0.873571741628,,,,z,1,0.850502153626,2018_Dec_04_1104,59.9866284527,spanish_cond1,001,1073,
images/rhinoceros01.jpg,envelope,x,sounds/animalfarm_spanish.wav,,,,,,,,,0,1,1,1,0,66,66,173,734.596142047,9.30111855268e-06,736.734406266,2.13827384147,,,,x,1,2.11753404792,2018_Dec_04_1104,59.9866284527,spanish_cond1,001,1073,
images/candycane01a.jpg,lip,x,sounds/animalfarm_spanish.wav,,,,,,,,,0,1,1,1,0,67,67,200,737.82788159,8.98051075637e-06,738.868519256,1.04064792953,,,,x,1,1.01739616552,2018_Dec_04_1104,59.9866284527,spanish_cond1,001,1073,
images/8ball.jpg,nail clipper,x,sounds/animalfarm_spanish.wav,,,,,,,,,0,1,1,1,0,68,68,206,739.984167401,8.98027792573e-06,740.835560227,0.851402767934,,,,x,1,0.833821861073,2018_Dec_04_1104,59.9866284527,spanish_cond1,001,1073,
images/acousticguitar02.jpg,acoustic guitar,z,sounds/animalfarm_spanish.wav,,,,,,,,,0,1,1,1,0,69,69,97,741.948504925,9.30111855268e-06,743.552999787,1.60450480483,,,,z,1,1.58403859544,2018_Dec_04_1104,59.9866284527,spanish_cond1,001,1073,
images/carrot02.jpg,corkscrew,x,sounds/animalfarm_spanish.wav,,,,,,,,,0,1,1,1,0,70,70,161,744.654675258,8.65967012942e-06,745.686968447,1.03230377403,,,,x,1,1.01723419596,2018_Dec_04_1104,59.9866284527,spanish_cond1,001,1073,
images/lily.jpg,kiwi,x,sounds/animalfarm_spanish.wav,,,,,,,,,0,1,1,1,0,71,71,190,746.786156964,9.30135138333e-06,747.454119173,0.667972472264,,,,x,1,0.650454749586,2018_Dec_04_1104,59.9866284527,spanish_cond1,001,1073,
images/eyedrops.jpg,bicycle,x,sounds/animalfarm_spanish.wav,,,,,,,,,0,1,1,1,0,72,72,131,748.553160795,8.98051075637e-06,749.738239972,1.18508879934,,,,x,1,1.16739756078,2018_Dec_04_1104,59.9866284527,spanish_cond1,001,1073,
images/rubberglove02a.jpg,lady bug,x,sounds/animalfarm_spanish.wav,,,,,,,,,0,1,1,1,0,73,73,192,750.841348792,8.98051075637e-06,751.521931793,0.680592622375,,,,x,1,0.66710938327,2018_Dec_04_1104,59.9866284527,spanish_cond1,001,1073,
images/bowlingball.jpg,bowling ball,z,sounds/animalfarm_spanish.wav,,,,,,,,,0,1,1,1,0,74,74,20,752.652307616,9.30111855268e-06,753.572506047,0.920207731426,,,,z,1,0.900508391671,2018_Dec_04_1104,59.9866284527,spanish_cond1,001,1073,
images/saltshaker03c.jpg,salt shaker,z,sounds/animalfarm_spanish.wav,,,,,,,,,0,1,1,1,0,75,75,63,754.682695339,1.02634076029e-05,756.056550768,1.37386569241,,,,z,1,1.35064022848,2018_Dec_04_1104,59.9866284527,spanish_cond1,001,1073,
images/scooter.jpg,pen,x,sounds/animalfarm_spanish.wav,,,,,,,,,0,1,1,1,0,76,76,212,757.147938128,9.30111855268e-06,758.273862838,1.12593529373,,,,x,1,1.11725565302,2018_Dec_04_1104,59.9866284527,spanish_cond1,001,1073,
images/redfox.jpg,red fox,z,sounds/animalfarm_spanish.wav,,,,,,,,,0,1,1,1,0,77,77,1,759.385205802,9.30111855268e-06,760.24107508,0.85587889934,,,,z,1,0.833818012383,2018_Dec_04_1104,59.9866284527,spanish_cond1,001,1073,
images/boxingglove02a.jpg,bracelet,x,sounds/animalfarm_spanish.wav,,,,,,,,,0,1,1,1,0,78,78,135,761.35111876,9.30111855268e-06,762.358339393,1.00723057496,,,,x,1,0.983845707495,2018_Dec_04_1104,59.9866284527,spanish_cond1,001,1073,
images/panda.jpg,panda,z,sounds/animalfarm_spanish.wav,,,,,,,,,0,1,1,1,0,79,79,83,763.467494325,9.30111855268e-06,764.725707382,1.25822299882,,,,z,1,1.23396894871,2018_Dec_04_1104,59.9866284527,spanish_cond1,001,1073,
images/tissuebox03.jpg,tissue box,z,sounds/animalfarm_spanish.wav,,,,,,,,,0,1,1,1,0,80,80,58,765.850736288,9.62195917964e-06,766.77626175,0.92553540552,,,,z,1,0.90050807083,2018_Dec_04_1104,59.9866284527,spanish_cond1,001,1073,
images/sock03.jpg,sock,z,sounds/animalfarm_spanish.wav,,,,,,,,,0,1,1,1,0,81,81,90,767.880762225,8.98051075637e-06,769.477041866,1.59628958348,,,,z,1,1.58404533076,2018_Dec_04_1104,59.9866284527,spanish_cond1,001,1073,
images/drink.jpg,drink,z,sounds/animalfarm_spanish.wav,,,,,,,,,0,1,1,1,0,82,82,117,770.575550752,9.94256697595e-06,772.894705714,2.31916522514,,,,z,1,2.30094413785,2018_Dec_04_1104,59.9866284527,spanish_cond1,001,1073,
images/hairpin.jpg,hair pin,z,sounds/animalfarm_spanish.wav,,,,,,,,,0,1,1,1,0,83,83,28,773.983920759,8.65967012942e-06,774.795222445,0.811311308295,,,,z,1,0.800428561633,2018_Dec_04_1104,59.9866284527,spanish_cond1,001,1073,
images/dolphin01.jpg,dolphin,z,sounds/animalfarm_spanish.wav,,,,,,,,,0,1,1,1,0,84,84,99,775.89539625,9.30111855268e-06,776.895807748,1.000421762,,,,z,1,0.983867196599,2018_Dec_04_1104,59.9866284527,spanish_cond1,001,1073,
images/mitten01.jpg,mitten,z,sounds/animalfarm_spanish.wav,,,,,,,,,0,1,1,1,0,85,85,102,778.016088543,9.30135138333e-06,778.696327077,0.680248798104,,,,z,1,0.667117722332,2018_Dec_04_1104,59.9866284527,spanish_cond1,001,1073,
images/blueberry02.jpg,blueberry,z,sounds/animalfarm_spanish.wav,,,,,,,,,0,1,1,1,0,86,86,46,779.809336884,9.62195917964e-06,780.53018037,0.720853749197,,,,z,1,0.700448799878,2018_Dec_04_1104,59.9866284527,spanish_cond1,001,1073,
images/banana04a.jpg,banana,z,sounds/animalfarm_spanish.wav,,,,,,,,,0,1,1,1,0,87,87,118,781.636108101,9.62195917964e-06,782.580760397,0.944661918329,,,,z,1,0.933766342467,2018_Dec_04_1104,59.9866284527,spanish_cond1,001,1073,
images/beermug01b.jpg,beer mug,z,sounds/animalfarm_spanish.wav,,,,,,,,,0,1,1,1,0,88,88,111,783.696366206,9.62195917964e-06,784.564673138,0.868317194749,,,,z,1,0.850507285213,2018_Dec_04_1104,59.9866284527,spanish_cond1,001,1073,
images/ear.jpg,bullet,x,sounds/animalfarm_spanish.wav,,,,,,,,,0,1,1,1,0,89,89,139,785.666493899,9.94256697595e-06,786.748612435,1.08212911943,,,,x,1,1.06723113311,2018_Dec_04_1104,59.9866284527,spanish_cond1,001,1073,
images/butterfly.jpg,butterfly,z,sounds/animalfarm_spanish.wav,,,,,,,,,0,1,1,1,0,90,90,91,787.854846785,9.30135138333e-06,788.932587974,1.07775081135,,,,z,1,1.06725101848,2018_Dec_04_1104,59.9866284527,spanish_cond1,001,1073,
images/flipflop01b.jpg,flip flop,z,sounds/animalfarm_spanish.wav,,,,,,,,,0,1,1,1,0,91,91,27,790.047987553,9.30135138333e-06,790.916582181,0.868604891002,,,,z,1,0.850614730502,2018_Dec_04_1104,59.9866284527,spanish_cond1,001,1073,
images/calculator02b.jpg,dice,x,sounds/animalfarm_spanish.wav,,,,,,,,,0,1,1,1,0,92,92,165,792.018505256,1.02634076029e-05,793.217142724,1.19864773122,,,,x,1,1.18392422283,2018_Dec_04_1104,59.9866284527,spanish_cond1,001,1073,
images/bullet (2).jpg,rubber glove,x,sounds/animalfarm_spanish.wav,,,,,,,,,0,1,1,1,0,93,93,217,794.322094468,9.30111855268e-06,795.267699016,0.945614170516,,,,x,1,0.933851336362,2018_Dec_04_1104,59.9866284527,spanish_cond1,001,1073,
images/floorlamp.jpg,floor lamp,z,sounds/animalfarm_spanish.wav,,,,,,,,,0,1,1,1,0,94,94,26,796.360326967,9.62195917964e-06,797.551691844,1.19137546094,,,,z,1,1.16725836322,2018_Dec_04_1104,59.9866284527,spanish_cond1,001,1073,
images/dragonfly02.jpg,dragon fly,z,sounds/animalfarm_spanish.wav,,,,,,,,,0,1,1,1,0,95,95,29,798.647375725,8.98027792573e-06,799.6022584,0.954891975969,,,,z,1,0.933854222996,2018_Dec_04_1104,59.9866284527,spanish_cond1,001,1073,
images/desktopcomputer.jpg,desktop computer,z,sounds/animalfarm_spanish.wav,,,,,,,,,0,1,1,1,0,96,96,16,800.73622706,8.98051075637e-06,801.502798224,0.766581106232,,,,z,1,0.75046754675,2018_Dec_04_1104,59.9866284527,spanish_cond1,001,1073,
images/teapot.jpg,light switch,x,sounds/animalfarm_spanish.wav,,,,,,,,,0,1,1,1,0,97,97,197,802.617944745,8.98051075637e-06,803.586736911,0.968801467447,,,,x,1,0.950535798445,2018_Dec_04_1104,59.9866284527,spanish_cond1,001,1073,
images/bowtie.jpg,bowtie,z,sounds/animalfarm_spanish.wav,,,,,,,,,0,1,1,1,0,98,98,89,804.697672867,9.30111855268e-06,805.6873421,0.989679816645,,,,z,1,0.967220580904,2018_Dec_04_1104,59.9866284527,spanish_cond1,001,1073,
images/ostrich.jpg,ostrich,z,sounds/animalfarm_spanish.wav,,,,,,,,,0,1,1,1,0,99,99,76,806.786288785,9.30135138333e-06,808.621521545,1.83524270263,,,,z,1,1.81745428219,2018_Dec_04_1104,59.9866284527,spanish_cond1,001,1073,
images/marker01a.jpg,marker,z,sounds/animalfarm_spanish.wav,,,,,,,,,0,1,1,1,0,100,100,95,809.718401114,9.62195917964e-06,810.638742911,0.920352381421,,,,z,1,0.900518975919,2018_Dec_04_1104,59.9866284527,spanish_cond1,001,1073,
images/squirrel.jpg,binder,x,sounds/animalfarm_spanish.wav,,,,,,,,,0,1,1,1,0,101,101,132,811.741531962,8.98051075637e-06,812.455924892,0.71440191078,,,,x,1,0.70045200712,2018_Dec_04_1104,59.9866284527,spanish_cond1,001,1073,
images/computermouse02a.jpg,world map,x,sounds/animalfarm_spanish.wav,,,,,,,,,0,1,1,1,0,102,102,239,813.556456313,9.30135138333e-06,814.523182967,0.966737238457,,,,x,1,0.950542854378,2018_Dec_04_1104,59.9866284527,spanish_cond1,001,1073,
images/lip.jpg,boxing glove,x,sounds/animalfarm_spanish.wav,,,,,,,,,0,1,1,1,0,103,103,136,815.624352643,8.65990296006e-06,816.4403755,0.816032478586,,,,x,1,0.800482444465,2018_Dec_04_1104,59.9866284527,spanish_cond1,001,1073,
images/notebook02b.jpg,notebook,z,sounds/animalfarm_spanish.wav,,,,,,,,,0,1,1,1,0,104,104,7,817.546483482,8.98027792573e-06,818.35761486,0.811140999664,,,,z,1,0.800499764038,2018_Dec_04_1104,59.9866284527,spanish_cond1,001,1073,
images/weight01.jpg,weight,z,sounds/animalfarm_spanish.wav,,,,,,,,,0,1,1,1,0,105,105,67,819.460759922,9.30111855268e-06,820.391522613,0.930772632826,,,,z,1,0.917203116929,2018_Dec_04_1104,59.9866284527,spanish_cond1,001,1073,
images/aloe02.jpg,broad sword,x,sounds/animalfarm_spanish.wav,,,,,,,,,0,1,1,1,0,106,106,137,821.512907045,9.30111855268e-06,822.608809345,1.09591224254,,,,x,1,1.08390501095,2018_Dec_04_1104,59.9866284527,spanish_cond1,001,1073,
images/swan.jpg,swan,z,sounds/animalfarm_spanish.wav,,,,,,,,,0,1,1,1,0,107,107,54,823.700396841,9.62195917964e-06,824.45932978,0.758943522582,,,,z,1,0.750471716048,2018_Dec_04_1104,59.9866284527,spanish_cond1,001,1073,
images/button07.jpg,radish,x,sounds/animalfarm_spanish.wav,,,,,,,,,0,1,1,1,0,108,108,215,825.569718888,9.62195917964e-06,826.860020187,1.29031059984,,,,x,1,1.2672916872,2018_Dec_04_1104,59.9866284527,spanish_cond1,001,1073,
images/bracelet02a.jpg,chess knight,x,sounds/animalfarm_spanish.wav,,,,,,,,,0,1,1,1,0,109,109,152,827.96924953,8.98051075637e-06,829.077305315,1.1080657281,,,,x,1,1.08387101325,2018_Dec_04_1104,59.9866284527,spanish_cond1,001,1073,
images/honeycomb.jpg,honey comb,z,sounds/animalfarm_spanish.wav,,,,,,,,,0,1,1,1,0,110,110,59,830.188988576,8.98051075637e-06,830.99452479,0.805546477204,,,,z,1,0.783820113167,2018_Dec_04_1104,59.9866284527,spanish_cond1,001,1073,
images/cherry01.jpg,highlighter,x,sounds/animalfarm_spanish.wav,,,,,,,,,0,1,1,1,0,111,111,187,832.101807932,8.98051075637e-06,833.045115722,0.943317731842,,,,x,1,0.933874428971,2018_Dec_04_1104,59.9866284527,spanish_cond1,001,1073,
images/bottleofredwine02.jpg,pipe,x,sounds/animalfarm_spanish.wav,,,,,,,,,0,1,1,1,0,112,112,213,834.14192024,9.62195917964e-06,835.312415427,1.17050545081,,,,x,1,1.15058705118,2018_Dec_04_1104,59.9866284527,spanish_cond1,001,1073,
images/cockroach02.jpg,belt,x,sounds/animalfarm_spanish.wav,,,,,,,,,0,1,1,1,0,113,113,129,836.411353452,9.62195917964e-06,837.39635636,0.985013491474,,,,x,1,0.967213204131,2018_Dec_04_1104,59.9866284527,spanish_cond1,001,1073,
images/feather03b.jpg,feather,z,sounds/animalfarm_spanish.wav,,,,,,,,,0,1,1,1,0,114,114,114,838.495791519,1.02634076029e-05,839.513600467,1.01781888981,,,,z,1,1.00053273537,2018_Dec_04_1104,59.9866284527,spanish_cond1,001,1073,
images/parkingmeter.jpg,ear,x,sounds/animalfarm_spanish.wav,,,,,,,,,0,1,1,1,0,115,115,171,840.613951636,9.30111855268e-06,841.747570377,1.13362868433,,,,x,1,1.11724218214,2018_Dec_04_1104,59.9866284527,spanish_cond1,001,1073,
images/plate01b.jpg,plate,z,sounds/animalfarm_spanish.wav,,,,,,,,,0,1,1,1,0,116,116,3,842.845741533,9.30111855268e-06,843.898192068,1.05246047699,,,,z,1,1.03388754698,2018_Dec_04_1104,59.9866284527,spanish_cond1,001,1073,
images/dreamcatcher.jpg,dream catcher,z,sounds/animalfarm_spanish.wav,,,,,,,,,0,1,1,1,0,117,117,48,844.995031866,7.76171218604e-05,846.715655009,1.72067125305,,,,z,1,1.70073008141,2018_Dec_04_1104,59.9866284527,spanish_cond1,001,1073,
images/axe01.jpg,axe,z,sounds/animalfarm_spanish.wav,,,,,,,,,0,1,1,1,0,118,118,104,847.818225642,9.30111855268e-06,848.666205241,0.847989220871,,,,z,1,0.833826351212,2018_Dec_04_1104,59.9866284527,spanish_cond1,001,1073,
images/glasses01b.jpg,calculator,x,sounds/animalfarm_spanish.wav,,,,,,,,,0,1,1,1,0,119,119,142,849.757829622,9.62195917964e-06,850.600096027,0.842276027426,,,,x,1,0.833834690275,2018_Dec_04_1104,59.9866284527,spanish_cond1,001,1073,
images/ladder.jpg,ladder,z,sounds/animalfarm_spanish.wav,,,,,,,,,0,1,1,1,0,120,120,113,851.692761182,8.65967012942e-06,852.934096055,1.24134449428,,,,z,1,1.21728352457,2018_Dec_04_1104,59.9866284527,spanish_cond1,001,1073,
images/pen03c.jpg,pepper,x,sounds/animalfarm_spanish.wav,,,,,,,,,0,1,1,1,0,121,121,211,854.027021002,9.62195917964e-06,855.701555645,1.67454490578,,,,x,1,1.6507334651,2018_Dec_04_1104,59.9866284527,spanish_cond1,001,1073,
images/diploma01.jpg,glasses,x,sounds/animalfarm_spanish.wav,,,,,,,,,0,1,1,1,0,122,122,179,856.830882676,9.62195917964e-06,857.985531473,1.15465841908,,,,x,1,1.13392568217,2018_Dec_04_1104,59.9866284527,spanish_cond1,001,1073,
images/lettuce.jpg,mushroom,x,sounds/animalfarm_spanish.wav,,,,,,,,,0,1,1,1,0,123,123,205,859.1073521,9.62195917964e-06,859.969424649,0.862082170788,,,,x,1,0.850508247269,2018_Dec_04_1104,59.9866284527,spanish_cond1,001,1073,
images/screwdriver02b.jpg,cola,x,sounds/animalfarm_spanish.wav,,,,,,,,,0,1,1,1,0,124,124,158,861.061697229,9.62195917964e-06,862.686857795,1.6251705091,,,,x,1,1.60071535991,2018_Dec_04_1104,59.9866284527,spanish_cond1,001,1073,
images/nailclipper03a.jpg,aquarium,x,sounds/animalfarm_spanish.wav,,,,,,,,,0,1,1,1,0,125,125,123,863.784978596,9.62195917964e-06,864.804147125,1.01917911298,,,,x,1,1.00056128041,2018_Dec_04_1104,59.9866284527,spanish_cond1,001,1073,
images/radio03a.jpg,radio,z,sounds/animalfarm_spanish.wav,,,,,,,,,0,1,1,1,0,126,126,37,865.916685456,9.30111855268e-06,867.088122312,1.17144743958,,,,x,0,1.15059827687,2018_Dec_04_1104,59.9866284527,spanish_cond1,001,1073,
images/microphone01.jpg,diaper,x,sounds/animalfarm_spanish.wav,,,,,,,,,0,1,1,1,0,127,127,164,868.186143365,9.62195917964e-06,869.288737411,1.10260398849,,,,x,1,1.08389410586,2018_Dec_04_1104,59.9866284527,spanish_cond1,001,1073,
images/beachumbrella01.jpg,beach umbrella,z,sounds/animalfarm_spanish.wav,,,,,,,,,0,1,1,1,0,128,128,92,870.392786616,9.30111855268e-06,872.472967291,2.08019061713,,,,z,1,2.06751241465,2018_Dec_04_1104,59.9866284527,spanish_cond1,001,1073,
images/seagull.jpg,seagull,z,sounds/animalfarm_spanish.wav,,,,,,,,,0,1,1,1,0,129,129,50,873.578971356,9.94279980659e-06,875.10705382,1.52809304814,,,,z,1,1.5173588004,2018_Dec_04_1104,59.9866284527,spanish_cond1,001,1073,
images/daisy.jpg,daisy,z,sounds/animalfarm_spanish.wav,,,,,,,,,0,1,1,1,0,130,130,6,876.20787871,8.65967012942e-06,877.957874139,1.75000473065,,,,z,1,1.73408361035,2018_Dec_04_1104,59.9866284527,spanish_cond1,001,1073,
images/mirror02.jpg,8 ball,x,sounds/animalfarm_spanish.wav,,,,,,,,,0,1,1,1,0,131,131,121,879.059669242,9.30111855268e-06,880.425244341,1.3655850417,,,,x,1,1.35065017128,2018_Dec_04_1104,59.9866284527,spanish_cond1,001,1073,
images/pepper05a.jpg,lighter,x,sounds/animalfarm_spanish.wav,,,,,,,,,0,1,1,1,0,132,132,198,881.546420618,9.30111855268e-06,883.109334543,1.56292386679,,,,x,1,1.55070719728,2018_Dec_04_1104,59.9866284527,spanish_cond1,001,1073,
images/spoon02b.jpg,spoon,z,sounds/animalfarm_spanish.wav,,,,,,,,,0,1,1,1,0,133,133,38,884.199317419,8.98051075637e-06,887.193669655,2.9943624991,,,,None,0,,2018_Dec_04_1104,59.9866284527,spanish_cond1,001,1073,
images/headphones02b.jpg,headphones,z,sounds/animalfarm_spanish.wav,,,,,,,,,0,1,1,1,0,134,134,101,888.301248833,9.62195917964e-06,889.077702702,0.776464132126,,,,z,1,0.767158743925,2018_Dec_04_1104,59.9866284527,spanish_cond1,001,1073,
images/tent.jpg,tent,z,sounds/animalfarm_spanish.wav,,,,,,,,,0,1,1,1,0,135,135,11,890.204371188,8.98051075637e-06,891.011584508,0.807223903714,,,,z,1,0.783812736394,2018_Dec_04_1104,59.9866284527,spanish_cond1,001,1073,
images/worldmap.jpg,scooter,x,sounds/animalfarm_spanish.wav,,,,,,,,,0,1,1,1,0,136,136,220,892.140923727,9.94279980659e-06,892.778753194,0.637839731062,,,,x,1,0.617109238869,2018_Dec_04_1104,59.9866284527,spanish_cond1,001,1073,
images/50dollarbill.jpg,cherry,x,sounds/animalfarm_spanish.wav,,,,,,,,,0,1,1,1,0,137,137,151,893.898887093,8.98027792573e-06,895.162779345,1.26390283625,,,,x,1,1.25063480809,2018_Dec_04_1104,59.9866284527,spanish_cond1,001,1073,
images/elbow.jpg,elbow,z,sounds/animalfarm_spanish.wav,,,,,,,,,0,1,1,1,0,138,138,105,896.273685794,9.62195917964e-06,896.979933102,0.706257571466,,,,z,1,0.683786468348,2018_Dec_04_1104,59.9866284527,spanish_cond1,001,1073,
images/raisin.jpg,ruler,x,sounds/animalfarm_spanish.wav,,,,,,,,,0,1,1,1,0,139,139,218,898.083501851,9.30135138333e-06,899.047199515,0.963707607007,,,,z,0,0.950540288584,2018_Dec_04_1104,59.9866284527,spanish_cond1,001,1073,
images/peach01.jpg,peach,z,sounds/animalfarm_spanish.wav,,,,,,,,,0,1,1,1,0,140,140,106,900.174668548,9.62195917964e-06,901.064430183,0.889771578135,,,,z,1,0.867176352069,2018_Dec_04_1104,59.9866284527,spanish_cond1,001,1073,
images/hairband.jpg,hairband,z,sounds/animalfarm_spanish.wav,,,,,,,,,0,1,1,1,0,141,141,66,902.172179349,9.62195917964e-06,902.864933155,0.692764068954,,,,z,1,0.683761451393,2018_Dec_04_1104,59.9866284527,spanish_cond1,001,1073,
images/swallow.jpg,mattress,x,sounds/animalfarm_spanish.wav,,,,,,,,,0,1,1,1,0,142,142,202,903.964848129,8.98051075637e-06,904.815490442,0.850652256049,,,,x,1,0.833823785419,2018_Dec_04_1104,59.9866284527,spanish_cond1,001,1073,
images/lemon02.jpg,lemon,z,sounds/animalfarm_spanish.wav,,,,,,,,,0,1,1,1,0,143,143,14,905.925786218,9.30135138333e-06,906.966119188,1.04034259287,,,,z,1,1.01723002642,2018_Dec_04_1104,59.9866284527,spanish_cond1,001,1073,
images/lion.jpg,lion,z,sounds/animalfarm_spanish.wav,,,,,,,,,0,1,1,1,0,144,144,44,908.077011204,9.30111855268e-06,908.733393396,0.656400793931,,,,z,1,0.633802040014,2018_Dec_04_1104,59.9866284527,spanish_cond1,001,1073,
images/puzzle.jpg,puzzle,z,sounds/animalfarm_spanish.wav,,,,,,,,,0,1,1,1,0,145,145,57,909.852095549,8.98051075637e-06,911.167296851,1.31521188654,,,,z,1,1.30062693404,2018_Dec_04_1104,59.9866284527,spanish_cond1,001,1073,
images/flashlight05.jpg,flash light,z,sounds/animalfarm_spanish.wav,,,,,,,,,0,1,1,1,0,146,146,8,912.26914295,9.30111855268e-06,912.834442156,0.565309469122,,,,z,1,0.550410199678,2018_Dec_04_1104,59.9866284527,spanish_cond1,001,1073,
images/broom02.jpg,broom,z,sounds/animalfarm_spanish.wav,,,,,,,,,0,1,1,1,0,147,147,116,913.927694892,9.62195917964e-06,914.901685156,0.974000207148,,,,z,1,0.950517195743,2018_Dec_04_1104,59.9866284527,spanish_cond1,001,1073,
images/orange.jpg,bat,x,sounds/animalfarm_spanish.wav,,,,,,,,,0,1,1,1,0,148,148,128,916.024914437,8.65967012942e-06,916.852247575,0.827342760283,,,,x,1,0.817158888327,2018_Dec_04_1104,59.9866284527,spanish_cond1,001,1073,
images/scissors04a.jpg,leek,x,sounds/animalfarm_spanish.wav,,,,,,,,,0,1,1,1,0,149,149,194,917.944909844,9.30111855268e-06,919.052875504,1.10797560262,,,,x,1,1.08390629385,2018_Dec_04_1104,59.9866284527,spanish_cond1,001,1073,
images/egg01b (1).jpg,egg,z,sounds/animalfarm_spanish.wav,,,,,,,,,0,1,1,1,0,150,150,19,920.164073498,8.98051075637e-06,921.636939117,1.47287556157,,,,z,1,1.45066842088,2018_Dec_04_1104,59.9866284527,spanish_cond1,001,1073,
images/crocodile.jpg,triangle ruler,x,sounds/animalfarm_spanish.wav,,,,,,,,,0,1,1,1,0,151,151,235,922.733259971,9.30111855268e-06,924.104302904,1.37105287542,,,,x,1,1.35064054932,2018_Dec_04_1104,59.9866284527,spanish_cond1,001,1073,
images/snowman.jpg,globe,x,sounds/animalfarm_spanish.wav,,,,,,,,,0,1,1,1,0,152,152,180,925.213923219,8.98051075637e-06,926.104877655,0.890964379301,,,,x,1,0.867171541089,2018_Dec_04_1104,59.9866284527,spanish_cond1,001,1073,
images/hat05.jpg,hat,z,sounds/animalfarm_spanish.wav,,,,,,,,,0,1,1,1,0,153,153,15,927.206794316,8.98051075637e-06,928.172135088,0.965351036051,,,,x,0,0.950511102099,2018_Dec_04_1104,59.9866284527,spanish_cond1,001,1073,
images/skateboard.jpg,key,x,sounds/animalfarm_spanish.wav,,,,,,,,,0,1,1,1,0,154,154,189,929.261787932,9.30111855268e-06,930.072672346,0.810894677648,,,,x,1,0.800469615264,2018_Dec_04_1104,59.9866284527,spanish_cond1,001,1073,
images/binder03b.jpg,dj mixer,x,sounds/animalfarm_spanish.wav,,,,,,,,,0,1,1,1,0,155,155,167,931.184578836,9.62195917964e-06,931.806507389,0.621938816737,,,,x,1,0.600435681874,2018_Dec_04_1104,59.9866284527,spanish_cond1,001,1073,
images/cloud.jpg,ceiling fan,x,sounds/animalfarm_spanish.wav,,,,,,,,,0,1,1,1,0,156,156,149,932.91030482,9.30111855268e-06,933.607010681,0.696715482976,,,,x,1,0.683763696346,2018_Dec_04_1104,59.9866284527,spanish_cond1,001,1073,
images/djmixer01.jpg,light bulb,x,sounds/animalfarm_spanish.wav,,,,,,,,,0,1,1,1,0,157,157,196,934.727034569,9.30135138333e-06,935.390858698,0.663834071485,,,,x,1,0.650447693421,2018_Dec_04_1104,59.9866284527,spanish_cond1,001,1073,
images/grandpiano.jpg,tulip,x,sounds/animalfarm_spanish.wav,,,,,,,,,0,1,1,1,0,158,158,236,936.505335211,9.30111855268e-06,938.408368723,1.90304345498,,,,x,1,1.88411194668,2018_Dec_04_1104,59.9866284527,spanish_cond1,001,1073,
images/cookingpot.jpg,grasshopper,x,sounds/animalfarm_spanish.wav,,,,,,,,,0,1,1,1,0,159,159,183,939.523929951,8.98051075637e-06,940.425447685,0.901527997805,,,,x,1,0.883671582211,2018_Dec_04_1104,59.9866284527,spanish_cond1,001,1073,
images/globe.jpg,cloud,x,sounds/animalfarm_spanish.wav,,,,,,,,,0,1,1,1,0,160,160,154,941.553088309,8.98051075637e-06,942.526216447,0.973138401052,,,,x,1,0.950522969011,2018_Dec_04_1104,59.9866284527,spanish_cond1,001,1073,
images/corkscrew02a.jpg,masquerade mask,x,sounds/animalfarm_spanish.wav,,,,,,,,,0,1,1,1,0,161,161,201,943.628477573,9.62195917964e-06,945.54373,1.9152623699,,,,x,1,1.90077299532,2018_Dec_04_1104,59.9866284527,spanish_cond1,001,1073,
images/magnifyingglass01b.jpg,magnifying glass,z,sounds/animalfarm_spanish.wav,,,,,,,,,0,1,1,1,0,162,162,64,946.648570451,8.98027792573e-06,947.994455511,1.34589436185,,,,z,1,1.333975652,2018_Dec_04_1104,59.9866284527,spanish_cond1,001,1073,
images/flower01.jpg,bus,x,sounds/animalfarm_spanish.wav,,,,,,,,,0,1,1,1,0,163,163,140,949.107542615,9.30135138333e-06,950.544986948,1.43745427579,,,,x,1,1.41715196031,2018_Dec_04_1104,59.9866284527,spanish_cond1,001,1073,
images/kiwi03.jpg,backpack,x,sounds/animalfarm_spanish.wav,,,,,,,,,0,1,1,1,0,164,164,125,951.674023396,9.30111855268e-06,953.012543816,1.33853068319,,,,x,1,1.31731299986,2018_Dec_04_1104,59.9866284527,spanish_cond1,001,1073,
images/paperclip04.jpg,eye drops,x,sounds/animalfarm_spanish.wav,,,,,,,,,0,1,1,1,0,165,165,174,954.117978262,9.30111855268e-06,955.313193522,1.19522552402,,,,x,1,1.18394218385,2018_Dec_04_1104,59.9866284527,spanish_cond1,001,1073,
images/fireextinguisher02.jpg,fire extinguisher,z,sounds/animalfarm_spanish.wav,,,,,,,,,0,1,1,1,0,166,166,175,956.422483804,9.30135138333e-06,957.480460866,1.05798732536,,,,x,0,1.03388594324,2018_Dec_04_1104,59.9866284527,spanish_cond1,001,1073,
images/cheetah.jpg,cheetah,z,sounds/animalfarm_spanish.wav,,,,,,,,,0,1,1,1,0,167,167,82,958.582939127,9.62195917964e-06,959.214286929,0.631358064478,,,,z,1,0.617101862095,2018_Dec_04_1104,59.9866284527,spanish_cond1,001,1073,
images/remotecontrol01c.jpg,remote control,z,sounds/animalfarm_spanish.wav,,,,,,,,,0,1,1,1,0,168,168,85,960.324113794,9.62195917964e-06,960.981651261,0.657547409879,,,,z,1,0.633969782386,2018_Dec_04_1104,59.9866284527,spanish_cond1,001,1073,
images/lamp04b.jpg,parking meter,x,sounds/animalfarm_spanish.wav,,,,,,,,,0,1,1,1,0,169,169,209,962.102650174,8.98027792573e-06,964.532480337,2.42983946414,,,,x,1,2.41762760561,2018_Dec_04_1104,59.9866284527,spanish_cond1,001,1073,
images/coffeepot03b.jpg,coffee pot,z,sounds/animalfarm_spanish.wav,,,,,,,,,0,1,1,1,0,170,170,107,965.652068992,9.62195917964e-06,967.449955434,1.7978967058,,,,x,0,1.78409754601,2018_Dec_04_1104,59.9866284527,spanish_cond1,001,1073,
images/gps.jpg,gps,z,sounds/animalfarm_spanish.wav,,,,,,,,,0,1,1,1,0,171,171,21,968.566925315,8.98051075637e-06,969.417194939,0.85027924506,,,,z,1,0.833835973172,2018_Dec_04_1104,59.9866284527,spanish_cond1,001,1073,
images/comb02a.jpg,diploma,x,sounds/animalfarm_spanish.wav,,,,,,,,,0,1,1,1,0,172,172,166,970.520435579,9.30135138333e-06,971.201038465,0.680612507742,,,,x,1,0.667131513823,2018_Dec_04_1104,59.9866284527,spanish_cond1,001,1073,
images/basketball01.jpg,basket ball,z,sounds/animalfarm_spanish.wav,,,,,,,,,0,1,1,1,0,173,173,33,972.341187304,9.62195917964e-06,973.151597356,0.810419674264,,,,z,1,0.800427920185,2018_Dec_04_1104,59.9866284527,spanish_cond1,001,1073,
images/hairdryer03a.jpg,hairdryer,z,sounds/animalfarm_spanish.wav,,,,,,,,,0,1,1,1,0,174,174,119,974.249426291,9.62195917964e-06,976.819352051,2.56993570295,,,,z,1,2.55103690946,2018_Dec_04_1104,59.9866284527,spanish_cond1,001,1073,
images/highheelshoe02a.jpg,high heel shoe,z,sounds/animalfarm_spanish.wav,,,,,,,,,0,1,1,1,0,175,175,75,977.927349464,8.65990296006e-06,979.303324288,1.37598412507,,,,z,1,1.36731057824,2018_Dec_04_1104,59.9866284527,spanish_cond1,001,1073,
images/aquarium.jpg,computer mouse,x,sounds/animalfarm_spanish.wav,,,,,,,,,0,1,1,1,0,176,176,159,980.438934452,8.98051075637e-06,981.670719218,1.23179535009,,,,x,1,1.21731784288,2018_Dec_04_1104,59.9866284527,spanish_cond1,001,1073,
images/tank.jpg,wallet,x,sounds/animalfarm_spanish.wav,,,,,,,,,0,1,1,1,0,177,177,237,982.774371037,8.98051075637e-06,983.67150886,0.897149368888,,,,x,1,0.884118040791,2018_Dec_04_1104,59.9866284527,spanish_cond1,001,1073,
images/computerkeyboard01a.jpg,computer keyboard,z,sounds/animalfarm_spanish.wav,,,,,,,,,0,1,1,1,0,178,178,61,984.788429669,8.98051075637e-06,985.621804751,0.833385345293,,,,z,1,0.817174604163,2018_Dec_04_1104,59.9866284527,spanish_cond1,001,1073,
images/showerhead01.jpg,skateboard,x,sounds/animalfarm_spanish.wav,,,,,,,,,0,1,1,1,0,179,179,223,986.728147188,9.30135138333e-06,987.572341191,0.844203945715,,,,x,1,0.833827634342,2018_Dec_04_1104,59.9866284527,spanish_cond1,001,1073,
images/table02.jpg,table,z,sounds/animalfarm_spanish.wav,,,,,,,,,0,1,1,1,0,180,180,49,988.686622699,9.30111855268e-06,989.472878127,0.786265050527,,,,z,1,0.767139179166,2018_Dec_04_1104,59.9866284527,spanish_cond1,001,1073,
images/pipe.jpg,icecube,x,sounds/animalfarm_spanish.wav,,,,,,,,,0,1,1,1,0,181,181,188,990.580242095,9.30135138333e-06,991.423440226,0.84320871532,,,,x,1,0.833804541733,2018_Dec_04_1104,59.9866284527,spanish_cond1,001,1073,
images/camera01a.jpg,bull,x,sounds/animalfarm_spanish.wav,,,,,,,,,0,1,1,1,0,182,182,138,992.532548011,9.30111855268e-06,993.474027309,0.94148924062,,,,x,1,0.917197664734,2018_Dec_04_1104,59.9866284527,spanish_cond1,001,1073,
images/gluestick.jpg,squirrel,x,sounds/animalfarm_spanish.wav,,,,,,,,,0,1,1,1,0,183,183,226,994.580804658,9.30135138333e-06,995.674648823,1.09385442827,,,,x,1,1.08388833283,2018_Dec_04_1104,59.9866284527,spanish_cond1,001,1073,
images/birthdaycandle.jpg,birthday candle,z,sounds/animalfarm_spanish.wav,,,,,,,,,0,1,1,1,0,184,184,55,996.770100816,9.62195917964e-06,998.258711153,1.48861995898,,,,z,1,1.46731664031,2018_Dec_04_1104,59.9866284527,spanish_cond1,001,1073,
images/croissant02b.jpg,croissant,z,sounds/animalfarm_spanish.wav,,,,,,,,,0,1,1,1,0,185,185,39,999.369214442,9.30111855268e-06,1000.37581895,1.00661509088,,,,z,1,0.983707472216,2018_Dec_04_1104,59.9866284527,spanish_cond1,001,1073,
images/corn01.jpg,corn,z,sounds/animalfarm_spanish.wav,,,,,,,,,0,1,1,1,0,186,186,22,1001.47721634,9.30111855268e-06,1003.0434075,1.56620110315,,,,x,0,1.55069885822,2018_Dec_04_1104,59.9866284527,spanish_cond1,001,1073,
images/antelope.jpg,antelope,z,sounds/animalfarm_spanish.wav,,,,,,,,,0,1,1,1,0,187,187,12,1004.1471379,9.94256697595e-06,1004.81082636,0.663699043216,,,,z,1,0.65062602004,2018_Dec_04_1104,59.9866284527,spanish_cond1,001,1073,
images/baseball01a.jpg,baseball,z,sounds/animalfarm_spanish.wav,,,,,,,,,0,1,1,1,0,188,188,74,1005.94169675,8.98051075637e-06,1007.21128135,1.26959389914,,,,z,1,1.25059343386,2018_Dec_04_1104,59.9866284527,spanish_cond1,001,1073,
images/cocktailshrimp01.jpg,cocktail shrimp,z,sounds/animalfarm_spanish.wav,,,,,,,,,0,1,1,1,0,189,189,30,1008.32444094,9.30135138333e-06,1008.96175146,0.637320466572,,,,z,1,0.617097051116,2018_Dec_04_1104,59.9866284527,spanish_cond1,001,1073,
images/bed.jpg,bed,z,sounds/animalfarm_spanish.wav,,,,,,,,,0,1,1,1,0,190,190,103,1010.08090392,8.65967012942e-06,1011.61251059,1.53161596484,,,,z,1,1.51735783811,2018_Dec_04_1104,59.9866284527,spanish_cond1,001,1073,
images/hand01a.jpg,cupcake,x,sounds/animalfarm_spanish.wav,,,,,,,,,0,1,1,1,0,191,191,163,1012.7225315,9.30111855268e-06,1013.31300493,0.59048337792,,,,z,0,0.567101717694,2018_Dec_04_1104,59.9866284527,spanish_cond1,001,1073,
images/key03b.jpg,cigar,x,sounds/animalfarm_spanish.wav,,,,,,,,,0,1,1,1,0,192,192,153,1014.41368549,9.30111855268e-06,1015.16351671,0.74984115758,,,,x,1,0.733794951811,2018_Dec_04_1104,59.9866284527,spanish_cond1,001,1073,
images/paintbrush03a.jpg,paint brush,z,sounds/animalfarm_spanish.wav,,,,,,,,,0,1,1,1,0,193,193,0,1016.26263498,8.98051075637e-06,1017.44732736,1.18470199709,,,,x,0,1.16705983016,2018_Dec_04_1104,59.9866284527,spanish_cond1,001,1073,
images/straw.jpg,straw,z,sounds/animalfarm_spanish.wav,,,,,,,,,0,1,1,1,0,194,194,109,1018.53734359,9.62195917964e-06,1019.61479516,1.0774618322,,,,x,0,1.06723979278,2018_Dec_04_1104,59.9866284527,spanish_cond1,001,1073,
images/handbag02a.jpg,candle,x,sounds/animalfarm_spanish.wav,,,,,,,,,0,1,1,1,0,195,195,144,1020.72990704,8.98051075637e-06,1022.06548603,1.33558925288,,,,x,1,1.3173059437,2018_Dec_04_1104,59.9866284527,spanish_cond1,001,1073,
images/dice05a.jpg,band aid,x,sounds/animalfarm_spanish.wav,,,,,,,,,0,1,1,1,0,196,196,126,1023.17755,8.98027792573e-06,1023.99920779,0.821668054909,,,,x,1,0.800269478699,2018_Dec_04_1104,59.9866284527,spanish_cond1,001,1073,
images/apricot.jpg,apricot,z,sounds/animalfarm_spanish.wav,,,,,,,,,0,1,1,1,0,197,197,32,1025.115024,9.94279980659e-06,1025.88322865,0.768214913318,,,,x,0,0.750472678337,2018_Dec_04_1104,59.9866284527,spanish_cond1,001,1073,
images/mushroom01.jpg,shower head,x,sounds/animalfarm_spanish.wav,,,,,,,,,0,1,1,1,0,198,198,222,1026.99901696,9.30135138333e-06,1027.93381221,0.934804871678,,,,x,1,0.91718643927,2018_Dec_04_1104,59.9866284527,spanish_cond1,001,1073,
images/highlighter03b.jpg,coin,x,sounds/animalfarm_spanish.wav,,,,,,,,,0,1,1,1,0,199,199,156,1029.03429937,8.98051075637e-06,1029.78434772,0.750058292877,,,,x,1,0.733791103121,2018_Dec_04_1104,59.9866284527,spanish_cond1,001,1073,
images/toucan.jpg,toucan,z,sounds/animalfarm_spanish.wav,,,,,,,,,0,1,1,1,0,200,200,81,1030.88388455,9.30135138333e-06,1031.66824125,0.784366640029,,,,z,1,0.76717029023,2018_Dec_04_1104,59.9866284527,spanish_cond1,001,1073,
images/mailbox01.jpg,mail box,z,sounds/animalfarm_spanish.wav,,,,,,,,,0,1,1,1,0,201,201,73,1032.78608416,9.30111855268e-06,1033.90217299,1.11609877367,,,,z,1,1.10056317272,2018_Dec_04_1104,59.9866284527,spanish_cond1,001,1073,
images/ant.jpg,ant,z,sounds/animalfarm_spanish.wav,,,,,,,,,0,1,1,1,0,202,202,98,1034.99524291,9.62195917964e-06,1035.63601284,0.640780199086,,,,z,1,0.617100900039,2018_Dec_04_1104,59.9866284527,spanish_cond1,001,1073,
images/pineapple01a.jpg,pineapple,z,sounds/animalfarm_spanish.wav,,,,,,,,,0,1,1,1,0,203,203,51,1036.74725221,9.62195917964e-06,1037.5032248,0.755983169191,,,,z,1,0.733811950544,2018_Dec_04_1104,59.9866284527,spanish_cond1,001,1073,
images/gorilla.jpg,gorilla,z,sounds/animalfarm_spanish.wav,,,,,,,,,0,1,1,1,0,204,204,80,1038.61273735,8.98051075637e-06,1039.33706398,0.724336574553,,,,z,1,0.700468043797,2018_Dec_04_1104,59.9866284527,spanish_cond1,001,1073,
images/watermelon01.jpg,orange,x,sounds/animalfarm_spanish.wav,,,,,,,,,0,1,1,1,0,205,205,207,1040.46441434,9.30135138333e-06,1041.53767298,1.07326826546,,,,x,1,1.05054763332,2018_Dec_04_1104,59.9866284527,spanish_cond1,001,1073,
images/triangleruler02.jpg,bottle of red wine,x,sounds/animalfarm_spanish.wav,,,,,,,,,0,1,1,1,0,206,206,134,1042.6486811,9.30111855268e-06,1043.77166053,1.12298969389,,,,x,1,1.10058177519,2018_Dec_04_1104,59.9866284527,spanish_cond1,001,1073,
images/pictureframe04.jpg,picture frame,z,sounds/animalfarm_spanish.wav,,,,,,,,,0,1,1,1,0,207,207,41,1044.89189578,8.98051075637e-06,1045.68885146,0.796964980196,,,,z,1,0.7838101706,2018_Dec_04_1104,59.9866284527,spanish_cond1,001,1073,
images/masquerademask02b.jpg,mirror,x,sounds/animalfarm_spanish.wav,,,,,,,,,0,1,1,1,0,208,208,204,1046.79214599,8.65967012942e-06,1048.15622359,1.3640869041,,,,x,1,1.35064247367,2018_Dec_04_1104,59.9866284527,spanish_cond1,001,1073,
images/flamingo.jpg,flamingo,z,sounds/animalfarm_spanish.wav,,,,,,,,,0,1,1,1,0,209,209,52,1049.25319296,8.98051075637e-06,1050.20681645,0.953633104218,,,,z,1,0.933861278929,2018_Dec_04_1104,59.9866284527,spanish_cond1,001,1073,
images/cupcake.jpg,scissors,x,sounds/animalfarm_spanish.wav,,,,,,,,,0,1,1,1,0,210,210,219,1051.32453427,9.30111855268e-06,1051.99064779,0.666123133386,,,,x,1,0.650444165338,2018_Dec_04_1104,59.9866284527,spanish_cond1,001,1073,
images/cat.jpg,black olive,x,sounds/animalfarm_spanish.wav,,,,,,,,,0,1,1,1,0,211,211,133,1053.1196419,9.30135138333e-06,1055.99179119,2.87215923937,,,,x,1,2.85107273515,2018_Dec_04_1104,59.9866284527,spanish_cond1,001,1073,
,,,sounds/animalfarm_spanish.wav,,,,,,,,,0,1,1,1,,,,,,,,,,,,,,,2018_Dec_04_1104,59.9866284527,spanish_cond1,001,1073,
