images,name,corrAns,sounds,trials_3.thisRepN,trials_3.thisTrialN,trials_3.thisN,trials_3.thisIndex,trials_4.thisRepN,trials_4.thisTrialN,trials_4.thisN,trials_4.thisIndex,trials_2.thisRepN,trials_2.thisTrialN,trials_2.thisN,trials_2.thisIndex,trials.thisRepN,trials.thisTrialN,trials.thisN,trials.thisIndex,begin_global,begin_routine,end_global,end_routine,key_resp_2.keys,key_resp_2.corr,key_resp_2.rt,begin_book,key_resp_1.keys,key_resp_1.corr,key_resp_1.rt,date,frameRate,expName,session,participant,
images\volleyball.jpg,volley ball,z,,0,0,0,0,,,,,,,,,,,,,,,,,,,,,,,,2018_Nov_09_1341,59.9823588235,chinese_cond2,001,1002,
images\puma.jpg,puma,z,,,,,,0,0,0,0,,,,,,,,,48.1578562496,1.02632329799e-05,50.6537347506,2.49588972644,x,0,2.48424927011,,,,,2018_Nov_09_1341,59.9823588235,chinese_cond2,001,1002,
images\battery03b.jpg,battery,z,sounds\greatgatsby_chinese.wav,,,,,,,,,0,0,0,0,0,0,0,34,92.8399358675,9.30111855268e-06,94.4988606182,1.65893437259,,,,82.650622739,z,1,1.65069682692,2018_Nov_09_1341,59.9823588235,chinese_cond2,001,1002,
images\blackolive.jpg,tank,x,sounds\greatgatsby_chinese.wav,,,,,,,,,0,0,0,0,0,1,1,229,95.6221941622,9.94250876829e-06,97.0828992029,1.46071594546,,,,,x,1,1.45063678693,2018_Nov_09_1341,59.9823588235,chinese_cond2,001,1002,
images\bus.jpg,microphone,x,sounds\greatgatsby_chinese.wav,,,,,,,,,0,0,0,0,0,2,2,203,98.2016428265,2.30923178606e-05,99.6002330401,1.39860175969,,,,,x,1,1.38395769743,2018_Nov_09_1341,59.9823588235,chinese_cond2,001,1002,
images\hat05.jpg,hat,z,sounds\greatgatsby_chinese.wav,,,,,,,,,0,0,0,0,0,3,3,15,100.706096598,9.62178455666e-06,101.550760299,0.844674284337,,,,,z,1,0.833815118356,2018_Nov_09_1341,59.9823588235,chinese_cond2,001,1002,
images\mailbox01.jpg,mail box,z,sounds\greatgatsby_chinese.wav,,,,,,,,,0,0,0,0,0,4,4,73,102.670417673,9.30106034502e-06,103.901381659,1.23097424913,,,,,z,1,1.21723688138,2018_Nov_09_1341,59.9823588235,chinese_cond2,001,1002,
images\lamp04b.jpg,parking meter,x,sounds\greatgatsby_chinese.wav,,,,,,,,,0,0,0,0,0,5,5,209,105.023642051,9.30111855268e-06,106.285379768,1.26174798002,,,,,x,1,1.25060497085,2018_Nov_09_1341,59.9823588235,chinese_cond2,001,1002,
images\corkscrew02a.jpg,masquerade mask,x,sounds\greatgatsby_chinese.wav,,,,,,,,,0,0,0,0,0,6,6,201,107.389617883,9.62178455666e-06,109.102780733,1.71317279252,,,,,x,1,1.70064231945,2018_Nov_09_1341,59.9823588235,chinese_cond2,001,1002,
images\lettuce.jpg,mushroom,x,sounds\greatgatsby_chinese.wav,,,,,,,,,0,0,0,0,0,7,7,205,110.225307008,9.62178455666e-06,111.286716557,1.0614201331,,,,,x,1,1.05054525152,2018_Nov_09_1341,59.9823588235,chinese_cond2,001,1002,
images\flamingo.jpg,flamingo,z,sounds\greatgatsby_chinese.wav,,,,,,,,,0,0,0,0,0,8,8,52,112.386454555,9.62184276432e-06,114.07078792,1.68434394867,,,,,x,0,1.66736563714,2018_Nov_09_1341,59.9823588235,chinese_cond2,001,1002,
images\bed.jpg,bed,z,sounds\greatgatsby_chinese.wav,,,,,,,,,0,0,0,0,0,9,9,103,115.191889526,9.30106034502e-06,116.404738224,1.21285864065,,,,,z,1,1.20055556286,2018_Nov_09_1341,59.9823588235,chinese_cond2,001,1002,
images\mushroom01.jpg,shower head,x,sounds\greatgatsby_chinese.wav,,,,,,,,,0,0,0,0,0,10,10,222,117.521305396,9.62178455666e-06,118.822066577,1.30077176477,,,,,x,1,1.28392783774,2018_Nov_09_1341,59.9823588235,chinese_cond2,001,1002,
images\dryingmachine01.jpg,drying machine,z,sounds\greatgatsby_chinese.wav,,,,,,,,,0,0,0,0,0,11,11,18,119.944310292,9.62184276432e-06,121.089347414,1.14504770655,,,,,z,1,1.1338928304,2018_Nov_09_1341,59.9823588235,chinese_cond2,001,1002,
images\handfan01b.jpg,handfan,z,sounds\greatgatsby_chinese.wav,,,,,,,,,0,0,0,0,0,12,12,69,122.205697454,8.98033613339e-06,124.273533726,2.06784589338,,,,,x,0,2.05080183293,2018_Nov_09_1341,59.9823588235,chinese_cond2,001,1002,
images\toucan.jpg,toucan,z,sounds\greatgatsby_chinese.wav,,,,,,,,,0,0,0,0,0,13,13,81,125.374639623,9.62184276432e-06,126.907575854,1.53294745635,,,,,z,1,1.51733191271,2018_Nov_09_1341,59.9823588235,chinese_cond2,001,1002,
images\tape01a.jpg,tie,x,sounds\greatgatsby_chinese.wav,,,,,,,,,0,0,0,0,0,14,14,232,128.034274142,8.98033613339e-06,129.908380558,1.87411603704,,,,,z,0,1.85074916959,2018_Nov_09_1341,59.9823588235,chinese_cond2,001,1002,
images\blueberry02.jpg,blueberry,z,sounds\greatgatsby_chinese.wav,,,,,,,,,0,0,0,0,0,15,15,46,131.022235023,9.94250876829e-06,131.892291942,0.870066861913,,,,,z,1,0.850524019392,2018_Nov_09_1341,59.9823588235,chinese_cond2,001,1002,
images\backpack01b.jpg,swallow,x,sounds\greatgatsby_chinese.wav,,,,,,,,,0,0,0,0,0,16,16,228,133.024239886,8.98033613339e-06,134.743011284,1.71878134098,,,,,x,1,1.70070870989,2018_Nov_09_1341,59.9823588235,chinese_cond2,001,1002,
images\cocktailshrimp01.jpg,cocktail shrimp,z,sounds\greatgatsby_chinese.wav,,,,,,,,,0,0,0,0,0,17,17,30,135.859236882,1.02632329799e-05,137.477077499,1.61785120139,,,,,z,1,1.60067885026,2018_Nov_09_1341,59.9823588235,chinese_cond2,001,1002,
images\redfox.jpg,red fox,z,sounds\greatgatsby_chinese.wav,,,,,,,,,0,0,0,0,0,18,18,1,138.588937686,9.62178455666e-06,139.961090073,1.37216233002,,,,,z,1,1.35060885164,2018_Nov_09_1341,59.9823588235,chinese_cond2,001,1002,
images\computerkeyboard01a.jpg,computer keyboard,z,sounds\greatgatsby_chinese.wav,,,,,,,,,0,0,0,0,0,19,19,61,141.081758699,9.30106034502e-06,142.111661336,1.02991257951,,,,,z,1,1.01719127403,2018_Nov_09_1341,59.9823588235,chinese_cond2,001,1002,
images\bowl02b (1).jpg,bowl,z,sounds\greatgatsby_chinese.wav,,,,,,,,,0,0,0,0,0,20,20,24,143.227852616,9.30106034502e-06,144.545642141,1.3177997889,,,,,z,1,1.30059344071,2018_Nov_09_1341,59.9823588235,chinese_cond2,001,1002,
images\comb02a.jpg,diploma,x,sounds\greatgatsby_chinese.wav,,,,,,,,,0,0,0,0,0,21,21,166,145.651574015,9.94256697595e-06,147.279822215,1.62828989467,,,,,x,1,1.61737684655,2018_Nov_09_1341,59.9823588235,chinese_cond2,001,1002,
images\broom02.jpg,broom,z,sounds\greatgatsby_chinese.wav,,,,,,,,,0,0,0,0,0,22,22,116,148.374609796,8.98033613339e-06,150.547251869,2.17265201564,,,,,z,1,2.15082944749,2018_Nov_09_1341,59.9823588235,chinese_cond2,001,1002,
images\raisin.jpg,ruler,x,sounds\greatgatsby_chinese.wav,,,,,,,,,0,0,0,0,0,23,23,218,151.652354984,9.30111855268e-06,153.39801483,1.7456697881,,,,,x,1,1.73402933171,2018_Nov_09_1341,59.9823588235,chinese_cond2,001,1002,
images\ruler02b.jpg,watermelon,x,sounds\greatgatsby_chinese.wav,,,,,,,,,0,0,0,0,0,24,24,238,154.499940826,9.30106034502e-06,155.631972479,1.13204255787,,,,,x,1,1.11723332136,2018_Nov_09_1341,59.9823588235,chinese_cond2,001,1002,
images\pingpongpaddle01c (1).jpg,ping pong paddle,z,sounds\greatgatsby_chinese.wav,,,,,,,,,0,0,0,0,0,25,25,10,156.74379514,9.30106034502e-06,159.566347618,2.82256306207,,,,,z,1,2.80100124475,2018_Nov_09_1341,59.9823588235,chinese_cond2,001,1002,
images\ceilingfan02.jpg,paper clip,x,sounds\greatgatsby_chinese.wav,,,,,,,,,0,0,0,0,0,26,26,208,160.664691097,9.30106034502e-06,163.600906245,2.93622509117,,,,,z,0,2.91784360021,2018_Nov_09_1341,59.9823588235,chinese_cond2,001,1002,
images\doll.jpg,carrot,x,sounds\greatgatsby_chinese.wav,,,,,,,,,0,0,0,0,0,27,27,146,164.713571135,9.62178455666e-06,166.168120468,1.45455927495,,,,,x,1,1.43394905387,2018_Nov_09_1341,59.9823588235,chinese_cond2,001,1002,
images\lipstick04.jpg,lipstick,z,sounds\greatgatsby_chinese.wav,,,,,,,,,0,0,0,0,0,28,28,56,167.268534237,9.30106034502e-06,169.902286429,2.63376181357,,,,,z,1,2.61743233231,2018_Nov_09_1341,59.9823588235,chinese_cond2,001,1002,
images\apricot.jpg,apricot,z,sounds\greatgatsby_chinese.wav,,,,,,,,,0,0,0,0,0,29,29,32,171.021635264,1.02632911876e-05,173.103311856,2.08168685593,,,,,z,1,2.06742125115,2018_Nov_09_1341,59.9823588235,chinese_cond2,001,1002,
images\cheetah.jpg,cheetah,z,sounds\greatgatsby_chinese.wav,,,,,,,,,0,0,0,0,0,30,30,82,174.207714184,9.30106034502e-06,175.670732626,1.4630283853,,,,,z,1,1.45068200934,2018_Nov_09_1341,59.9823588235,chinese_cond2,001,1002,
images\straw.jpg,straw,z,sounds\greatgatsby_chinese.wav,,,,,,,,,0,0,0,0,0,31,31,109,176.762729564,9.62184276432e-06,178.237864101,1.4751454416,,,,,z,1,1.45046487736,2018_Nov_09_1341,59.9823588235,chinese_cond2,001,1002,
images\ashtray02b.jpg,ashtray,z,sounds\greatgatsby_chinese.wav,,,,,,,,,0,0,0,0,0,32,32,43,179.352376697,9.62178455666e-06,180.588675973,1.23630921775,,,,,x,0,1.21724874829,2018_Nov_09_1341,59.9823588235,chinese_cond2,001,1002,
images\parkingmeter.jpg,ear,x,sounds\greatgatsby_chinese.wav,,,,,,,,,0,0,0,0,0,33,33,171,181.692353778,9.94250876829e-06,183.172699163,1.48035564745,,,,,x,1,1.46731104946,2018_Nov_09_1341,59.9823588235,chinese_cond2,001,1002,
images\puma.jpg,puma,z,sounds\greatgatsby_chinese.wav,,,,,,,,,0,0,0,0,0,34,34,4,184.272165826,8.98033613339e-06,185.406624418,1.13446853496,,,,,z,1,1.11721151194,2018_Nov_09_1341,59.9823588235,chinese_cond2,001,1002,
images\butterfly.jpg,butterfly,z,sounds\greatgatsby_chinese.wav,,,,,,,,,0,0,0,0,0,35,35,91,186.516266138,9.94250876829e-06,187.507183477,0.990927923413,,,,,z,1,0.967167203547,2018_Nov_09_1341,59.9823588235,chinese_cond2,001,1002,
images\lightbulb03b.jpg,treadmill,x,sounds\greatgatsby_chinese.wav,,,,,,,,,0,0,0,0,0,36,36,234,188.701855308,9.62184276432e-06,190.474653447,1.77280776057,,,,,x,1,1.75072027207,2018_Nov_09_1341,59.9823588235,chinese_cond2,001,1002,
images\printer03a.jpg,printer,z,sounds\greatgatsby_chinese.wav,,,,,,,,,0,0,0,0,0,37,37,72,191.658925071,9.30106034502e-06,192.658568103,0.999652973609,,,,,z,1,0.983820618829,2018_Nov_09_1341,59.9823588235,chinese_cond2,001,1002,
images\microphone01.jpg,diaper,x,sounds\greatgatsby_chinese.wav,,,,,,,,,0,0,0,0,0,38,38,164,193.758039256,9.62178455666e-06,194.942512297,1.18448298366,,,,,x,1,1.16720992432,2018_Nov_09_1341,59.9823588235,chinese_cond2,001,1002,
images\razor04a.jpg,razor,z,sounds\greatgatsby_chinese.wav,,,,,,,,,0,0,0,0,0,39,39,36,196.043887285,9.62178455666e-06,197.326485711,1.28260933008,,,,,z,1,1.26724331192,2018_Nov_09_1341,59.9823588235,chinese_cond2,001,1002,
images\dreamcatcher.jpg,dream catcher,z,sounds\greatgatsby_chinese.wav,,,,,,,,,0,0,0,0,0,40,40,48,198.425292318,9.62178455666e-06,199.577096775,1.15181439929,,,,,z,1,1.13386685163,2018_Nov_09_1341,59.9823588235,chinese_cond2,001,1002,
images\handbag02a.jpg,candle,x,sounds\greatgatsby_chinese.wav,,,,,,,,,0,0,0,0,0,41,41,144,200.693655608,9.62184276432e-06,201.861059893,1.16741422727,,,,,x,1,1.15056484792,2018_Nov_09_1341,59.9823588235,chinese_cond2,001,1002,
images\acousticguitar02.jpg,acoustic guitar,z,sounds\greatgatsby_chinese.wav,,,,,,,,,0,0,0,0,0,42,42,97,202.974472076,9.62184276432e-06,203.861586526,0.887124713627,,,,,z,1,0.867135098728,2018_Nov_09_1341,59.9823588235,chinese_cond2,001,1002,
images\umbrella01.jpg,umbrella,z,sounds\greatgatsby_chinese.wav,,,,,,,,,0,0,0,0,0,43,43,53,204.976261089,9.94250876829e-06,207.929350955,2.95310012862,,,,,z,1,2.93436198949,2018_Nov_09_1341,59.9823588235,chinese_cond2,001,1002,
images\flipflop01b.jpg,flip flop,z,sounds\greatgatsby_chinese.wav,,,,,,,,,0,0,0,0,0,44,44,27,209.047183073,3.04690911435e-05,210.430018548,1.38284990727,,,,,z,1,1.36727156799,2018_Nov_09_1341,59.9823588235,chinese_cond2,001,1002,
images\snowman.jpg,globe,x,sounds\greatgatsby_chinese.wav,,,,,,,,,0,0,0,0,0,45,45,180,211.543432655,9.62178455666e-06,212.864010579,1.32058850792,,,,,x,1,1.3006004967,2018_Nov_09_1341,59.9823588235,chinese_cond2,001,1002,
images\cola.jpg,comb,x,sounds\greatgatsby_chinese.wav,,,,,,,,,0,0,0,0,0,46,46,157,213.986855335,9.94250876829e-06,215.24799618,1.26115110749,,,,,z,0,1.25057321886,2018_Nov_09_1341,59.9823588235,chinese_cond2,001,1002,
images\seagull.jpg,seagull,z,sounds\greatgatsby_chinese.wav,,,,,,,,,0,0,0,0,0,47,47,50,216.357812374,1.28290848807e-05,217.181840516,0.824039367319,,,,,z,1,0.800460499479,2018_Nov_09_1341,59.9823588235,chinese_cond2,001,1002,
images\daisy.jpg,daisy,z,sounds\greatgatsby_chinese.wav,,,,,,,,,0,0,0,0,0,48,48,6,218.28531883,9.62178455666e-06,218.998982975,0.71367440914,,,,,z,1,0.700416207081,2018_Nov_09_1341,59.9823588235,chinese_cond2,001,1002,
images\nailpolish02b.jpg,nail polish,z,sounds\greatgatsby_chinese.wav,,,,,,,,,0,0,0,0,0,49,49,94,220.177242898,9.94256697595e-06,221.733055285,1.5558229704,,,,,z,1,1.53398180002,2018_Nov_09_1341,59.9823588235,chinese_cond2,001,1002,
images\electrictoothbrush01a.jpg,banjo,x,sounds\greatgatsby_chinese.wav,,,,,,,,,0,0,0,0,0,50,50,127,222.829408654,9.62178455666e-06,223.917257632,1.08785860054,,,,,x,1,1.06746519072,2018_Nov_09_1341,59.9823588235,chinese_cond2,001,1002,
images\cloud.jpg,ceiling fan,x,sounds\greatgatsby_chinese.wav,,,,,,,,,0,0,0,0,0,51,51,149,225.022504754,9.94256697595e-06,226.084239841,1.06174599146,,,,,x,1,1.05053659185,2018_Nov_09_1341,59.9823588235,chinese_cond2,001,1002,
images\belt02a.jpg,snowman,x,sounds\greatgatsby_chinese.wav,,,,,,,,,0,0,0,0,0,52,52,224,227.188303801,9.62178455666e-06,228.334868866,1.14657532796,,,,,x,1,1.13391335693,2018_Nov_09_1341,59.9823588235,chinese_cond2,001,1002,
images\calculator02b.jpg,dice,x,sounds\greatgatsby_chinese.wav,,,,,,,,,0,0,0,0,0,53,53,165,229.437191601,9.62178455666e-06,230.235345113,0.798163454514,,,,,x,1,0.783783029648,2018_Nov_09_1341,59.9823588235,chinese_cond2,001,1002,
images\coin01b.jpg,arrow,x,sounds\greatgatsby_chinese.wav,,,,,,,,,0,0,0,0,0,54,54,124,231.340326994,9.62184276432e-06,232.419397682,1.07908030966,,,,,z,0,1.067322788,2018_Nov_09_1341,59.9823588235,chinese_cond2,001,1002,
images\hairdryer03a.jpg,hairdryer,z,sounds\greatgatsby_chinese.wav,,,,,,,,,0,0,0,0,0,55,55,119,233.519576038,8.98033613339e-06,234.686541889,1.16697579378,,,,,z,1,1.15052828507,2018_Nov_09_1341,59.9823588235,chinese_cond2,001,1002,
images\beermug01b.jpg,beer mug,z,sounds\greatgatsby_chinese.wav,,,,,,,,,0,0,0,0,0,56,56,111,235.805834917,9.62178455666e-06,237.220547423,1.41472244787,,,,,z,1,1.40061239561,2018_Nov_09_1341,59.9823588235,chinese_cond2,001,1002,
images\button07.jpg,radish,x,sounds\greatgatsby_chinese.wav,,,,,,,,,0,0,0,0,0,57,57,215,238.333331943,9.62178455666e-06,239.371191811,1.03786948923,,,,,x,1,1.01722495037,2018_Nov_09_1341,59.9823588235,chinese_cond2,001,1002,
images\rubberglove02a.jpg,lady bug,x,sounds\greatgatsby_chinese.wav,,,,,,,,,0,0,0,0,0,58,58,192,240.478362972,9.62184276432e-06,242.138542406,1.66018937633,,,,,x,1,1.6506795077,2018_Nov_09_1341,59.9823588235,chinese_cond2,001,1002,
images\mattress.jpg,cat,x,sounds\greatgatsby_chinese.wav,,,,,,,,,0,0,0,0,0,59,59,147,243.243328643,9.62178455666e-06,244.172415961,0.929097580782,,,,,x,1,0.917162376572,2018_Nov_09_1341,59.9823588235,chinese_cond2,001,1002,
images\swallow.jpg,mattress,x,sounds\greatgatsby_chinese.wav,,,,,,,,,0,0,0,0,0,60,60,202,245.274944923,8.98039434105e-06,246.789802108,1.51486712776,,,,,x,1,1.50066021603,2018_Nov_09_1341,59.9823588235,chinese_cond2,001,1002,
images\parrot01.jpg,chameleon,x,sounds\greatgatsby_chinese.wav,,,,,,,,,0,0,0,0,0,61,61,150,247.906138998,9.94256697595e-06,249.107078471,1.20095005678,,,,,z,0,1.18389156356,2018_Nov_09_1341,59.9823588235,chinese_cond2,001,1002,
images\orange.jpg,bat,x,sounds\greatgatsby_chinese.wav,,,,,,,,,0,0,0,0,0,62,62,128,250.233974969,9.62184276432e-06,251.82447299,1.59050828457,,,,,x,1,1.56732808007,2018_Nov_09_1341,59.9823588235,chinese_cond2,001,1002,
images\hand01a.jpg,cupcake,x,sounds\greatgatsby_chinese.wav,,,,,,,,,0,0,0,0,0,63,63,163,252.937188875,9.30106034502e-06,254.175362798,1.23818322411,,,,,x,1,1.21749859443,2018_Nov_09_1341,59.9823588235,chinese_cond2,001,1002,
images\saltshaker03c.jpg,salt shaker,z,sounds\greatgatsby_chinese.wav,,,,,,,,,0,0,0,0,0,64,64,63,255.28980291,9.30106034502e-06,256.492392522,1.20259891293,,,,,z,1,1.18387584796,2018_Nov_09_1341,59.9823588235,chinese_cond2,001,1002,
images\kiwi03.jpg,backpack,x,sounds\greatgatsby_chinese.wav,,,,,,,,,0,0,0,0,0,65,65,125,257.62014536,9.94250876829e-06,258.692997798,1.07286270102,,,,,x,1,1.05053306388,2018_Nov_09_1341,59.9823588235,chinese_cond2,001,1002,
images\peach01.jpg,peach,z,sounds\greatgatsby_chinese.wav,,,,,,,,,0,0,0,0,0,66,66,106,259.822833114,9.94250876829e-06,260.826918531,1.00409568049,,,,,z,1,0.983867124189,2018_Nov_09_1341,59.9823588235,chinese_cond2,001,1002,
images\cockroach02.jpg,belt,x,sounds\greatgatsby_chinese.wav,,,,,,,,,0,0,0,0,0,67,67,129,261.926918884,9.30106034502e-06,262.894117198,0.967208256538,,,,,x,1,0.950495186087,2018_Nov_09_1341,59.9823588235,chinese_cond2,001,1002,
images\hairband.jpg,hairband,z,sounds\greatgatsby_chinese.wav,,,,,,,,,0,0,0,0,0,68,68,66,264.004096643,9.62178455666e-06,264.927995564,0.92390918429,,,,,z,1,0.900476567855,2018_Nov_09_1341,59.9823588235,chinese_cond2,001,1002,
images\candy.jpg,candy,z,sounds\greatgatsby_chinese.wav,,,,,,,,,0,0,0,0,0,69,69,31,266.030595407,8.98033613339e-06,267.01188902,0.981303555309,,,,,z,1,0.967121339578,2018_Nov_09_1341,59.9823588235,chinese_cond2,001,1002,
images\spoon02b.jpg,spoon,z,sounds\greatgatsby_chinese.wav,,,,,,,,,0,0,0,0,0,70,70,38,268.105167581,9.30106034502e-06,269.145813602,1.0406556424,,,,,z,1,1.01720185799,2018_Nov_09_1341,59.9823588235,chinese_cond2,001,1002,
images\flashlight05.jpg,flash light,z,sounds\greatgatsby_chinese.wav,,,,,,,,,0,0,0,0,0,71,71,8,270.250417346,9.30106034502e-06,271.329777329,1.07936960517,,,,,z,1,1.06716915994,2018_Nov_09_1341,59.9823588235,chinese_cond2,001,1002,
images\gluestick.jpg,squirrel,x,sounds\greatgatsby_chinese.wav,,,,,,,,,0,0,0,0,0,72,72,226,272.439156373,9.30106034502e-06,273.630336131,1.19118937984,,,,,x,1,1.16721441445,2018_Nov_09_1341,59.9823588235,chinese_cond2,001,1002,
images\magnifyingglass01b.jpg,magnifying glass,z,sounds\greatgatsby_chinese.wav,,,,,,,,,0,0,0,0,0,73,73,64,274.739172506,9.62178455666e-06,275.914503873,1.17534163006,,,,,z,1,1.15077364101,2018_Nov_09_1341,59.9823588235,chinese_cond2,001,1002,
images\cat.jpg,black olive,x,sounds\greatgatsby_chinese.wav,,,,,,,,,0,0,0,0,0,74,74,133,277.04523113,9.30106034502e-06,278.414973577,1.3697520686,,,,,x,1,1.35056683642,2018_Nov_09_1341,59.9823588235,chinese_cond2,001,1002,
images\lily.jpg,kiwi,x,sounds\greatgatsby_chinese.wav,,,,,,,,,0,0,0,0,0,75,75,190,279.516027196,9.30106034502e-06,280.398822099,0.882804845111,,,,,z,0,0.867122590425,2018_Nov_09_1341,59.9823588235,chinese_cond2,001,1002,
images\hairpin.jpg,hair pin,z,sounds\greatgatsby_chinese.wav,,,,,,,,,0,0,0,0,0,76,76,28,281.494136634,9.30106034502e-06,282.932834689,1.43870799721,,,,,z,1,1.41729595925,2018_Nov_09_1341,59.9823588235,chinese_cond2,001,1002,
images\eyedrops.jpg,bicycle,x,sounds\greatgatsby_chinese.wav,,,,,,,,,0,0,0,0,0,77,77,131,284.034397943,9.30106034502e-06,285.833617871,1.79923019168,,,,,x,1,1.78406462772,2018_Nov_09_1341,59.9823588235,chinese_cond2,001,1002,
images\notebook02b.jpg,notebook,z,sounds\greatgatsby_chinese.wav,,,,,,,,,0,0,0,0,0,78,78,7,286.940773317,9.94256697595e-06,287.784146092,0.843382717809,,,,,z,1,0.833810628217,2018_Nov_09_1341,59.9823588235,chinese_cond2,001,1002,
images\teapot.jpg,light switch,x,sounds\greatgatsby_chinese.wav,,,,,,,,,0,0,0,0,0,79,79,197,288.903581844,9.62178455666e-06,290.70158686,1.79801495804,,,,,x,1,1.78405083646,2018_Nov_09_1341,59.9823588235,chinese_cond2,001,1002,
images\triangleruler02.jpg,bottle of red wine,x,sounds\greatgatsby_chinese.wav,,,,,,,,,0,0,0,0,0,80,80,134,291.813791506,9.62178455666e-06,293.035552239,1.22177099535,,,,,x,1,1.2004006519,2018_Nov_09_1341,59.9823588235,chinese_cond2,001,1002,
images\remotecontrol01c.jpg,remote control,z,sounds\greatgatsby_chinese.wav,,,,,,,,,0,0,0,0,0,81,81,85,294.146297579,9.62178455666e-06,295.502879966,1.35659232968,,,,,z,1,1.33393009892,2018_Nov_09_1341,59.9823588235,chinese_cond2,001,1002,
images\leaf01a.jpg,leaf,z,sounds\greatgatsby_chinese.wav,,,,,,,,,0,0,0,0,0,82,82,68,296.607043672,9.62178455666e-06,297.386713702,0.779679972446,,,,,z,1,0.767115181661,2018_Nov_09_1341,59.9823588235,chinese_cond2,001,1002,
images\lock02a.jpg,lock,z,sounds\greatgatsby_chinese.wav,,,,,,,,,0,0,0,0,0,83,83,65,298.49970894,9.94250876829e-06,299.870722427,1.37102310866,,,,,z,1,1.35060949303,2018_Nov_09_1341,59.9823588235,chinese_cond2,001,1002,
images\skateboard.jpg,key,x,sounds\greatgatsby_chinese.wav,,,,,,,,,0,0,0,0,0,84,84,189,300.964119337,8.98033613339e-06,302.804898716,1.84078867984,,,,,x,1,1.81745003635,2018_Nov_09_1341,59.9823588235,chinese_cond2,001,1002,
images\gamecontroller01.jpg,game controller,z,sounds\greatgatsby_chinese.wav,,,,,,,,,0,0,0,0,0,85,85,112,303.927401257,9.30111855268e-06,305.022109619,1.09471830411,,,,,z,1,1.08386940137,2018_Nov_09_1341,59.9823588235,chinese_cond2,001,1002,
images\basketball01.jpg,basket ball,z,sounds\greatgatsby_chinese.wav,,,,,,,,,0,0,0,0,0,86,86,33,306.164347438,8.98033613339e-06,307.456098122,1.29176030552,,,,,z,1,1.26725261303,2018_Nov_09_1341,59.9823588235,chinese_cond2,001,1002,
images\candycane01a.jpg,lip,x,sounds\greatgatsby_chinese.wav,,,,,,,,,0,0,0,0,0,87,87,200,308.552348538,9.94250876829e-06,309.740229621,1.18789134675,,,,,x,1,1.16729972785,2018_Nov_09_1341,59.9823588235,chinese_cond2,001,1002,
images\toothbrush03a.jpg,parrot,x,sounds\greatgatsby_chinese.wav,,,,,,,,,0,0,0,0,0,88,88,210,310.833862907,8.98033613339e-06,311.907290728,1.07343776408,,,,,x,1,1.05053210171,2018_Nov_09_1341,59.9823588235,chinese_cond2,001,1002,
images\lollipop03b.jpg,lollipop,z,sounds\greatgatsby_chinese.wav,,,,,,,,,0,0,0,0,0,89,89,42,313.069389551,8.98033613339e-06,314.074544913,1.00516530417,,,,,z,1,0.98383697588,2018_Nov_09_1341,59.9823588235,chinese_cond2,001,1002,
images\coffeepot03b.jpg,coffee pot,z,sounds\greatgatsby_chinese.wav,,,,,,,,,0,0,0,0,0,90,90,107,315.19755773,9.62178455666e-06,316.158433558,0.96088577027,,,,,z,1,0.950489092211,2018_Nov_09_1341,59.9823588235,chinese_cond2,001,1002,
images\broadsword.jpg,teapot,x,sounds\greatgatsby_chinese.wav,,,,,,,,,0,0,0,0,0,91,91,231,317.254438618,9.62178455666e-06,318.492393805,1.23796512996,,,,,x,1,1.21723239118,2018_Nov_09_1341,59.9823588235,chinese_cond2,001,1002,
images\flower01.jpg,bus,x,sounds\greatgatsby_chinese.wav,,,,,,,,,0,0,0,0,0,92,92,140,319.607752799,8.98033613339e-06,320.659661781,1.05191860342,,,,,z,0,1.03387964854,2018_Nov_09_1341,59.9823588235,chinese_cond2,001,1002,
images\scissors04a.jpg,leek,x,sounds\greatgatsby_chinese.wav,,,,,,,,,0,0,0,0,0,93,93,194,321.754341918,9.30106034502e-06,323.160322959,1.40599130379,,,,,x,1,1.38394679269,2018_Nov_09_1341,59.9823588235,chinese_cond2,001,1002,
images\banjo.jpg,knife,x,sounds\greatgatsby_chinese.wav,,,,,,,,,0,0,0,0,0,94,94,191,324.259324569,9.94250876829e-06,325.31088492,1.05157029413,,,,,x,1,1.03384982102,2018_Nov_09_1341,59.9823588235,chinese_cond2,001,1002,
images\cactus.jpg,cactus,z,sounds\greatgatsby_chinese.wav,,,,,,,,,0,0,0,0,0,95,95,70,326.424990514,9.62178455666e-06,327.478137181,1.05315725005,,,,,x,0,1.03384885879,2018_Nov_09_1341,59.9823588235,chinese_cond2,001,1002,
images\lighter02b.jpg,stapler,x,sounds\greatgatsby_chinese.wav,,,,,,,,,0,0,0,0,0,96,96,227,328.580893218,9.62178455666e-06,330.345580177,1.76469722268,,,,,z,0,1.75071321608,2018_Nov_09_1341,59.9823588235,chinese_cond2,001,1002,
images\watermelon01.jpg,orange,x,sounds\greatgatsby_chinese.wav,,,,,,,,,0,0,0,0,0,97,97,207,331.474747099,9.62184276432e-06,332.962954778,1.48821794282,,,,,x,1,1.46730399347,2018_Nov_09_1341,59.9823588235,chinese_cond2,001,1002,
images\ostrich.jpg,ostrich,z,sounds\greatgatsby_chinese.wav,,,,,,,,,0,0,0,0,0,98,98,76,334.065609787,9.30106034502e-06,335.363590908,1.29799010174,,,,,z,1,1.28384958045,2018_Nov_09_1341,59.9823588235,chinese_cond2,001,1002,
images\elbow.jpg,elbow,z,sounds\greatgatsby_chinese.wav,,,,,,,,,0,0,0,0,0,99,99,105,336.477543195,9.62184276432e-06,337.514169547,1.03663629491,,,,,x,0,1.01717587915,2018_Nov_09_1341,59.9823588235,chinese_cond2,001,1002,
images\ear.jpg,bullet,x,sounds\greatgatsby_chinese.wav,,,,,,,,,0,0,0,0,0,100,100,139,338.620521572,9.30106034502e-06,339.814793777,1.19428278925,,,,,x,1,1.18389605376,2018_Nov_09_1341,59.9823588235,chinese_cond2,001,1002,
images\electricguitar02.jpg,electric guitar,z,sounds\greatgatsby_chinese.wav,,,,,,,,,0,0,0,0,0,101,101,100,340.917706008,8.98033613339e-06,342.032074278,1.11437853257,,,,,z,1,1.10054173949,2018_Nov_09_1341,59.9823588235,chinese_cond2,001,1002,
images\croissant02b.jpg,croissant,z,sounds\greatgatsby_chinese.wav,,,,,,,,,0,0,0,0,0,102,102,39,343.145302043,9.62178455666e-06,344.432713294,1.28742119344,,,,,z,1,1.26726287632,2018_Nov_09_1341,59.9823588235,chinese_cond2,001,1002,
images\pineapple01a.jpg,pineapple,z,sounds\greatgatsby_chinese.wav,,,,,,,,,0,0,0,0,0,103,103,51,345.624569144,9.94256697595e-06,346.58328167,0.958722468466,,,,,z,1,0.933826696593,2018_Nov_09_1341,59.9823588235,chinese_cond2,001,1002,
images\screw03c.jpg,screw,z,sounds\greatgatsby_chinese.wav,,,,,,,,,0,0,0,0,0,104,104,84,347.680824935,9.30106034502e-06,348.533798986,0.852984314202,,,,,z,1,0.833796836901,2018_Nov_09_1341,59.9823588235,chinese_cond2,001,1002,
images\cupcake.jpg,scissors,x,sounds\greatgatsby_chinese.wav,,,,,,,,,0,0,0,0,0,105,105,219,349.654850559,9.62184276432e-06,350.817746709,1.16290641291,,,,,x,1,1.15054881154,2018_Nov_09_1341,59.9823588235,chinese_cond2,001,1002,
images\dresser02.jpg,dresser,z,sounds\greatgatsby_chinese.wav,,,,,,,,,0,0,0,0,0,106,106,87,351.940907702,9.94256697595e-06,353.618505163,1.67760740418,,,,,x,0,1.66734960082,2018_Nov_09_1341,59.9823588235,chinese_cond2,001,1002,
images\nailclipper03a.jpg,aquarium,x,sounds\greatgatsby_chinese.wav,,,,,,,,,0,0,0,0,0,107,107,123,354.721126816,9.62184276432e-06,357.236136025,2.5150197937,,,,,x,1,2.50091102428,2018_Nov_09_1341,59.9823588235,chinese_cond2,001,1002,
images\dice05a.jpg,band aid,x,sounds\greatgatsby_chinese.wav,,,,,,,,,0,0,0,0,0,108,108,126,358.350775309,9.62178455666e-06,361.22072703,2.86996198428,,,,,x,1,2.85119273461,2018_Nov_09_1341,59.9823588235,chinese_cond2,001,1002,
images\leek.jpg,donut,x,sounds\greatgatsby_chinese.wav,,,,,,,,,0,0,0,0,0,109,109,169,362.324617798,9.30106034502e-06,363.771224974,1.44661679794,,,,,x,1,1.43396348652,2018_Nov_09_1341,59.9823588235,chinese_cond2,001,1002,
images\baseball01a.jpg,baseball,z,sounds\greatgatsby_chinese.wav,,,,,,,,,0,0,0,0,0,110,110,74,364.90587472,9.62178455666e-06,366.105188108,1.19932300999,,,,,z,1,1.18387616868,2018_Nov_09_1341,59.9823588235,chinese_cond2,001,1002,
images\tulip02.jpg,sport shorts,x,sounds\greatgatsby_chinese.wav,,,,,,,,,0,0,0,0,0,111,111,225,367.203101812,9.94250876829e-06,368.622540547,1.41944931861,,,,,x,1,1.4006200931,2018_Nov_09_1341,59.9823588235,chinese_cond2,001,1002,
images\marker01a.jpg,marker,z,sounds\greatgatsby_chinese.wav,,,,,,,,,0,0,0,0,0,112,112,95,369.723885066,9.30106034502e-06,372.50692882,2.78305369703,,,,,z,1,2.76766683161,2018_Nov_09_1341,59.9823588235,chinese_cond2,001,1002,
images\radio03a.jpg,radio,z,sounds\greatgatsby_chinese.wav,,,,,,,,,0,0,0,0,0,113,113,37,373.623314781,1.02632911876e-05,374.357402806,0.734098287998,,,,,z,1,0.717086300196,2018_Nov_09_1341,59.9823588235,chinese_cond2,001,1002,
images\screwdriver02b.jpg,cola,x,sounds\greatgatsby_chinese.wav,,,,,,,,,0,0,0,0,0,114,114,158,375.454166705,9.30106034502e-06,377.158155808,1.70399904554,,,,,x,1,1.68402354262,2018_Nov_09_1341,59.9823588235,chinese_cond2,001,1002,
images\boxingglove02a.jpg,bracelet,x,sounds\greatgatsby_chinese.wav,,,,,,,,,0,0,0,0,0,115,115,135,378.272026951,9.30106034502e-06,380.375684551,2.10366754234,,,,,x,1,2.08413271804,2018_Nov_09_1341,59.9823588235,chinese_cond2,001,1002,
images\chameleon.jpg,50 dollar bill,x,sounds\greatgatsby_chinese.wav,,,,,,,,,0,0,0,0,0,116,116,120,381.489936397,9.94256697595e-06,382.426248405,0.936322592141,,,,,x,1,0.917160131503,2018_Nov_09_1341,59.9823588235,chinese_cond2,001,1002,
images\cauliflower01.jpg,glue stick,x,sounds\greatgatsby_chinese.wav,,,,,,,,,0,0,0,0,0,117,117,181,383.543832922,9.62178455666e-06,384.510138653,0.966315674013,,,,,x,1,0.950482356944,2018_Nov_09_1341,59.9823588235,chinese_cond2,001,1002,
images\highlighter03b.jpg,coin,x,sounds\greatgatsby_chinese.wav,,,,,,,,,0,0,0,0,0,118,118,156,385.61348162,9.30106034502e-06,386.460683231,0.847211874323,,,,,x,1,0.833792988211,2018_Nov_09_1341,59.9823588235,chinese_cond2,001,1002,
images\swan.jpg,swan,z,sounds\greatgatsby_chinese.wav,,,,,,,,,0,0,0,0,0,119,119,54,387.554888693,9.94256697595e-06,388.911317132,1.35643838084,,,,,z,1,1.33392400504,2018_Nov_09_1341,59.9823588235,chinese_cond2,001,1002,
images\eraser.jpg,eraser,z,sounds\greatgatsby_chinese.wav,,,,,,,,,0,0,0,0,0,120,120,110,390.020648388,9.62178455666e-06,391.311968656,1.29133021092,,,,,x,0,1.26725068869,2018_Nov_09_1341,59.9823588235,chinese_cond2,001,1002,
images\computermouse02a.jpg,world map,x,sounds\greatgatsby_chinese.wav,,,,,,,,,0,0,0,0,0,121,121,239,392.416052502,9.62178455666e-06,393.845975793,1.42993323429,,,,,x,1,1.41727799858,2018_Nov_09_1341,59.9823588235,chinese_cond2,001,1002,
images\corn01.jpg,corn,z,sounds\greatgatsby_chinese.wav,,,,,,,,,0,0,0,0,0,122,122,22,394.947314218,9.30111855268e-06,395.946564359,0.999259762699,,,,,z,1,0.983862313267,2018_Nov_09_1341,59.9823588235,chinese_cond2,001,1002,
images\hanger02a.jpg,hanger,z,sounds\greatgatsby_chinese.wav,,,,,,,,,0,0,0,0,0,123,123,88,397.041835596,9.62178455666e-06,398.030445948,0.988620294491,,,,,z,1,0.967178108229,2018_Nov_09_1341,59.9823588235,chinese_cond2,001,1002,
images\lemon02.jpg,lemon,z,sounds\greatgatsby_chinese.wav,,,,,,,,,0,0,0,0,0,124,124,14,399.144867458,1.02632329799e-05,401.514708689,2.36985149386,,,,,z,1,2.35086639517,2018_Nov_09_1341,59.9823588235,chinese_cond2,001,1002,
images\radish01.jpg,raisin,x,sounds\greatgatsby_chinese.wav,,,,,,,,,0,0,0,0,0,125,125,214,402.626158024,9.30106034502e-06,403.815321373,1.18917329155,,,,,x,1,1.16721986688,2018_Nov_09_1341,59.9823588235,chinese_cond2,001,1002,
images\treadmill.jpg,lily,x,sounds\greatgatsby_chinese.wav,,,,,,,,,0,0,0,0,0,126,126,199,404.922033895,9.62178455666e-06,405.815869495,0.893845863233,,,,,x,1,0.883827321988,2018_Nov_09_1341,59.9823588235,chinese_cond2,001,1002,
images\grandpiano.jpg,tulip,x,sounds\greatgatsby_chinese.wav,,,,,,,,,0,0,0,0,0,127,127,236,406.932573938,9.62184276432e-06,408.216505304,1.28394162905,,,,,x,1,1.26719808951,2018_Nov_09_1341,59.9823588235,chinese_cond2,001,1002,
images\parkfountain.jpg,park fountain,z,sounds\greatgatsby_chinese.wav,,,,,,,,,0,0,0,0,0,128,128,93,409.339723065,9.30106034502e-06,410.75052527,1.4108118267,,,,,z,1,1.400621376,2018_Nov_09_1341,59.9823588235,chinese_cond2,001,1002,
images\8ball.jpg,nail clipper,x,sounds\greatgatsby_chinese.wav,,,,,,,,,0,0,0,0,0,129,129,206,411.86888338,9.30106034502e-06,413.234529826,1.36565638811,,,,,x,1,1.35061109671,2018_Nov_09_1341,59.9823588235,chinese_cond2,001,1002,
images\licenseplate.jpg,license plate,z,sounds\greatgatsby_chinese.wav,,,,,,,,,0,0,0,0,0,130,130,40,414.353119501,9.62178455666e-06,415.885243972,1.53213473473,,,,,z,1,1.51731876296,2018_Nov_09_1341,59.9823588235,chinese_cond2,001,1002,
images\antelope.jpg,antelope,z,sounds\greatgatsby_chinese.wav,,,,,,,,,0,0,0,0,0,131,131,12,416.990888795,9.62178455666e-06,418.069160552,1.0782813793,,,,,z,1,1.06720091187,2018_Nov_09_1341,59.9823588235,chinese_cond2,001,1002,
images\shotglass.jpg,shot glass,z,sounds\greatgatsby_chinese.wav,,,,,,,,,0,0,0,0,0,132,132,86,419.179785299,9.62178455666e-06,420.553150675,1.37337563932,,,,,z,1,1.3506050029,2018_Nov_09_1341,59.9823588235,chinese_cond2,001,1002,
images\beachumbrella01.jpg,beach umbrella,z,sounds\greatgatsby_chinese.wav,,,,,,,,,0,0,0,0,0,133,133,92,421.662908818,9.62184276432e-06,422.753747291,1.09084841528,,,,,z,1,1.06719802535,2018_Nov_09_1341,59.9823588235,chinese_cond2,001,1002,
images\diploma01.jpg,glasses,x,sounds\greatgatsby_chinese.wav,,,,,,,,,0,0,0,0,0,134,134,179,423.886979104,9.30111855268e-06,425.271109031,1.38414019096,,,,,x,1,1.36729305668,2018_Nov_09_1341,59.9823588235,chinese_cond2,001,1002,
images\diaper01a.jpg,camera,x,sounds\greatgatsby_chinese.wav,,,,,,,,,0,0,0,0,0,135,135,143,426.392598397,9.62178455666e-06,427.455041969,1.06245383539,,,,,x,1,1.05054781731,2018_Nov_09_1341,59.9823588235,chinese_cond2,001,1002,
images\graduationcap.jpg,graduation cap,z,sounds\greatgatsby_chinese.wav,,,,,,,,,0,0,0,0,0,136,136,35,428.558330733,9.62178455666e-06,429.67226538,1.11394458928,,,,,z,1,1.1005334006,2018_Nov_09_1341,59.9823588235,chinese_cond2,001,1002,
images\showerhead01.jpg,skateboard,x,sounds\greatgatsby_chinese.wav,,,,,,,,,0,0,0,0,0,137,137,223,430.78157643,9.30106034502e-06,432.189632252,1.40806608513,,,,,x,1,1.38396571559,2018_Nov_09_1341,59.9823588235,chinese_cond2,001,1002,
images\cigar.jpg,crocodile,x,sounds\greatgatsby_chinese.wav,,,,,,,,,0,0,0,0,0,138,138,162,433.29081769,9.62178455666e-06,435.573879565,2.28307213885,,,,,x,1,2.26753356971,2018_Nov_09_1341,59.9823588235,chinese_cond2,001,1002,
images\squirrel.jpg,binder,x,sounds\greatgatsby_chinese.wav,,,,,,,,,0,0,0,0,0,139,139,132,436.73228522,9.30111855268e-06,438.257929407,1.52565445093,,,,,x,1,1.51733030909,2018_Nov_09_1341,59.9823588235,chinese_cond2,001,1002,
images\nametag01a.jpg,name tag,z,sounds\greatgatsby_chinese.wav,,,,,,,,,0,0,0,0,0,140,140,108,439.381143,9.62178455666e-06,440.858615955,1.47748289804,,,,,x,0,1.46730527637,2018_Nov_09_1341,59.9823588235,chinese_cond2,001,1002,
images\envelope02a.jpg,grand piano,x,sounds\greatgatsby_chinese.wav,,,,,,,,,0,0,0,0,0,141,141,182,441.98246619,9.30111855268e-06,444.492930702,2.51047445432,,,,,x,1,2.50091487303,2018_Nov_09_1341,59.9823588235,chinese_cond2,001,1002,
images\fork01.jpg,cooking pot,x,sounds\greatgatsby_chinese.wav,,,,,,,,,0,0,0,0,0,142,142,160,445.588330229,9.62184276432e-06,447.343706812,1.7553868462,,,,,x,1,1.73406044219,2018_Nov_09_1341,59.9823588235,chinese_cond2,001,1002,
images\pictureframe04.jpg,picture frame,z,sounds\greatgatsby_chinese.wav,,,,,,,,,0,0,0,0,0,143,143,41,448.468875234,9.30106034502e-06,450.327848158,1.85898318718,,,,,z,1,1.83407907648,2018_Nov_09_1341,59.9823588235,chinese_cond2,001,1002,
images\axe01.jpg,axe,z,sounds\greatgatsby_chinese.wav,,,,,,,,,0,0,0,0,0,144,144,104,451.432125722,8.98033613339e-06,452.345024999,0.912909860665,,,,,z,1,0.900474322785,2018_Nov_09_1341,59.9823588235,chinese_cond2,001,1002,
images\worldmap.jpg,scooter,x,sounds\greatgatsby_chinese.wav,,,,,,,,,0,0,0,0,0,145,145,220,453.476214744,1.02632911876e-05,454.295561559,0.81935771904,,,,,x,1,0.800461140927,2018_Nov_09_1341,59.9823588235,chinese_cond2,001,1002,
images\mitten01.jpg,mitten,z,sounds\greatgatsby_chinese.wav,,,,,,,,,0,0,0,0,0,146,146,102,455.417786992,8.98033613339e-06,457.062965395,1.64518770372,,,,,z,1,1.63400909386,2018_Nov_09_1341,59.9823588235,chinese_cond2,001,1002,
images\paperclip04.jpg,eye drops,x,sounds\greatgatsby_chinese.wav,,,,,,,,,0,0,0,0,0,147,147,174,458.17028409,9.62178455666e-06,460.213818255,2.04354346602,,,,,x,1,2.03412340087,2018_Nov_09_1341,59.9823588235,chinese_cond2,001,1002,
images\bicycle.jpg,hand bag,x,sounds\greatgatsby_chinese.wav,,,,,,,,,0,0,0,0,0,148,148,186,461.326125855,9.94256697595e-06,463.214621355,1.88850544224,,,,,x,1,1.86740675429,2018_Nov_09_1341,59.9823588235,chinese_cond2,001,1002,
images\fryingpan01.jpg,frying pan,z,sounds\greatgatsby_chinese.wav,,,,,,,,,0,0,0,0,0,149,149,45,464.317055703,9.62184276432e-06,465.731978284,1.41493284464,,,,,z,1,1.40063067706,2018_Nov_09_1341,59.9823588235,chinese_cond2,001,1002,
images\binder03b.jpg,dj mixer,x,sounds\greatgatsby_chinese.wav,,,,,,,,,0,0,0,0,0,150,150,167,466.845980604,3.43177816831e-05,468.932856177,2.08690251416,,,,,x,1,2.06748507579,2018_Nov_09_1341,59.9823588235,chinese_cond2,001,1002,
images\doorhandle.jpg,doll,x,sounds\greatgatsby_chinese.wav,,,,,,,,,0,0,0,0,0,151,151,168,470.037854415,9.62178455666e-06,472.417098392,2.37925488123,,,,,x,1,2.36755060026,2018_Nov_09_1341,59.9823588235,chinese_cond2,001,1002,
images\knife04.jpg,tooth brush,x,sounds\greatgatsby_chinese.wav,,,,,,,,,0,0,0,0,0,152,152,233,473.516440934,9.30106034502e-06,474.751053507,1.23462219513,,,,,x,1,1.21723656071,2018_Nov_09_1341,59.9823588235,chinese_cond2,001,1002,
images\rhinoceros01.jpg,envelope,x,sounds\greatgatsby_chinese.wav,,,,,,,,,0,0,0,0,0,153,153,173,475.863802427,9.62178455666e-06,477.701855949,1.83806346479,,,,,x,1,1.81739936158,2018_Nov_09_1341,59.9823588235,chinese_cond2,001,1002,
images\highheelshoe02a.jpg,high heel shoe,z,sounds\greatgatsby_chinese.wav,,,,,,,,,0,0,0,0,0,154,154,75,478.809973575,9.62178455666e-06,479.735745541,0.925781907747,,,,,z,1,0.917172960588,2018_Nov_09_1341,59.9823588235,chinese_cond2,001,1002,
images\key03b.jpg,cigar,x,sounds\greatgatsby_chinese.wav,,,,,,,,,0,0,0,0,0,155,155,153,480.839449004,8.98039434105e-06,482.136398348,1.29695928603,,,,,x,1,1.2839390632,2018_Nov_09_1341,59.9823588235,chinese_cond2,001,1002,
images\sock03.jpg,sock,z,sounds\greatgatsby_chinese.wav,,,,,,,,,0,0,0,0,0,156,156,90,483.244709372,9.62178455666e-06,485.07049253,1.82579374255,,,,,z,1,1.80071836378,2018_Nov_09_1341,59.9823588235,chinese_cond2,001,1002,
images\lip.jpg,boxing glove,x,sounds\greatgatsby_chinese.wav,,,,,,,,,0,0,0,0,0,157,157,136,486.175811495,8.98033613339e-06,487.221059623,1.04525839188,,,,,x,1,1.03383827483,2018_Nov_09_1341,59.9823588235,chinese_cond2,001,1002,
images\bandaid01.jpg,door handle,x,sounds\greatgatsby_chinese.wav,,,,,,,,,0,0,0,0,0,158,158,170,488.32990145,9.94250876829e-06,490.538626244,2.2087347362,,,,,x,1,2.18415359734,2018_Nov_09_1341,59.9823588235,chinese_cond2,001,1002,
images\candle08a.jpg,screw driver,x,sounds\greatgatsby_chinese.wav,,,,,,,,,0,0,0,0,0,159,159,221,491.652861091,9.94250876829e-06,493.389403637,1.73655248899,,,,,x,1,1.7173579557,2018_Nov_09_1341,59.9823588235,chinese_cond2,001,1002,
images\volleyball.jpg,volley ball,z,sounds\greatgatsby_chinese.wav,,,,,,,,,0,0,0,0,0,160,160,2,494.52287824,9.30106034502e-06,495.473288113,0.950419494533,,,,,z,1,0.933821564948,2018_Nov_09_1341,59.9823588235,chinese_cond2,001,1002,
images\mirror02.jpg,8 ball,x,sounds\greatgatsby_chinese.wav,,,,,,,,,0,0,0,0,0,161,161,121,496.578208093,9.62178455666e-06,498.740833229,2.1626353988,,,,,x,1,2.15081565623,2018_Nov_09_1341,59.9823588235,chinese_cond2,001,1002,
images\stapler03a.jpg,candy cane,x,sounds\greatgatsby_chinese.wav,,,,,,,,,0,0,0,0,0,162,162,145,499.854136044,9.30111855268e-06,501.024799875,1.17067377316,,,,,x,1,1.15057030029,2018_Nov_09_1341,59.9823588235,chinese_cond2,001,1002,
images\pipe.jpg,icecube,x,sounds\greatgatsby_chinese.wav,,,,,,,,,0,0,0,0,0,163,163,188,502.133337332,8.98033613339e-06,503.492124715,1.35879796743,,,,,x,1,1.33394453157,2018_Nov_09_1341,59.9823588235,chinese_cond2,001,1002,
images\arrow02.jpg,hammer,x,sounds\greatgatsby_chinese.wav,,,,,,,,,0,0,0,0,0,164,164,184,504.591844111,9.62184276432e-06,505.809405248,1.21757172013,,,,,x,1,1.20056390174,2018_Nov_09_1341,59.9823588235,chinese_cond2,001,1002,
images\cake.jpg,cake,z,sounds\greatgatsby_chinese.wav,,,,,,,,,0,0,0,0,0,165,165,23,506.922594525,9.94250876829e-06,508.160041682,1.23745741951,,,,,z,1,1.21724586171,2018_Nov_09_1341,59.9823588235,chinese_cond2,001,1002,
images\gorilla.jpg,gorilla,z,sounds\greatgatsby_chinese.wav,,,,,,,,,0,0,0,0,0,166,166,80,509.272603618,9.30111855268e-06,511.027474415,1.75488009793,,,,,z,1,1.73404248152,2018_Nov_09_1341,59.9823588235,chinese_cond2,001,1002,
images\bracelet02a.jpg,chess knight,x,sounds\greatgatsby_chinese.wav,,,,,,,,,0,0,0,0,0,167,167,152,512.138390702,9.62184276432e-06,513.344758154,1.2063777154,,,,,x,1,1.18388899777,2018_Nov_09_1341,59.9823588235,chinese_cond2,001,1002,
images\dolphin01.jpg,dolphin,z,sounds\greatgatsby_chinese.wav,,,,,,,,,0,0,0,0,0,168,168,99,514.446294468,9.62184276432e-06,515.495343208,1.04905868304,,,,,z,1,1.03384950024,2018_Nov_09_1341,59.9823588235,chinese_cond2,001,1002,
images\barrel01.jpg,barrel,z,sounds\greatgatsby_chinese.wav,,,,,,,,,0,0,0,0,0,169,169,9,516.626559574,9.62178455666e-06,517.97934167,1.35279235925,,,,,z,1,1.33393266471,2018_Nov_09_1341,59.9823588235,chinese_cond2,001,1002,
images\bench02.jpg,electric toothbrush,x,sounds\greatgatsby_chinese.wav,,,,,,,,,0,0,0,0,0,170,170,172,519.088850929,9.30106034502e-06,520.196601002,1.10776001558,,,,,x,1,1.08385817596,2018_Nov_09_1341,59.9823588235,chinese_cond2,001,1002,
images\safe.jpg,safe,z,sounds\greatgatsby_chinese.wav,,,,,,,,,0,0,0,0,0,171,171,78,521.308371064,9.30106034502e-06,522.430541012,1.12218085199,,,,,z,1,1.10053307988,2018_Nov_09_1341,59.9823588235,chinese_cond2,001,1002,
images\grasshopper.jpg,cauliflower,x,sounds\greatgatsby_chinese.wav,,,,,,,,,0,0,0,0,0,172,172,148,523.525205113,9.94256697595e-06,525.047904067,1.52270889655,,,,,x,1,1.50064514182,2018_Nov_09_1341,59.9823588235,chinese_cond2,001,1002,
images\cherry01.jpg,highlighter,x,sounds\greatgatsby_chinese.wav,,,,,,,,,0,0,0,0,0,173,173,187,526.157159631,9.62184276432e-06,527.214993077,1.05784370925,,,,,x,1,1.03368560888,2018_Nov_09_1341,59.9823588235,chinese_cond2,001,1002,
images\bullet (2).jpg,rubber glove,x,sounds\greatgatsby_chinese.wav,,,,,,,,,0,0,0,0,0,174,174,217,528.320890312,9.94250876829e-06,529.565776404,1.24489635555,,,,,x,1,1.23388195783,2018_Nov_09_1341,59.9823588235,chinese_cond2,001,1002,
images\puzzle.jpg,puzzle,z,sounds\greatgatsby_chinese.wav,,,,,,,,,0,0,0,0,0,175,175,57,530.685885361,9.62184276432e-06,533.683449762,2.99757530587,,,,,None,0,,2018_Nov_09_1341,59.9823588235,chinese_cond2,001,1002,
images\tank.jpg,wallet,x,sounds\greatgatsby_chinese.wav,,,,,,,,,0,0,0,0,0,176,176,237,534.78902627,9.62184276432e-06,535.867492388,1.07847670198,,,,,x,1,1.06720796792,2018_Nov_09_1341,59.9823588235,chinese_cond2,001,1002,
images\pouch01b.jpg,pouch,z,sounds\greatgatsby_chinese.wav,,,,,,,,,0,0,0,0,0,177,177,25,536.983155432,8.98033613339e-06,538.268144554,1.28499906504,,,,,z,1,1.26726191409,2018_Nov_09_1341,59.9823588235,chinese_cond2,001,1002,
images\dragonfly02.jpg,dragon fly,z,sounds\greatgatsby_chinese.wav,,,,,,,,,0,0,0,0,0,178,178,29,539.368879371,9.62178455666e-06,540.702114776,1.33324598876,,,,,z,1,1.31725808146,2018_Nov_09_1341,59.9823588235,chinese_cond2,001,1002,
images\desktopcomputer.jpg,desktop computer,z,sounds\greatgatsby_chinese.wav,,,,,,,,,0,0,0,0,0,179,179,16,541.838386116,9.30111855268e-06,542.902950654,1.06457448064,,,,,z,1,1.05075372389,2018_Nov_09_1341,59.9823588235,chinese_cond2,001,1002,
images\aquarium.jpg,computer mouse,x,sounds\greatgatsby_chinese.wav,,,,,,,,,0,0,0,0,0,180,180,159,544.040162365,9.62178455666e-06,545.136640176,1.0964877535,,,,,x,1,1.08384983701,2018_Nov_09_1341,59.9823588235,chinese_cond2,001,1002,
images\bottleofredwine02.jpg,pipe,x,sounds\greatgatsby_chinese.wav,,,,,,,,,0,0,0,0,0,181,181,213,546.236971198,9.62184276432e-06,547.854049768,1.61708851322,,,,,x,1,1.60065768223,2018_Nov_09_1341,59.9823588235,chinese_cond2,001,1002,
images\glasses01b.jpg,calculator,x,sounds\greatgatsby_chinese.wav,,,,,,,,,0,0,0,0,0,182,182,142,548.948319376,9.30106034502e-06,549.887914343,0.939604909567,,,,,x,1,0.917148585315,2018_Nov_09_1341,59.9823588235,chinese_cond2,001,1002,
images\paintbrush03a.jpg,paint brush,z,sounds\greatgatsby_chinese.wav,,,,,,,,,0,0,0,0,0,183,183,0,550.989748611,9.94250876829e-06,551.938465367,0.948727019539,,,,,x,0,0.933766079252,2018_Nov_09_1341,59.9823588235,chinese_cond2,001,1002,
images\feather03b.jpg,feather,z,sounds\greatgatsby_chinese.wav,,,,,,,,,0,0,0,0,0,184,184,114,553.039076384,9.62178455666e-06,555.089382053,2.05031625257,,,,,z,1,2.03418818768,2018_Nov_09_1341,59.9823588235,chinese_cond2,001,1002,
images\sunglasses03a.jpg,sun glasses,z,sounds\greatgatsby_chinese.wav,,,,,,,,,0,0,0,0,0,185,185,17,556.199942013,9.30106034502e-06,557.356595858,1.15666442906,,,,,x,0,1.13387968065,2018_Nov_09_1341,59.9823588235,chinese_cond2,001,1002,
images\tie01.jpg,bench,x,sounds\greatgatsby_chinese.wav,,,,,,,,,0,0,0,0,0,186,186,130,558.457134069,9.62178455666e-06,559.990635421,1.53351161466,,,,,x,1,1.51731459348,2018_Nov_09_1341,59.9823588235,chinese_cond2,001,1002,
images\scooter.jpg,pen,x,sounds\greatgatsby_chinese.wav,,,,,,,,,0,0,0,0,0,187,187,212,561.086265872,9.62178455666e-06,562.724701315,1.63844570686,,,,,x,1,1.61734284949,2018_Nov_09_1341,59.9823588235,chinese_cond2,001,1002,
,,,sounds\greatgatsby_chinese.wav,,,,,,,,,0,0,0,0,,,,,,,,,,,,,,,,2018_Nov_09_1341,59.9823588235,chinese_cond2,001,1002,
images\dresser02.jpg,dresser,z,sounds\animalfarm_english.wav,,,,,,,,,0,1,1,1,0,0,0,87,583.874520473,8.98039434105e-06,585.764057694,1.88954716275,,,,573.727886132,z,1,1.8672463909,2018_Nov_09_1341,59.9823588235,chinese_cond2,001,1002,
images\egg01b (1).jpg,egg,z,sounds\animalfarm_english.wav,,,,,,,,,0,1,1,1,0,1,1,19,586.877601054,9.94250876829e-06,589.26517719,2.38758639974,,,,,z,1,2.36755797698,2018_Nov_09_1341,59.9823588235,chinese_cond2,001,1002,
images\butterfly.jpg,butterfly,z,sounds\animalfarm_english.wav,,,,,,,,,0,1,1,1,0,2,2,91,590.372361181,9.30106034502e-06,591.482431712,1.11007983208,,,,,z,1,1.10054590896,2018_Nov_09_1341,59.9823588235,chinese_cond2,001,1002,
images\cockroach02.jpg,belt,x,sounds\animalfarm_english.wav,,,,,,,,,0,1,1,1,0,3,3,129,592.580400261,9.62178455666e-06,593.549649301,0.969258983328,,,,,x,1,0.950500959181,2018_Nov_09_1341,59.9823588235,chinese_cond2,001,1002,
images\grasshopper.jpg,cauliflower,x,sounds\animalfarm_english.wav,,,,,,,,,0,1,1,1,0,4,4,148,594.642385193,9.30111855268e-06,596.000529841,1.35815523111,,,,,x,1,1.33416070143,2018_Nov_09_1341,59.9823588235,chinese_cond2,001,1002,
images\lantern03.jpg,lantern,z,sounds\animalfarm_english.wav,,,,,,,,,0,1,1,1,0,5,5,5,597.106143553,9.62178455666e-06,598.134221896,1.02808892727,,,,,z,1,1.01719351916,2018_Nov_09_1341,59.9823588235,chinese_cond2,001,1002,
images\swan.jpg,swan,z,sounds\animalfarm_english.wav,,,,,,,,,0,1,1,1,0,6,6,54,599.225324006,9.30106034502e-06,600.151431131,0.926117387949,,,,,z,1,0.917171036243,2018_Nov_09_1341,59.9823588235,chinese_cond2,001,1002,
images\cake.jpg,cake,z,sounds\animalfarm_english.wav,,,,,,,,,0,1,1,1,0,7,7,23,601.266308394,9.62184276432e-06,602.285331017,1.01903288701,,,,,z,1,1.00047371339,2018_Nov_09_1341,59.9823588235,chinese_cond2,001,1002,
images\lion.jpg,lion,z,sounds\animalfarm_english.wav,,,,,,,,,0,1,1,1,0,8,8,44,603.397118078,1.02632911876e-05,604.502602216,1.10549504333,,,,,z,1,1.0838770988,2018_Nov_09_1341,59.9823588235,chinese_cond2,001,1002,
images\lollipop03b.jpg,lollipop,z,sounds\animalfarm_english.wav,,,,,,,,,0,1,1,1,0,9,9,42,605.594755989,9.94250876829e-06,606.453143587,0.858397540171,,,,,z,1,0.833821212174,2018_Nov_09_1341,59.9823588235,chinese_cond2,001,1002,
images\radish01.jpg,raisin,x,sounds\animalfarm_english.wav,,,,,,,,,0,1,1,1,0,10,10,214,607.563454342,9.30106034502e-06,608.537016516,0.973572757968,,,,,z,0,0.950503204251,2018_Nov_09_1341,59.9823588235,chinese_cond2,001,1002,
images\antelope.jpg,antelope,z,sounds\animalfarm_english.wav,,,,,,,,,0,1,1,1,0,11,11,12,609.640372954,9.30106034502e-06,610.437526119,0.797163428564,,,,,z,1,0.783792009985,2018_Nov_09_1341,59.9823588235,chinese_cond2,001,1002,
images\raisin.jpg,ruler,x,sounds\animalfarm_english.wav,,,,,,,,,0,1,1,1,0,12,12,218,611.541819399,9.30111855268e-06,612.954867012,1.41305755539,,,,,x,1,1.40061496146,2018_Nov_09_1341,59.9823588235,chinese_cond2,001,1002,
images\lipstick04.jpg,lipstick,z,sounds\animalfarm_english.wav,,,,,,,,,0,1,1,1,0,13,13,56,614.054265682,9.30106034502e-06,615.172126345,1.11787060538,,,,,z,1,1.10053564573,2018_Nov_09_1341,59.9823588235,chinese_cond2,001,1002,
images\bench02.jpg,electric toothbrush,x,sounds\animalfarm_english.wav,,,,,,,,,0,1,1,1,0,14,14,172,616.280779584,9.62178455666e-06,617.272706571,0.991936929757,,,,,x,1,0.983860709646,2018_Nov_09_1341,59.9823588235,chinese_cond2,001,1002,
images\sock03.jpg,sock,z,sounds\animalfarm_english.wav,,,,,,,,,0,1,1,1,0,15,15,90,618.378115981,9.30106034502e-06,619.323262407,0.945156368718,,,,,z,1,0.933831828181,2018_Nov_09_1341,59.9823588235,chinese_cond2,001,1002,
images\eraser.jpg,eraser,z,sounds\animalfarm_english.wav,,,,,,,,,0,1,1,1,0,16,16,110,620.430253961,1.02632329799e-05,622.724168267,2.29392456956,,,,,z,1,2.28418409842,2018_Nov_09_1341,59.9823588235,chinese_cond2,001,1002,
images\sportshorts02.jpg,tape,x,sounds\animalfarm_english.wav,,,,,,,,,0,1,1,1,0,17,17,230,623.832861598,9.30106034502e-06,625.108118909,1.27526725357,,,,,x,1,1.26724395342,2018_Nov_09_1341,59.9823588235,chinese_cond2,001,1002,
images\redfox.jpg,red fox,z,sounds\animalfarm_english.wav,,,,,,,,,0,1,1,1,0,18,18,1,626.220623114,9.62178455666e-06,627.475432813,1.25481964095,,,,,z,1,1.23390825739,2018_Nov_09_1341,59.9823588235,chinese_cond2,001,1002,
images\thumbtack02a.jpg,thumb tack,z,sounds\animalfarm_english.wav,,,,,,,,,0,1,1,1,0,19,19,60,628.586846227,9.62184276432e-06,630.242844667,1.65600870323,,,,,x,0,1.63400941459,2018_Nov_09_1341,59.9823588235,chinese_cond2,001,1002,
images\cola.jpg,comb,x,sounds\animalfarm_english.wav,,,,,,,,,0,1,1,1,0,20,20,157,631.363639017,9.30106034502e-06,632.910227944,1.54659822787,,,,,z,0,1.53399142186,2018_Nov_09_1341,59.9823588235,chinese_cond2,001,1002,
images\squirrel.jpg,binder,x,sounds\animalfarm_english.wav,,,,,,,,,0,1,1,1,0,21,21,132,634.013047485,9.62178455666e-06,634.060533003,0.0474961023428,,,,,z,0,0.033583297045,2018_Nov_09_1341,59.9823588235,chinese_cond2,001,1002,
images\paintbrush03a.jpg,paint brush,z,sounds\animalfarm_english.wav,,,,,,,,,0,1,1,1,0,22,22,0,635.160373313,9.94250876829e-06,636.061082729,0.900719999452,,,,,z,1,0.883822190401,2018_Nov_09_1341,59.9823588235,chinese_cond2,001,1002,
images\peach01.jpg,peach,z,sounds\animalfarm_english.wav,,,,,,,,,0,1,1,1,0,23,23,106,637.189462908,1.02632911876e-05,637.978093722,0.788641077583,,,,,z,1,0.766951610975,2018_Nov_09_1341,59.9823588235,chinese_cond2,001,1002,
images\broadsword.jpg,teapot,x,sounds\animalfarm_english.wav,,,,,,,,,0,1,1,1,0,24,24,231,639.070736603,9.94256697595e-06,641.145783454,2.07505775488,,,,,x,1,2.05080504017,2018_Nov_09_1341,59.9823588235,chinese_cond2,001,1002,
images\plate01b.jpg,plate,z,sounds\animalfarm_english.wav,,,,,,,,,0,1,1,1,0,25,25,3,642.244114424,1.02632329799e-05,643.996546735,1.75244321616,,,,,z,1,1.73403991573,2018_Nov_09_1341,59.9823588235,chinese_cond2,001,1002,
images\spoon02b.jpg,spoon,z,sounds\animalfarm_english.wav,,,,,,,,,0,1,1,1,0,26,26,38,645.0877611,9.30106034502e-06,647.114051712,2.0263008757,,,,,z,1,2.01746132597,2018_Nov_09_1341,59.9823588235,chinese_cond2,001,1002,
images\chameleon.jpg,50 dollar bill,x,sounds\animalfarm_english.wav,,,,,,,,,0,1,1,1,0,27,27,120,648.22330888,9.30106034502e-06,650.198235105,1.97493584664,,,,,x,1,1.95079153759,2018_Nov_09_1341,59.9823588235,chinese_cond2,001,1002,
images\lemon02.jpg,lemon,z,sounds\animalfarm_english.wav,,,,,,,,,0,1,1,1,0,28,28,14,651.310356363,1.02632911876e-05,652.46554609,1.15520031151,,,,,z,1,1.13394029799,2018_Nov_09_1341,59.9823588235,chinese_cond2,001,1002,
images\ashtray02b.jpg,ashtray,z,sounds\animalfarm_english.wav,,,,,,,,,0,1,1,1,0,29,29,43,653.578689825,9.62178455666e-06,655.049521171,1.47084128868,,,,,z,1,1.45063293818,2018_Nov_09_1341,59.9823588235,chinese_cond2,001,1002,
images\mushroom01.jpg,shower head,x,sounds\animalfarm_english.wav,,,,,,,,,0,1,1,1,0,30,30,222,656.165468378,9.30106034502e-06,658.26706146,2.10160270362,,,,,x,1,2.08414490568,2018_Nov_09_1341,59.9823588235,chinese_cond2,001,1002,
images\pipe.jpg,icecube,x,sounds\animalfarm_english.wav,,,,,,,,,0,1,1,1,0,31,31,188,659.375885005,9.94256697595e-06,662.084752362,2.70887826144,,,,,x,1,2.68430963089,2018_Nov_09_1341,59.9823588235,chinese_cond2,001,1002,
images\volleyball.jpg,volley ball,z,sounds\animalfarm_english.wav,,,,,,,,,0,1,1,1,0,32,32,2,663.216496965,9.30106034502e-06,664.25202579,1.03553876799,,,,,z,1,1.017219498,2018_Nov_09_1341,59.9823588235,chinese_cond2,001,1002,
images\giraffe.jpg,lettuce,x,sounds\animalfarm_english.wav,,,,,,,,,0,1,1,1,0,33,33,195,665.35411664,9.30106034502e-06,666.719321124,1.36521474738,,,,,x,1,1.3504484882,2018_Nov_09_1341,59.9823588235,chinese_cond2,001,1002,
images\barrel01.jpg,barrel,z,sounds\animalfarm_english.wav,,,,,,,,,0,1,1,1,0,34,34,9,667.848805886,9.62184276432e-06,668.803204958,0.954409335216,,,,,z,1,0.933826055145,2018_Nov_09_1341,59.9823588235,chinese_cond2,001,1002,
images\belt02a.jpg,snowman,x,sounds\animalfarm_english.wav,,,,,,,,,0,1,1,1,0,35,35,224,669.90652804,9.94256697595e-06,671.753996496,1.84747871896,,,,,x,1,1.83406336088,2018_Nov_09_1341,59.9823588235,chinese_cond2,001,1002,
images\bullet (2).jpg,rubber glove,x,sounds\animalfarm_english.wav,,,,,,,,,0,1,1,1,0,36,36,217,672.85881673,9.94250876829e-06,673.821221141,0.962414033187,,,,,x,1,0.950469527917,2018_Nov_09_1341,59.9823588235,chinese_cond2,001,1002,
images\mitten01.jpg,mitten,z,sounds\animalfarm_english.wav,,,,,,,,,0,1,1,1,0,37,37,102,674.941942687,9.94250876829e-06,676.005144136,1.06321139191,,,,,z,1,1.05052889441,2018_Nov_09_1341,59.9823588235,chinese_cond2,001,1002,
images\notebook02b.jpg,notebook,z,sounds\animalfarm_english.wav,,,,,,,,,0,1,1,1,0,38,38,7,677.111768779,9.30106034502e-06,677.955672357,0.843913841236,,,,,z,1,0.833806458744,2018_Nov_09_1341,59.9823588235,chinese_cond2,001,1002,
images\fork01.jpg,cooking pot,x,sounds\animalfarm_english.wav,,,,,,,,,0,1,1,1,0,39,39,160,679.050006751,1.02632329799e-05,680.172930727,1.12293391838,,,,,x,1,1.10054013587,2018_Nov_09_1341,59.9823588235,chinese_cond2,001,1002,
images\cocktailshrimp01.jpg,cocktail shrimp,z,sounds\animalfarm_english.wav,,,,,,,,,0,1,1,1,0,40,40,30,681.287417345,9.30111855268e-06,682.556921139,1.2695137366,,,,,z,1,1.25059214176,2018_Nov_09_1341,59.9823588235,chinese_cond2,001,1002,
images\cupcake.jpg,scissors,x,sounds\animalfarm_english.wav,,,,,,,,,0,1,1,1,0,41,41,219,683.676041937,9.30106034502e-06,685.507695036,1.83166272118,,,,,x,1,1.81739583355,2018_Nov_09_1341,59.9823588235,chinese_cond2,001,1002,
images\showerhead01.jpg,skateboard,x,sounds\animalfarm_english.wav,,,,,,,,,0,1,1,1,0,42,42,223,686.615788287,9.62178455666e-06,688.541847303,1.92606895819,,,,,x,1,1.91743146634,2018_Nov_09_1341,59.9823588235,chinese_cond2,001,1002,
images\lily.jpg,kiwi,x,sounds\animalfarm_english.wav,,,,,,,,,0,1,1,1,0,43,43,190,689.641010238,9.94250876829e-06,690.709085772,1.06808547623,,,,,x,1,1.05051863118,2018_Nov_09_1341,59.9823588235,chinese_cond2,001,1002,
images\lip.jpg,boxing glove,x,sounds\animalfarm_english.wav,,,,,,,,,0,1,1,1,0,44,44,136,691.812960183,8.98039434105e-06,692.893017747,1.08006782731,,,,,x,1,1.0671986668,2018_Nov_09_1341,59.9823588235,chinese_cond2,001,1002,
images\puzzle.jpg,puzzle,z,sounds\animalfarm_english.wav,,,,,,,,,0,1,1,1,0,45,45,57,694.013545252,8.98039434105e-06,696.327312544,2.31377723411,,,,,z,1,2.30089011294,2018_Nov_09_1341,59.9823588235,chinese_cond2,001,1002,
images\parrot01.jpg,chameleon,x,sounds\animalfarm_english.wav,,,,,,,,,0,1,1,1,0,46,46,150,697.440282765,9.30106034502e-06,698.861310701,1.42103787814,,,,,z,0,1.40063773305,2018_Nov_09_1341,59.9823588235,chinese_cond2,001,1002,
images\cookingpot.jpg,grasshopper,x,sounds\animalfarm_english.wav,,,,,,,,,0,1,1,1,0,47,47,183,699.976051976,9.30111855268e-06,701.845436331,1.8693936565,,,,,x,1,1.85075013177,2018_Nov_09_1341,59.9823588235,chinese_cond2,001,1002,
images\table02.jpg,table,z,sounds\animalfarm_english.wav,,,,,,,,,0,1,1,1,0,48,48,49,702.960613153,9.94256697595e-06,704.229396274,1.26879306359,,,,,z,1,1.25058059557,2018_Nov_09_1341,59.9823588235,chinese_cond2,001,1002,
images\flashlight05.jpg,flash light,z,sounds\animalfarm_english.wav,,,,,,,,,0,1,1,1,0,49,49,8,705.331705217,8.98033613339e-06,706.463335321,1.13164004585,,,,,z,1,1.11720766319,2018_Nov_09_1341,59.9823588235,chinese_cond2,001,1002,
images\screw03c.jpg,screw,z,sounds\animalfarm_english.wav,,,,,,,,,0,1,1,1,0,50,50,84,707.557391966,9.94256697595e-06,708.630592713,1.07321068959,,,,,z,1,1.05054332718,2018_Nov_09_1341,59.9823588235,chinese_cond2,001,1002,
images\bandaid01.jpg,door handle,x,sounds\animalfarm_english.wav,,,,,,,,,0,1,1,1,0,51,51,170,709.737594851,9.62178455666e-06,711.598046325,1.86046141671,,,,,x,1,1.85074756591,2018_Nov_09_1341,59.9823588235,chinese_cond2,001,1002,
images\razor04a.jpg,razor,z,sounds\animalfarm_english.wav,,,,,,,,,0,1,1,1,0,52,52,36,712.697534477,9.62178455666e-06,714.732218188,2.03469846392,,,,,z,1,2.01745170419,2018_Nov_09_1341,59.9823588235,chinese_cond2,001,1002,
images\crocodile.jpg,triangle ruler,x,sounds\animalfarm_english.wav,,,,,,,,,0,1,1,1,0,53,53,235,715.829955813,8.98033613339e-06,717.216228196,1.38628200412,,,,,x,1,1.36728664214,2018_Nov_09_1341,59.9823588235,chinese_cond2,001,1002,
images\arrow02.jpg,hammer,x,sounds\animalfarm_english.wav,,,,,,,,,0,1,1,1,0,54,54,184,718.312674255,9.30106034502e-06,719.500172391,1.18750839902,,,,,x,1,1.16722563992,2018_Nov_09_1341,59.9823588235,chinese_cond2,001,1002,
images\printer03a.jpg,printer,z,sounds\animalfarm_english.wav,,,,,,,,,0,1,1,1,0,55,55,72,720.609158865,9.30111855268e-06,721.51737906,0.908230457571,,,,,x,0,0.883813851455,2018_Nov_09_1341,59.9823588235,chinese_cond2,001,1002,
images\gps.jpg,gps,z,sounds\animalfarm_english.wav,,,,,,,,,0,1,1,1,0,56,56,21,722.635531904,9.30106034502e-06,723.717979845,1.08245788293,,,,,z,1,1.06720636424,2018_Nov_09_1341,59.9823588235,chinese_cond2,001,1002,
images\weight01.jpg,weight,z,sounds\animalfarm_english.wav,,,,,,,,,0,1,1,1,0,57,57,67,724.82304319,9.62184276432e-06,726.335353484,1.51232055743,,,,,z,1,1.50064963201,2018_Nov_09_1341,59.9823588235,chinese_cond2,001,1002,
images\button07.jpg,radish,x,sounds\animalfarm_english.wav,,,,,,,,,0,1,1,1,0,58,58,215,727.446213965,9.62184276432e-06,729.136097827,1.68989444565,,,,,x,1,1.66736082622,2018_Nov_09_1341,59.9823588235,chinese_cond2,001,1002,
images\tissuebox03.jpg,tissue box,z,sounds\animalfarm_english.wav,,,,,,,,,0,1,1,1,0,59,59,58,730.262690275,1.02632329799e-05,731.669949732,1.40726972063,,,,,z,1,1.38378867443,2018_Nov_09_1341,59.9823588235,chinese_cond2,001,1002,
images\straw.jpg,straw,z,sounds\animalfarm_english.wav,,,,,,,,,0,1,1,1,0,60,60,109,732.760100567,9.30106034502e-06,734.053917372,1.29382738937,,,,,x,0,1.28376073914,2018_Nov_09_1341,59.9823588235,chinese_cond2,001,1002,
images\bat.jpg,hand,x,sounds\animalfarm_english.wav,,,,,,,,,0,1,1,1,0,61,61,185,735.152023192,9.62184276432e-06,736.438052111,1.2860388612,,,,,x,1,1.26725357521,2018_Nov_09_1341,59.9823588235,chinese_cond2,001,1002,
images\triangleruler02.jpg,bottle of red wine,x,sounds\animalfarm_english.wav,,,,,,,,,0,1,1,1,0,62,62,134,737.54789685,9.62178455666e-06,739.438849117,1.89096285054,,,,,x,1,1.86740739574,2018_Nov_09_1341,59.9823588235,chinese_cond2,001,1002,
images\lettuce.jpg,mushroom,x,sounds\animalfarm_english.wav,,,,,,,,,0,1,1,1,0,63,63,205,740.560752861,9.94250876829e-06,742.906458122,2.3457155237,,,,,z,0,2.33420111297,2018_Nov_09_1341,59.9823588235,chinese_cond2,001,1002,
images\bull.jpg,button,x,sounds\animalfarm_english.wav,,,,,,,,,0,1,1,1,0,64,64,141,744.010652939,9.62184276432e-06,745.007030651,0.996387975465,,,,,x,1,0.983848842792,2018_Nov_09_1341,59.9823588235,chinese_cond2,001,1002,
images\saltshaker03c.jpg,salt shaker,z,sounds\animalfarm_english.wav,,,,,,,,,0,1,1,1,0,65,65,63,746.117568481,9.94250876829e-06,747.074260107,0.956701889925,,,,,z,1,0.933844015817,2018_Nov_09_1341,59.9823588235,chinese_cond2,001,1002,
images\bicycle.jpg,hand bag,x,sounds\animalfarm_english.wav,,,,,,,,,0,1,1,1,0,66,66,186,748.182512759,9.62184276432e-06,749.225009694,1.04250751866,,,,,x,1,1.03404578503,2018_Nov_09_1341,59.9823588235,chinese_cond2,001,1002,
images\binder03b.jpg,dj mixer,x,sounds\animalfarm_english.wav,,,,,,,,,0,1,1,1,0,67,67,167,750.336938836,1.02632911876e-05,751.392067915,1.05513902061,,,,,x,1,1.03384757589,2018_Nov_09_1341,59.9823588235,chinese_cond2,001,1002,
images\graduationcap.jpg,graduation cap,z,sounds\animalfarm_english.wav,,,,,,,,,0,1,1,1,0,68,68,35,752.492861745,9.30106034502e-06,753.74270499,1.24985286657,,,,,z,1,1.23391114391,2018_Nov_09_1341,59.9823588235,chinese_cond2,001,1002,
images\licenseplate.jpg,license plate,z,sounds\animalfarm_english.wav,,,,,,,,,0,1,1,1,0,69,69,40,754.858535773,9.62178455666e-06,755.993315093,1.13478990312,,,,,z,1,1.11720509734,2018_Nov_09_1341,59.9823588235,chinese_cond2,001,1002,
images\puma.jpg,puma,z,sounds\animalfarm_english.wav,,,,,,,,,0,1,1,1,0,70,70,4,757.090154363,9.62184276432e-06,757.977179972,0.887035230873,,,,,x,0,0.867153700907,2018_Nov_09_1341,59.9823588235,chinese_cond2,001,1002,
images\radio03a.jpg,radio,z,sounds\animalfarm_english.wav,,,,,,,,,0,1,1,1,0,71,71,37,759.089516116,9.62178455666e-06,759.961029135,0.871523282025,,,,,z,1,0.850451535138,2018_Nov_09_1341,59.9823588235,chinese_cond2,001,1002,
images\ladybug03.jpg,giraffe,x,sounds\animalfarm_english.wav,,,,,,,,,0,1,1,1,0,72,72,178,761.065443971,1.02632911876e-05,762.128287168,1.06285346096,,,,,z,0,1.0505221592,2018_Nov_09_1341,59.9823588235,chinese_cond2,001,1002,
images\candle08a.jpg,screw driver,x,sounds\animalfarm_english.wav,,,,,,,,,0,1,1,1,0,73,73,221,763.240228178,1.02632329799e-05,764.612295893,1.37207797891,,,,,x,1,1.3506050029,2018_Nov_09_1341,59.9823588235,chinese_cond2,001,1002,
images\candy.jpg,candy,z,sounds\animalfarm_english.wav,,,,,,,,,0,1,1,1,0,74,74,31,765.71420457,9.30106034502e-06,766.446122558,0.731928250811,,,,,z,1,0.717105223099,2018_Nov_09_1341,59.9823588235,chinese_cond2,001,1002,
images\cheetah.jpg,cheetah,z,sounds\animalfarm_english.wav,,,,,,,,,0,1,1,1,0,75,75,82,767.54671818,1.02632329799e-05,768.480017601,0.933310326538,,,,,z,1,0.917168791115,2018_Nov_09_1341,59.9823588235,chinese_cond2,001,1002,
images\safe.jpg,safe,z,sounds\animalfarm_english.wav,,,,,,,,,0,1,1,1,0,76,76,78,769.589373553,9.94250876829e-06,770.480536858,0.891173247248,,,,,z,1,0.867132853658,2018_Nov_09_1341,59.9823588235,chinese_cond2,001,1002,
images\pictureframe04.jpg,picture frame,z,sounds\animalfarm_english.wav,,,,,,,,,0,1,1,1,0,77,77,41,771.601189768,9.94250876829e-06,772.947868113,1.34668860864,,,,,z,1,1.3339227222,2018_Nov_09_1341,59.9823588235,chinese_cond2,001,1002,
images\calculator02b.jpg,dice,x,sounds\animalfarm_english.wav,,,,,,,,,0,1,1,1,0,78,78,165,774.049354072,9.30111855268e-06,775.381851164,1.33250703436,,,,,x,1,1.31726160942,2018_Nov_09_1341,59.9823588235,chinese_cond2,001,1002,
images\drink.jpg,drink,z,sounds\animalfarm_english.wav,,,,,,,,,0,1,1,1,0,79,79,117,776.482411185,9.30106034502e-06,777.365720854,0.883319290821,,,,,z,1,0.867147286364,2018_Nov_09_1341,59.9823588235,chinese_cond2,001,1002,
images\parkbench03.jpg,park bench,z,sounds\animalfarm_english.wav,,,,,,,,,0,1,1,1,0,80,80,71,778.472031506,1.02632911876e-05,780.083115373,1.61109445116,,,,,z,1,1.60065768223,2018_Nov_09_1341,59.9823588235,chinese_cond2,001,1002,
images\sunglasses03a.jpg,sun glasses,z,sounds\animalfarm_english.wav,,,,,,,,,0,1,1,1,0,81,81,17,781.189868627,9.62178455666e-06,782.18367828,0.993819274998,,,,,z,1,0.98384242825,2018_Nov_09_1341,59.9823588235,chinese_cond2,001,1002,
images\electricguitar02.jpg,electric guitar,z,sounds\animalfarm_english.wav,,,,,,,,,0,1,1,1,0,82,82,100,783.2862592,9.62178455666e-06,784.217573324,0.931324065779,,,,,z,1,0.917160131445,2018_Nov_09_1341,59.9823588235,chinese_cond2,001,1002,
images\blueberry02.jpg,blueberry,z,sounds\animalfarm_english.wav,,,,,,,,,0,1,1,1,0,83,83,46,785.329056335,9.62184276432e-06,786.118073305,0.789026911894,,,,,z,1,0.767115502385,2018_Nov_09_1341,59.9823588235,chinese_cond2,001,1002,
images\remotecontrol01c.jpg,remote control,z,sounds\animalfarm_english.wav,,,,,,,,,0,1,1,1,0,84,84,85,787.227317964,8.98039434105e-06,788.085283486,0.857974822342,,,,,z,1,0.833803572226,2018_Nov_09_1341,59.9823588235,chinese_cond2,001,1002,
images\elbow.jpg,elbow,z,sounds\animalfarm_english.wav,,,,,,,,,0,1,1,1,0,85,85,105,789.196313952,9.30111855268e-06,790.152491453,0.956187444273,,,,,z,1,0.93382797949,2018_Nov_09_1341,59.9823588235,chinese_cond2,001,1002,
images\coffeepot03b.jpg,coffee pot,z,sounds\animalfarm_english.wav,,,,,,,,,0,1,1,1,0,86,86,107,791.273280351,9.62178455666e-06,791.986326136,0.713055727247,,,,,z,1,0.700440261629,2018_Nov_09_1341,59.9823588235,chinese_cond2,001,1002,
images\floorlamp.jpg,floor lamp,z,sounds\animalfarm_english.wav,,,,,,,,,0,1,1,1,0,87,87,26,793.080565916,9.94256697595e-06,794.320296647,1.23974067322,,,,,z,1,1.21726157737,2018_Nov_09_1341,59.9823588235,chinese_cond2,001,1002,
images\treadmill.jpg,lily,x,sounds\animalfarm_english.wav,,,,,,,,,0,1,1,1,0,88,88,199,795.425879248,9.62178455666e-06,796.287471227,0.861602241755,,,,,x,1,0.850469495868,2018_Nov_09_1341,59.9823588235,chinese_cond2,001,1002,
images\seagull.jpg,seagull,z,sounds\animalfarm_english.wav,,,,,,,,,0,1,1,1,0,89,89,50,797.393874889,9.94250876829e-06,798.871505642,1.47764165775,,,,,z,1,1.46731137019,2018_Nov_09_1341,59.9823588235,chinese_cond2,001,1002,
images\hammer02a.jpg,flower,x,sounds\animalfarm_english.wav,,,,,,,,,0,1,1,1,0,90,90,176,799.966443003,9.62184276432e-06,800.955390118,0.988957378315,,,,,x,1,0.96716271335,2018_Nov_09_1341,59.9823588235,chinese_cond2,001,1002,
images\bracelet02a.jpg,chess knight,x,sounds\animalfarm_english.wav,,,,,,,,,0,1,1,1,0,91,91,152,802.064176779,8.98033613339e-06,803.12264783,1.05848035176,,,,,x,1,1.05051542394,2018_Nov_09_1341,59.9823588235,chinese_cond2,001,1002,
images\boxingglove02a.jpg,bracelet,x,sounds\animalfarm_english.wav,,,,,,,,,0,1,1,1,0,92,92,135,804.234271641,9.94256697595e-06,805.740009282,1.50574822503,,,,,x,1,1.48396670981,2018_Nov_09_1341,59.9823588235,chinese_cond2,001,1002,
images\toothbrush03a.jpg,parrot,x,sounds\animalfarm_english.wav,,,,,,,,,0,1,1,1,0,93,93,210,806.832934082,9.30106034502e-06,808.474086081,1.64116162091,,,,,x,1,1.61735118838,2018_Nov_09_1341,59.9823588235,chinese_cond2,001,1002,
images\gluestick.jpg,squirrel,x,sounds\animalfarm_english.wav,,,,,,,,,0,1,1,1,0,94,94,226,809.581790932,9.30111855268e-06,810.791605555,1.20982424496,,,,,x,1,1.20078680682,2018_Nov_09_1341,59.9823588235,chinese_cond2,001,1002,
images\cherry01.jpg,highlighter,x,sounds\animalfarm_english.wav,,,,,,,,,0,1,1,1,0,95,95,187,811.9001026,9.94250876829e-06,812.941952309,1.0418599713,,,,,x,1,1.01718550094,2018_Nov_09_1341,59.9823588235,chinese_cond2,001,1002,
images\paperclip04.jpg,eye drops,x,sounds\animalfarm_english.wav,,,,,,,,,0,1,1,1,0,96,96,174,814.047594565,9.62178455666e-06,814.875801456,0.828216833062,,,,,x,1,0.817126102338,2018_Nov_09_1341,59.9823588235,chinese_cond2,001,1002,
images\cactus.jpg,cactus,z,sounds\animalfarm_english.wav,,,,,,,,,0,1,1,1,0,97,97,70,815.987469848,9.62184276432e-06,817.276441434,1.28898152907,,,,,z,1,1.26724716072,2018_Nov_09_1341,59.9823588235,chinese_cond2,001,1002,
images\feather03b.jpg,feather,z,sounds\animalfarm_english.wav,,,,,,,,,0,1,1,1,0,98,98,114,818.376896898,9.94256697595e-06,819.843800945,1.46691398975,,,,,z,1,1.45062812726,2018_Nov_09_1341,59.9823588235,chinese_cond2,001,1002,
images\kiwi03.jpg,backpack,x,sounds\animalfarm_english.wav,,,,,,,,,0,1,1,1,0,99,99,125,820.972841822,9.30111855268e-06,822.328053744,1.35522154364,,,,,x,1,1.33418122795,2018_Nov_09_1341,59.9823588235,chinese_cond2,001,1002,
images\aloe02.jpg,broad sword,x,sounds\animalfarm_english.wav,,,,,,,,,0,1,1,1,0,100,100,137,823.451389853,9.62178455666e-06,824.811821924,1.36044233345,,,,,x,1,1.35060532362,2018_Nov_09_1341,59.9823588235,chinese_cond2,001,1002,
images\pen03c.jpg,pepper,x,sounds\animalfarm_english.wav,,,,,,,,,0,1,1,1,0,101,101,211,825.906733305,9.94250876829e-06,826.795673974,0.888950290217,,,,,x,1,0.867139268259,2018_Nov_09_1341,59.9823588235,chinese_cond2,001,1002,
images\croissant02b.jpg,croissant,z,sounds\animalfarm_english.wav,,,,,,,,,0,1,1,1,0,102,102,39,827.906924458,9.30106034502e-06,828.912926538,1.00601234351,,,,,z,1,0.983856219449,2018_Nov_09_1341,59.9823588235,chinese_cond2,001,1002,
images\flower01.jpg,bus,x,sounds\animalfarm_english.wav,,,,,,,,,0,1,1,1,0,103,103,140,830.027089543,9.94250876829e-06,830.930163997,0.903084717691,,,,,x,1,0.883867412864,2018_Nov_09_1341,59.9823588235,chinese_cond2,001,1002,
images\grandpiano.jpg,tulip,x,sounds\animalfarm_english.wav,,,,,,,,,0,1,1,1,0,104,104,236,832.044460424,9.94256697595e-06,833.714215475,1.66976499389,,,,,x,1,1.65070484509,2018_Nov_09_1341,59.9823588235,chinese_cond2,001,1002,
images\flipflop01b.jpg,flip flop,z,sounds\animalfarm_english.wav,,,,,,,,,0,1,1,1,0,105,105,27,834.831910322,9.94250876829e-06,837.165134181,2.33323412185,,,,,z,1,2.31754000025,2018_Nov_09_1341,59.9823588235,chinese_cond2,001,1002,
images\charcoalbarbecue.jpg,charcoal barbecue,z,sounds\animalfarm_english.wav,,,,,,,,,0,1,1,1,0,106,106,77,838.283730912,9.30106034502e-06,840.232613484,1.94889251451,,,,,z,1,1.93409482413,2018_Nov_09_1341,59.9823588235,chinese_cond2,001,1002,
images\handbag02a.jpg,candle,x,sounds\animalfarm_english.wav,,,,,,,,,0,1,1,1,0,107,107,144,841.347221015,9.30111855268e-06,842.483231604,1.13602053165,,,,,z,0,1.11721792642,2018_Nov_09_1341,59.9823588235,chinese_cond2,001,1002,
images\rhinoceros01.jpg,envelope,x,sounds\animalfarm_english.wav,,,,,,,,,0,1,1,1,0,108,108,173,843.595317261,9.62178455666e-06,844.450437936,0.855130938289,,,,,z,0,0.833819287829,2018_Nov_09_1341,59.9823588235,chinese_cond2,001,1002,
images\apricot.jpg,apricot,z,sounds\animalfarm_english.wav,,,,,,,,,0,1,1,1,0,109,109,32,845.567854713,9.94250876829e-06,846.901135661,1.3332908905,,,,,z,1,1.31732575479,2018_Nov_09_1341,59.9823588235,chinese_cond2,001,1002,
images\mirror02.jpg,8 ball,x,sounds\animalfarm_english.wav,,,,,,,,,0,1,1,1,0,110,110,121,848.002964798,9.62178455666e-06,849.001708511,0.998753655876,,,,,x,1,0.983910743031,2018_Nov_09_1341,59.9823588235,chinese_cond2,001,1002,
images\tent.jpg,tent,z,sounds\animalfarm_english.wav,,,,,,,,,0,1,1,1,0,111,111,11,850.129344605,9.62184276432e-06,851.002176772,0.872842431127,,,,,z,1,0.850473665283,2018_Nov_09_1341,59.9823588235,chinese_cond2,001,1002,
images\bed.jpg,bed,z,sounds\animalfarm_english.wav,,,,,,,,,0,1,1,1,0,112,112,103,852.121269988,9.30111855268e-06,852.886022376,0.764762009552,,,,,z,1,0.750453748158,2018_Nov_09_1341,59.9823588235,chinese_cond2,001,1002,
images\leek.jpg,donut,x,sounds\animalfarm_english.wav,,,,,,,,,0,1,1,1,0,113,113,169,853.986974004,1.02632329799e-05,855.086615143,1.09965236427,,,,,x,1,1.08386651479,2018_Nov_09_1341,59.9823588235,chinese_cond2,001,1002,
images\tape01a.jpg,tie,x,sounds\animalfarm_english.wav,,,,,,,,,0,1,1,1,0,114,114,232,856.212163305,9.62178455666e-06,857.887375843,1.67522280087,,,,,z,0,1.65067213099,2018_Nov_09_1341,59.9823588235,chinese_cond2,001,1002,
images\handfan01b.jpg,handfan,z,sounds\animalfarm_english.wav,,,,,,,,,0,1,1,1,0,115,115,69,859.001477588,9.94256697595e-06,860.271333861,1.26986685675,,,,,z,1,1.25057353964,2018_Nov_09_1341,59.9823588235,chinese_cond2,001,1002,
images\electrictoothbrush01a.jpg,banjo,x,sounds\animalfarm_english.wav,,,,,,,,,0,1,1,1,0,116,116,127,861.366043185,9.62178455666e-06,862.438857777,1.072825176,,,,,x,1,1.05079990852,2018_Nov_09_1341,59.9823588235,chinese_cond2,001,1002,
images\bowtie.jpg,bowtie,z,sounds\animalfarm_english.wav,,,,,,,,,0,1,1,1,0,117,117,89,863.550697116,9.62178455666e-06,866.473003628,2.92231741751,,,,,z,1,2.90102084115,2018_Nov_09_1341,59.9823588235,chinese_cond2,001,1002,
images\skateboard.jpg,key,x,sounds\animalfarm_english.wav,,,,,,,,,0,1,1,1,0,118,118,189,867.563751977,9.30106034502e-06,869.490478746,1.92673671123,,,,,x,1,1.91742216522,2018_Nov_09_1341,59.9823588235,chinese_cond2,001,1002,
images\nailclipper03a.jpg,aquarium,x,sounds\animalfarm_english.wav,,,,,,,,,0,1,1,1,0,119,119,123,870.590241119,9.30106034502e-06,871.841113576,1.25088239944,,,,,x,1,1.23391050246,2018_Nov_09_1341,59.9823588235,chinese_cond2,001,1002,
images\atm.jpg,atm,z,sounds\animalfarm_english.wav,,,,,,,,,0,1,1,1,0,120,120,96,872.979536672,9.62184276432e-06,874.4251342,1.44560779165,,,,,z,1,1.43395450624,2018_Nov_09_1341,59.9823588235,chinese_cond2,001,1002,
images\lock02a.jpg,lock,z,sounds\animalfarm_english.wav,,,,,,,,,0,1,1,1,0,121,121,65,875.534701511,9.94250876829e-06,878.092790416,2.55809884734,,,,,z,1,2.53421689273,2018_Nov_09_1341,59.9823588235,chinese_cond2,001,1002,
images\highheelshoe02a.jpg,high heel shoe,z,sounds\animalfarm_english.wav,,,,,,,,,0,1,1,1,0,122,122,75,879.199510314,9.62178455666e-06,880.393412401,1.19391170837,,,,,z,1,1.18389990245,2018_Nov_09_1341,59.9823588235,chinese_cond2,001,1002,
images\nametag01a.jpg,name tag,z,sounds\animalfarm_english.wav,,,,,,,,,0,1,1,1,0,123,123,108,881.51381354,9.30106034502e-06,883.1108159,1.59701198136,,,,,z,1,1.58401549241,2018_Nov_09_1341,59.9823588235,chinese_cond2,001,1002,
images\headphones02b.jpg,headphones,z,sounds\animalfarm_english.wav,,,,,,,,,0,1,1,1,0,124,124,101,884.219983264,9.62184276432e-06,886.178303221,1.95833021961,,,,,z,1,1.93409674847,2018_Nov_09_1341,59.9823588235,chinese_cond2,001,1002,
images\diaper01a.jpg,camera,x,sounds\animalfarm_english.wav,,,,,,,,,0,1,1,1,0,125,125,143,887.299360246,1.02632329799e-05,888.495592413,1.19624242961,,,,,x,1,1.18390182679,2018_Nov_09_1341,59.9823588235,chinese_cond2,001,1002,
images\coin01b.jpg,arrow,x,sounds\animalfarm_english.wav,,,,,,,,,0,1,1,1,0,126,126,124,889.598725304,9.30106034502e-06,890.662839541,1.06412385951,,,,,x,1,1.05053434678,2018_Nov_09_1341,59.9823588235,chinese_cond2,001,1002,
images\bowlingball.jpg,bowling ball,z,sounds\animalfarm_english.wav,,,,,,,,,0,1,1,1,0,127,127,20,891.795533816,9.30106034502e-06,893.563618555,1.76809468109,,,,,z,1,1.75071514043,2018_Nov_09_1341,59.9823588235,chinese_cond2,001,1002,
images\dice05a.jpg,band aid,x,sounds\animalfarm_english.wav,,,,,,,,,0,1,1,1,0,128,128,126,894.675843407,9.62178455666e-06,897.064831703,2.38899759745,,,,,x,1,2.36781840713,2018_Nov_09_1341,59.9823588235,chinese_cond2,001,1002,
images\axe01.jpg,axe,z,sounds\animalfarm_english.wav,,,,,,,,,0,1,1,1,0,129,129,104,898.167638415,9.62178455666e-06,899.281817135,1.11418930383,,,,,z,1,1.10053692863,2018_Nov_09_1341,59.9823588235,chinese_cond2,001,1002,
images\lighter02b.jpg,stapler,x,sounds\animalfarm_english.wav,,,,,,,,,0,1,1,1,0,130,130,227,900.383504511,9.62178455666e-06,902.149256604,1.76576235623,,,,,x,1,1.75070936739,2018_Nov_09_1341,59.9823588235,chinese_cond2,001,1002,
images\bottleofredwine02.jpg,pipe,x,sounds\animalfarm_english.wav,,,,,,,,,0,1,1,1,0,131,131,213,903.24879511,9.30111855268e-06,904.266502112,1.01771694521,,,,,x,1,1.00051476643,2018_Nov_09_1341,59.9823588235,chinese_cond2,001,1002,
images\highlighter03b.jpg,coin,x,sounds\animalfarm_english.wav,,,,,,,,,0,1,1,1,0,132,132,156,905.368252671,9.62178455666e-06,906.433742185,1.06549977727,,,,,x,1,1.05052632862,2018_Nov_09_1341,59.9823588235,chinese_cond2,001,1002,
images\doorhandle.jpg,doll,x,sounds\animalfarm_english.wav,,,,,,,,,0,1,1,1,0,133,133,168,907.536507202,9.94250876829e-06,909.184493247,1.64799694921,,,,,x,1,1.63402865821,2018_Nov_09_1341,59.9823588235,chinese_cond2,001,1002,
images\gorilla.jpg,gorilla,z,sounds\animalfarm_english.wav,,,,,,,,,0,1,1,1,0,134,134,80,910.29533256,9.30106034502e-06,911.05164342,0.756320481712,,,,,z,1,0.733755110414,2018_Nov_09_1341,59.9823588235,chinese_cond2,001,1002,
images\corkscrew02a.jpg,masquerade mask,x,sounds\animalfarm_english.wav,,,,,,,,,0,1,1,1,0,135,135,201,912.155468118,9.62178455666e-06,914.652634337,2.49717680289,,,,,x,1,2.484257609,2018_Nov_09_1341,59.9823588235,chinese_cond2,001,1002,
images\screwdriver02b.jpg,cola,x,sounds\animalfarm_english.wav,,,,,,,,,0,1,1,1,0,136,136,158,915.746639986,9.94256697595e-06,916.769858999,1.02322959644,,,,,x,1,1.00051957736,2018_Nov_09_1341,59.9823588235,chinese_cond2,001,1002,
images\cat.jpg,black olive,x,sounds\animalfarm_english.wav,,,,,,,,,0,1,1,1,0,137,137,133,917.901217126,9.30106034502e-06,919.753987836,1.85278033197,,,,,z,0,1.83406656812,2018_Nov_09_1341,59.9823588235,chinese_cond2,001,1002,
images\dryingmachine01.jpg,drying machine,z,sounds\animalfarm_english.wav,,,,,,,,,0,1,1,1,0,138,138,18,920.874772244,9.62184276432e-06,921.754535637,0.879773656779,,,,,z,1,0.867151776503,2018_Nov_09_1341,59.9823588235,chinese_cond2,001,1002,
images\ear.jpg,bullet,x,sounds\animalfarm_english.wav,,,,,,,,,0,1,1,1,0,139,139,139,922.858198048,9.30106034502e-06,924.721994382,1.86380595516,,,,,x,1,1.85074564151,2018_Nov_09_1341,59.9823588235,chinese_cond2,001,1002,
images\acousticguitar02.jpg,acoustic guitar,z,sounds\animalfarm_english.wav,,,,,,,,,0,1,1,1,0,140,140,97,925.835076216,9.30106034502e-06,926.805915741,0.970907839481,,,,,z,1,0.950529503811,2018_Nov_09_1341,59.9823588235,chinese_cond2,001,1002,
images\envelope02a.jpg,grand piano,x,sounds\animalfarm_english.wav,,,,,,,,,0,1,1,1,0,141,141,182,927.929053,1.02632911876e-05,929.089836843,1.16079442733,,,,,x,1,1.15056164062,2018_Nov_09_1341,59.9823588235,chinese_cond2,001,1002,
images\leaf01a.jpg,leaf,z,sounds\animalfarm_english.wav,,,,,,,,,0,1,1,1,0,142,142,68,930.193264803,6.67111598887e-05,930.923666073,0.730451945681,,,,,z,1,0.717090790393,2018_Nov_09_1341,59.9823588235,chinese_cond2,001,1002,
images\scissors04a.jpg,leek,x,sounds\animalfarm_english.wav,,,,,,,,,0,1,1,1,0,143,143,194,932.017720152,9.62178455666e-06,932.990876928,0.973167038639,,,,,x,1,0.95049999695,2018_Nov_09_1341,59.9823588235,chinese_cond2,001,1002,
images\clothespin02a.jpg,clothes pin,z,sounds\animalfarm_english.wav,,,,,,,,,0,1,1,1,0,144,144,79,934.095830905,9.94250876829e-06,935.574909098,1.47908813535,,,,,z,1,1.46730335202,2018_Nov_09_1341,59.9823588235,chinese_cond2,001,1002,
images\corn01.jpg,corn,z,sounds\animalfarm_english.wav,,,,,,,,,0,1,1,1,0,145,145,22,936.67458231,9.62178455666e-06,937.858857462,1.18428541603,,,,,z,1,1.16723173374,2018_Nov_09_1341,59.9823588235,chinese_cond2,001,1002,
images\worldmap.jpg,scooter,x,sounds\animalfarm_english.wav,,,,,,,,,0,1,1,1,0,146,146,220,938.989325252,9.62178455666e-06,940.509569363,1.52025437477,,,,,x,1,1.50064770767,2018_Nov_09_1341,59.9823588235,chinese_cond2,001,1002,
images\magnifyingglass01b.jpg,magnifying glass,z,sounds\animalfarm_english.wav,,,,,,,,,0,1,1,1,0,147,147,64,941.617260743,9.62178455666e-06,943.977167143,2.35991666239,,,,,z,1,2.35086190503,2018_Nov_09_1341,59.9823588235,chinese_cond2,001,1002,
images\daisy.jpg,daisy,z,sounds\animalfarm_english.wav,,,,,,,,,0,1,1,1,0,148,148,6,945.079367039,9.62178455666e-06,945.811007278,0.731649860041,,,,,z,1,0.717112599814,2018_Nov_09_1341,59.9823588235,chinese_cond2,001,1002,
images\pineapple01a.jpg,pineapple,z,sounds\animalfarm_english.wav,,,,,,,,,0,1,1,1,0,149,149,51,946.924020797,9.62184276432e-06,947.611481568,0.687471034413,,,,,z,1,0.667093981639,2018_Nov_09_1341,59.9823588235,chinese_cond2,001,1002,
images\icecube02 (2).jpg,aloe,x,sounds\animalfarm_english.wav,,,,,,,,,0,1,1,1,0,150,150,122,948.724002452,9.94250876829e-06,950.49559562,1.77160311094,,,,,x,1,1.75071449904,2018_Nov_09_1341,59.9823588235,chinese_cond2,001,1002,
images\pingpongpaddle01c (1).jpg,ping pong paddle,z,sounds\animalfarm_english.wav,,,,,,,,,0,1,1,1,0,151,151,10,951.60885193,9.62178455666e-06,953.229667288,1.62082562118,,,,,x,0,1.60067981243,2018_Nov_09_1341,59.9823588235,chinese_cond2,001,1002,
images\ruler02b.jpg,watermelon,x,sounds\animalfarm_english.wav,,,,,,,,,0,1,1,1,0,152,152,238,954.332182459,9.62178455666e-06,955.963723881,1.63155136484,,,,,x,1,1.61732905824,2018_Nov_09_1341,59.9823588235,chinese_cond2,001,1002,
images\medal01.jpg,medal,z,sounds\animalfarm_english.wav,,,,,,,,,0,1,1,1,0,153,153,115,957.065871179,1.02632911876e-05,958.34770852,1.28184696269,,,,,z,1,1.26726672502,2018_Nov_09_1341,59.9823588235,chinese_cond2,001,1002,
images\battery03b.jpg,battery,z,sounds\animalfarm_english.wav,,,,,,,,,0,1,1,1,0,154,154,34,959.457212327,1.02632329799e-05,960.581634417,1.12443267443,,,,,z,1,1.10053500428,2018_Nov_09_1341,59.9823588235,chinese_cond2,001,1002,
images\nailpolish02b.jpg,nail polish,z,sounds\animalfarm_english.wav,,,,,,,,,0,1,1,1,0,155,155,94,961.689990984,9.30106034502e-06,962.482178658,0.792197295697,,,,,z,1,0.78382889356,2018_Nov_09_1341,59.9823588235,chinese_cond2,001,1002,
images\glasses01b.jpg,calculator,x,sounds\animalfarm_english.wav,,,,,,,,,0,1,1,1,0,156,156,142,963.575174339,9.30106034502e-06,964.515864267,0.94069987064,,,,,x,1,0.916997522989,2018_Nov_09_1341,59.9823588235,chinese_cond2,001,1002,
images\teapot.jpg,light switch,x,sounds\animalfarm_english.wav,,,,,,,,,0,1,1,1,0,157,157,197,965.633240953,9.30111855268e-06,967.78356686,2.15033584903,,,,,x,1,2.13413979003,2018_Nov_09_1341,59.9823588235,chinese_cond2,001,1002,
images\birthdaycandle.jpg,birthday candle,z,sounds\animalfarm_english.wav,,,,,,,,,0,1,1,1,0,158,158,55,968.881137066,9.30106034502e-06,969.984168287,1.10304084228,,,,,x,0,1.08388575842,2018_Nov_09_1341,59.9823588235,chinese_cond2,001,1002,
images\comb02a.jpg,diploma,x,sounds\animalfarm_english.wav,,,,,,,,,0,1,1,1,0,159,159,166,971.08827779,9.30106034502e-06,972.051218136,0.962950929767,,,,,x,1,0.950338992116,2018_Nov_09_1341,59.9823588235,chinese_cond2,001,1002,
images\knife04.jpg,tooth brush,x,sounds\animalfarm_english.wav,,,,,,,,,0,1,1,1,0,160,160,233,973.14973609,9.62184276432e-06,974.201981514,1.05225600797,,,,,x,1,1.03387676203,2018_Nov_09_1341,59.9823588235,chinese_cond2,001,1002,
images\aquarium.jpg,computer mouse,x,sounds\animalfarm_english.wav,,,,,,,,,0,1,1,1,0,161,161,159,975.338022572,9.62178455666e-06,976.385882058,1.04787039047,,,,,x,1,1.0338562355,2018_Nov_09_1341,59.9823588235,chinese_cond2,001,1002,
images\bus.jpg,microphone,x,sounds\animalfarm_english.wav,,,,,,,,,0,1,1,1,0,162,162,203,977.504892847,9.62178455666e-06,979.78685495,2.28197204613,,,,,x,1,2.26758424449,2018_Nov_09_1341,59.9823588235,chinese_cond2,001,1002,
images\ant.jpg,ant,z,sounds\animalfarm_english.wav,,,,,,,,,0,1,1,1,0,163,163,98,980.882845577,9.94256697595e-06,982.120766126,1.23793081223,,,,,z,1,1.21724457882,2018_Nov_09_1341,59.9823588235,chinese_cond2,001,1002,
images\cauliflower01.jpg,glue stick,x,sounds\animalfarm_english.wav,,,,,,,,,0,1,1,1,0,164,164,181,983.236698901,9.94256697595e-06,984.154700299,0.918011660979,,,,,x,1,0.900532695057,2018_Nov_09_1341,59.9823588235,chinese_cond2,001,1002,
images\computermouse02a.jpg,world map,x,sounds\animalfarm_english.wav,,,,,,,,,0,1,1,1,0,165,165,239,985.256789865,1.02632329799e-05,986.605297636,1.3485183547,,,,,x,1,1.333942928,2018_Nov_09_1341,59.9823588235,chinese_cond2,001,1002,
images\lightswitch02a.jpg,fork,x,sounds\animalfarm_english.wav,,,,,,,,,0,1,1,1,0,166,166,177,987.717851875,9.30106034502e-06,988.939267505,1.22142589337,,,,,z,0,1.20058474899,2018_Nov_09_1341,59.9823588235,chinese_cond2,001,1002,
images\computerkeyboard01a.jpg,computer keyboard,z,sounds\animalfarm_english.wav,,,,,,,,,0,1,1,1,0,167,167,61,990.054473833,9.94250876829e-06,990.92312597,0.868664003152,,,,,z,1,0.850478476146,2018_Nov_09_1341,59.9823588235,chinese_cond2,001,1002,
images\mattress.jpg,cat,x,sounds\animalfarm_english.wav,,,,,,,,,0,1,1,1,0,168,168,147,992.0275825,9.30111855268e-06,993.040359291,1.01278769592,,,,,z,0,1.00052406749,2018_Nov_09_1341,59.9823588235,chinese_cond2,001,1002,
images\parkfountain.jpg,park fountain,z,sounds\animalfarm_english.wav,,,,,,,,,0,1,1,1,0,169,169,93,994.159483617,9.62178455666e-06,995.140932141,0.981458145659,,,,,z,1,0.967176504608,2018_Nov_09_1341,59.9823588235,chinese_cond2,001,1002,
images\toucan.jpg,toucan,z,sounds\animalfarm_english.wav,,,,,,,,,0,1,1,1,0,170,170,81,996.242055679,9.62184276432e-06,997.34152138,1.09947532316,,,,,z,1,1.08388190967,2018_Nov_09_1341,59.9823588235,chinese_cond2,001,1002,
images\backpack01b.jpg,swallow,x,sounds\animalfarm_english.wav,,,,,,,,,0,1,1,1,0,171,171,228,998.473248664,9.62184276432e-06,1000.2089586,1.73571988242,,,,,x,1,1.71738521749,2018_Nov_09_1341,59.9823588235,chinese_cond2,001,1002,
images\shotglass.jpg,shot glass,z,sounds\animalfarm_english.wav,,,,,,,,,0,1,1,1,0,172,172,86,1001.31728246,9.62178455666e-06,1002.27617619,0.958903999766,,,,,z,1,0.950506090769,2018_Nov_09_1341,59.9823588235,chinese_cond2,001,1002,
images\apple06.jpg,apple,z,sounds\animalfarm_english.wav,,,,,,,,,0,1,1,1,0,173,173,13,1003.404532,1.02632329799e-05,1004.12666333,0.722141595092,,,,,z,1,0.700430319062,2018_Nov_09_1341,59.9823588235,chinese_cond2,001,1002,
images\blackolive.jpg,tank,x,sounds\animalfarm_english.wav,,,,,,,,,0,1,1,1,0,174,174,229,1005.24294313,9.62184276432e-06,1006.17721981,0.934286939504,,,,,x,1,0.917162697297,2018_Nov_09_1341,59.9823588235,chinese_cond2,001,1002,
images\marker01a.jpg,marker,z,sounds\animalfarm_english.wav,,,,,,,,,0,1,1,1,0,175,175,95,1007.27538143,8.98033613339e-06,1008.3111415,1.03577033267,,,,,z,1,1.01720185799,2018_Nov_09_1341,59.9823588235,chinese_cond2,001,1002,
images\djmixer01.jpg,light bulb,x,sounds\animalfarm_english.wav,,,,,,,,,0,1,1,1,0,176,176,196,1009.43367964,9.62178455666e-06,1011.36177271,1.92810332787,,,,,x,1,1.91726083966,2018_Nov_09_1341,59.9823588235,chinese_cond2,001,1002,
images\dragonfly02.jpg,dragon fly,z,sounds\animalfarm_english.wav,,,,,,,,,0,1,1,1,0,177,177,29,1012.4595376,9.30106034502e-06,1013.57920972,1.11968174926,,,,,z,1,1.1005455883,2018_Nov_09_1341,59.9823588235,chinese_cond2,001,1002,
images\baseball01a.jpg,baseball,z,sounds\animalfarm_english.wav,,,,,,,,,0,1,1,1,0,178,178,74,1014.71285688,9.94250876829e-06,1016.68005006,1.96720312489,,,,,z,1,1.95077165251,2018_Nov_09_1341,59.9823588235,chinese_cond2,001,1002,
images\panda.jpg,panda,z,sounds\animalfarm_english.wav,,,,,,,,,0,1,1,1,0,179,179,83,1017.78924821,9.94250876829e-06,1018.83061427,1.04137567396,,,,,z,1,1.01717908646,2018_Nov_09_1341,59.9823588235,chinese_cond2,001,1002,
images\scooter.jpg,pen,x,sounds\animalfarm_english.wav,,,,,,,,,0,1,1,1,0,180,180,212,1019.92352784,9.62178455666e-06,1021.43133064,1.50781338447,,,,,x,1,1.48398948146,2018_Nov_09_1341,59.9823588235,chinese_cond2,001,1002,
images\cigar.jpg,crocodile,x,sounds\animalfarm_english.wav,,,,,,,,,0,1,1,1,0,181,181,162,1022.52953813,9.30111855268e-06,1024.73240261,2.20287473797,,,,,z,0,2.18435982463,2018_Nov_09_1341,59.9823588235,chinese_cond2,001,1002,
images\lychee02a.jpg,lychee,z,sounds\animalfarm_english.wav,,,,,,,,,0,1,1,1,0,182,182,62,1025.85700462,9.62178455666e-06,1026.69941394,0.842418933928,,,,,z,1,0.83382089145,2018_Nov_09_1341,59.9823588235,chinese_cond2,001,1002,
images\broom02.jpg,broom,z,sounds\animalfarm_english.wav,,,,,,,,,0,1,1,1,0,183,183,116,1027.79289039,8.98033613339e-06,1028.76662864,0.973748516233,,,,,z,1,0.950508656562,2018_Nov_09_1341,59.9823588235,chinese_cond2,001,1002,
images\cloud.jpg,ceiling fan,x,sounds\animalfarm_english.wav,,,,,,,,,0,1,1,1,0,184,184,149,1029.8717975,9.94256697595e-06,1030.88386164,1.01207439962,,,,,x,1,1.00052086019,2018_Nov_09_1341,59.9823588235,chinese_cond2,001,1002,
images\candycane01a.jpg,lip,x,sounds\animalfarm_english.wav,,,,,,,,,0,1,1,1,0,185,185,200,1031.97777107,9.62184276432e-06,1032.88439533,0.906634200597,,,,,x,1,0.883812568616,2018_Nov_09_1341,59.9823588235,chinese_cond2,001,1002,
images\desktopcomputer.jpg,desktop computer,z,sounds\animalfarm_english.wav,,,,,,,,,0,1,1,1,0,186,186,16,1034.02000148,9.94250876829e-06,1035.06832089,1.04833031265,,,,,x,0,1.03386136715,2018_Nov_09_1341,59.9823588235,chinese_cond2,001,1002,
images\rubberglove02a.jpg,lady bug,x,sounds\animalfarm_english.wav,,,,,,,,,0,1,1,1,0,187,187,192,1036.17266452,1.05839571916e-05,1037.90241761,1.72976398683,,,,,x,1,1.71738361393,2018_Nov_09_1341,59.9823588235,chinese_cond2,001,1002,
images\ceilingfan02.jpg,paper clip,x,sounds\animalfarm_english.wav,,,,,,,,,0,1,1,1,0,188,188,208,1039.00056127,9.62178455666e-06,1040.60313658,1.60258557071,,,,,x,1,1.58400330477,2018_Nov_09_1341,59.9823588235,chinese_cond2,001,1002,
images\mailbox01.jpg,mail box,z,sounds\animalfarm_english.wav,,,,,,,,,0,1,1,1,0,189,189,73,1041.72240299,9.62184276432e-06,1042.60370266,0.881310258585,,,,,z,1,0.867168454337,2018_Nov_09_1341,59.9823588235,chinese_cond2,001,1002,
images\snowman.jpg,globe,x,sounds\animalfarm_english.wav,,,,,,,,,0,1,1,1,0,190,190,180,1043.71449355,9.30106034502e-06,1044.37081945,0.656336165208,,,,,x,1,0.633752833237,2018_Nov_09_1341,59.9823588235,chinese_cond2,001,1002,
images\eyedrops.jpg,bicycle,x,sounds\animalfarm_english.wav,,,,,,,,,0,1,1,1,0,191,191,131,1045.4714744,9.30106034502e-06,1046.38804087,0.916577050288,,,,,x,1,0.900506074773,2018_Nov_09_1341,59.9823588235,chinese_cond2,001,1002,
images\orange.jpg,bat,x,sounds\animalfarm_english.wav,,,,,,,,,0,1,1,1,0,192,192,128,1047.51271056,9.62184276432e-06,1048.90537342,1.3926731259,,,,,x,1,1.38393460511,2018_Nov_09_1341,59.9823588235,chinese_cond2,001,1002,
images\basketball01.jpg,basket ball,z,sounds\animalfarm_english.wav,,,,,,,,,0,1,1,1,0,193,193,33,1050.04502875,9.30106034502e-06,1051.00593793,0.960919446603,,,,,z,1,0.950502883526,2018_Nov_09_1341,59.9823588235,chinese_cond2,001,1002,
images\tie01.jpg,bench,x,sounds\animalfarm_english.wav,,,,,,,,,0,1,1,1,0,194,194,130,1052.10468777,9.94250876829e-06,1053.20653038,1.10185254971,,,,,x,1,1.08387228788,2018_Nov_09_1341,59.9823588235,chinese_cond2,001,1002,
,,,sounds\animalfarm_english.wav,,,,,,,,,0,1,1,1,,,,,,,,,,,,,,,,2018_Nov_09_1341,59.9823588235,chinese_cond2,001,1002,
