images,name,corrAns,sounds,trials_3.thisRepN,trials_3.thisTrialN,trials_3.thisN,trials_3.thisIndex,trials_4.thisRepN,trials_4.thisTrialN,trials_4.thisN,trials_4.thisIndex,trials_2.thisRepN,trials_2.thisTrialN,trials_2.thisN,trials_2.thisIndex,trials.thisRepN,trials.thisTrialN,trials.thisN,trials.thisIndex,begin_global,begin_routine,end_global,end_routine,key_resp_2.keys,key_resp_2.corr,begin_book,key_resp_1.keys,key_resp_1.corr,key_resp_1.rt,date,frameRate,expName,session,participant
images/volleyball.jpg,volley ball,z,,0,0,0,0,,,,,,,,,,,,,,,,,,,,,,,2018_Nov_13_1539,59.9849361106,chinese_cond2,1,1004
images/puma.jpg,puma,z,,,,,,0,0,0,0,,,,,,,,,48.181975337,9.94245056063E-06,51.0069539526,2.82498984097,None,0,,,,,2018_Nov_13_1539,59.9849361106,chinese_cond2,1,1004
images/charcoalbarbecue.jpg,charcoal barbecue,z,sounds/animalfarm_english.wav,,,,,,,,,0,0,0,1,0,0,0,77,93.2030530424,9.621726349E-06,95.0520593893,1.84901628934,,,83.004168138,z,1,1.83406667027,2018_Nov_13_1539,59.9849361106,chinese_cond2,1,1004
images/ceilingfan02.jpg,paper clip,x,sounds/animalfarm_english.wav,,,,,,,,,0,0,0,1,0,1,1,208,96.1585409464,3.20724211633E-05,97.319297459,1.16078313277,,,,x,1,1.15051865997,2018_Nov_13_1539,59.9849361106,chinese_cond2,1,1004
images/atm.jpg,atm,z,sounds/animalfarm_english.wav,,,,,,,,,0,0,0,1,0,2,2,96,98.4589060274,8.6595537141E-06,99.3864995434,0.927603137796,,,,z,1,0.917111912742,2018_Nov_13_1539,59.9849361106,chinese_cond2,1,1004
images/squirrel.jpg,binder,x,sounds/animalfarm_english.wav,,,,,,,,,0,0,0,1,0,3,3,132,100.492067035,9.30111855268E-06,101.787130216,1.29507312365,,,,x,1,1.2838977928,2018_Nov_13_1539,59.9849361106,chinese_cond2,1,1004
images/sunglasses03a.jpg,sun glasses,z,sounds/animalfarm_english.wav,,,,,,,,,0,0,0,1,0,4,4,17,102.896844358,9.621726349E-06,103.604286357,0.707452583243,,,,z,1,0.683753915597,2018_Nov_13_1539,59.9849361106,chinese_cond2,1,1004
images/pipe.jpg,icecube,x,sounds/animalfarm_english.wav,,,,,,,,,0,0,0,1,0,5,5,188,104.71458518,8.98027792573E-06,106.405015621,1.69044006313,,,,x,1,1.66733922635,2018_Nov_13_1539,59.9849361106,chinese_cond2,1,1004
images/raisin.jpg,ruler,x,sounds/animalfarm_english.wav,,,,,,,,,0,0,0,1,0,6,6,218,107.511401923,8.98027792573E-06,108.522235041,1.01084273937,,,,x,1,1.00049006729,2018_Nov_13_1539,59.9849361106,chinese_cond2,1,1004
images/camera01a.jpg,bull,x,sounds/animalfarm_english.wav,,,,,,,,,0,0,0,1,0,7,7,138,109.634472964,9.30111855268E-06,110.472740166,0.838277464733,,,,x,1,0.817103221081,2018_Nov_13_1539,59.9849361106,chinese_cond2,1,1004
images/swan.jpg,swan,z,sounds/animalfarm_english.wav,,,,,,,,,0,0,0,1,0,8,8,54,111.566096707,8.98027792573E-06,112.389911092,0.823824327555,,,,z,1,0.800432272721,2018_Nov_13_1539,59.9849361106,chinese_cond2,1,1004
images/nailclipper03a.jpg,aquarium,x,sounds/animalfarm_english.wav,,,,,,,,,0,0,0,1,0,9,9,123,113.491104541,9.30100213736E-06,114.740536617,1.24944233999,,,,x,1,1.23389553162,2018_Nov_13_1539,59.9849361106,chinese_cond2,1,1004
images/peach01.jpg,peach,z,sounds/animalfarm_english.wav,,,,,,,,,0,0,0,1,0,10,10,106,115.870832624,9.94245056063E-06,116.65797599,0.787153308629,,,,z,1,0.767356577562,2018_Nov_13_1539,59.9849361106,chinese_cond2,1,1004
images/handbag02a.jpg,candle,x,sounds/animalfarm_english.wav,,,,,,,,,0,0,0,1,0,11,11,144,117.774786486,9.30100213736E-06,118.924958763,1.15018221969,,,,x,1,1.1338608613,2018_Nov_13_1539,59.9849361106,chinese_cond2,1,1004
images/toothbrush03a.jpg,parrot,x,sounds/animalfarm_english.wav,,,,,,,,,0,0,0,1,0,12,12,210,120.019170997,8.98027792573E-06,120.775456159,0.756295103929,,,,x,1,0.733763874159,2018_Nov_13_1539,59.9849361106,chinese_cond2,1,1004
images/elbow.jpg,elbow,z,sounds/animalfarm_english.wav,,,,,,,,,0,0,0,1,0,13,13,105,121.88870212,9.30100213736E-06,122.992724361,1.10403218272,,,,x,0,1.0838714292,2018_Nov_13_1539,59.9849361106,chinese_cond2,1,1004
images/comb02a.jpg,diploma,x,sounds/animalfarm_english.wav,,,,,,,,,0,0,0,1,0,14,14,166,124.098853121,9.30111855268E-06,125.143274131,1.04443063191,,,,x,1,1.03384351009,2018_Nov_13_1539,59.9849361106,chinese_cond2,1,1004
images/banjo.jpg,knife,x,sounds/animalfarm_english.wav,,,,,,,,,0,0,0,1,0,15,15,191,126.240964945,9.30100213736E-06,127.043792711,0.802838028525,,,,x,1,0.783802697901,2018_Nov_13_1539,59.9849361106,chinese_cond2,1,1004
images/floorlamp.jpg,floor lamp,z,sounds/animalfarm_english.wav,,,,,,,,,0,0,0,1,0,16,16,26,128.137783004,9.30100213736E-06,129.127645538,0.989872155944,,,,z,1,0.967155547231,2018_Nov_13_1539,59.9849361106,chinese_cond2,1,1004
images/bat.jpg,hand,x,sounds/animalfarm_english.wav,,,,,,,,,0,0,0,1,0,17,17,185,130.227032986,8.98027792573E-06,131.311547468,1.08452474535,,,,x,1,1.06717803015,2018_Nov_13_1539,59.9849361106,chinese_cond2,1,1004
images/mailbox01.jpg,mail box,z,sounds/animalfarm_english.wav,,,,,,,,,0,0,0,1,0,18,18,73,132.432461315,9.30100213736E-06,133.661990821,1.22954009043,,,,z,1,1.21705139196,2018_Nov_13_1539,59.9849361106,chinese_cond2,1,1004
images/bench02.jpg,electric toothbrush,x,sounds/animalfarm_english.wav,,,,,,,,,0,0,0,1,0,19,19,172,134.772306963,8.98027792573E-06,136.379542704,1.60724536295,,,,x,1,1.58397710801,2018_Nov_13_1539,59.9849361106,chinese_cond2,1,1004
images/acousticguitar02.jpg,acoustic guitar,z,sounds/animalfarm_english.wav,,,,,,,,,0,0,0,1,0,20,20,97,137.493546218,9.621726349E-06,138.330054886,0.836518931319,,,,z,1,0.817111239186,2018_Nov_13_1539,59.9849361106,chinese_cond2,1,1004
images/tissuebox03.jpg,tissue box,z,sounds/animalfarm_english.wav,,,,,,,,,0,0,0,1,0,21,21,58,139.456603545,9.621726349E-06,140.680669827,1.22407654545,,,,z,1,1.20054240956,2018_Nov_13_1539,59.9849361106,chinese_cond2,1,1004
images/lemon02.jpg,lemon,z,sounds/animalfarm_english.wav,,,,,,,,,0,0,0,1,0,22,22,14,141.79466885,9.30111855268E-06,142.964607069,1.1699488028,,,,z,1,1.15054111066,2018_Nov_13_1539,59.9849361106,chinese_cond2,1,1004
images/lollipop03b.jpg,lollipop,z,sounds/animalfarm_english.wav,,,,,,,,,0,0,0,1,0,23,23,42,144.059081015,9.30111855268E-06,144.86510865,0.806037898757,,,,z,1,0.783779605757,2018_Nov_13_1539,59.9849361106,chinese_cond2,1,1004
images/mushroom01.jpg,shower head,x,sounds/animalfarm_english.wav,,,,,,,,,0,0,0,1,0,24,24,222,145.982475603,9.94245056063E-06,146.715622082,0.733157063019,,,,x,1,0.717122432427,2018_Nov_13_1539,59.9849361106,chinese_cond2,1,1004
images/mitten01.jpg,mitten,z,sounds/animalfarm_english.wav,,,,,,,,,0,0,0,1,0,25,25,102,147.838153344,9.94245056063E-06,149.116423702,1.27829056315,,,,z,1,1.26739169692,2018_Nov_13_1539,59.9849361106,chinese_cond2,1,1004
images/cupcake.jpg,scissors,x,sounds/animalfarm_english.wav,,,,,,,,,0,0,0,1,0,26,26,219,150.237249991,9.621726349E-06,151.033394175,0.796154126176,,,,x,1,0.78377800202,2018_Nov_13_1539,59.9849361106,chinese_cond2,1,1004
images/stapler03a.jpg,candy cane,x,sounds/animalfarm_english.wav,,,,,,,,,0,0,0,1,0,27,27,145,152.146076944,3.27139860019E-05,153.984162936,1.83811357443,,,,z,0,1.8173610837,2018_Nov_13_1539,59.9849361106,chinese_cond2,1,1004
images/barrel01.jpg,barrel,z,sounds/animalfarm_english.wav,,,,,,,,,0,0,0,1,0,28,28,9,155.11542272,9.621726349E-06,156.218097917,1.10268545989,,,,z,1,1.08386661834,2018_Nov_13_1539,59.9849361106,chinese_cond2,1,1004
images/lighter02b.jpg,stapler,x,sounds/animalfarm_english.wav,,,,,,,,,0,0,0,1,0,29,29,227,157.321018788,8.98027792573E-06,159.318895912,1.99788706575,,,,x,1,1.9840946215,2018_Nov_13_1539,59.9849361106,chinese_cond2,1,1004
images/calculator02b.jpg,dice,x,sounds/animalfarm_english.wav,,,,,,,,,0,0,0,1,0,30,30,165,160.421942508,9.621726349E-06,161.469474868,1.04754198203,,,,x,1,1.03376749833,2018_Nov_13_1539,59.9849361106,chinese_cond2,1,1004
images/coin01b.jpg,arrow,x,sounds/animalfarm_english.wav,,,,,,,,,0,0,0,1,0,31,31,124,162.573761706,9.621726349E-06,163.419962995,0.846211872646,,,,x,1,0.833716118243,2018_Nov_13_1539,59.9849361106,chinese_cond2,1,1004
images/djmixer01.jpg,light bulb,x,sounds/animalfarm_english.wav,,,,,,,,,0,0,0,1,0,32,32,196,164.542581494,8.98027792573E-06,165.403815148,0.861243276391,,,,x,1,0.850446400698,2018_Nov_13_1539,59.9849361106,chinese_cond2,1,1004
images/belt02a.jpg,snowman,x,sounds/animalfarm_english.wav,,,,,,,,,0,0,0,1,0,33,33,224,166.508886479,8.98027792573E-06,167.404361022,0.895484164357,,,,x,1,0.883810427389,2018_Nov_13_1539,59.9849361106,chinese_cond2,1,1004
images/boxingglove02a.jpg,bracelet,x,sounds/animalfarm_english.wav,,,,,,,,,0,0,0,1,0,34,34,135,168.517663431,9.30100213736E-06,169.921680957,1.40402746818,,,,x,1,1.38392925577,2018_Nov_13_1539,59.9849361106,chinese_cond2,1,1004
images/ear.jpg,bullet,x,sounds/animalfarm_english.wav,,,,,,,,,0,0,0,1,0,35,35,139,171.02706788,9.94245056063E-06,171.9388718,0.911814182298,,,,x,1,0.900465018698,2018_Nov_13_1539,59.9849361106,chinese_cond2,1,1004
images/blackolive.jpg,tank,x,sounds/animalfarm_english.wav,,,,,,,,,0,0,0,1,0,36,36,229,173.05517106,9.30100213736E-06,174.106120742,1.05095962423,,,,x,1,1.03384383081,2018_Nov_13_1539,59.9849361106,chinese_cond2,1,1004
images/hairband.jpg,hairband,z,sounds/animalfarm_english.wav,,,,,,,,,0,0,0,1,0,37,37,66,175.216932724,9.30100213736E-06,176.590096856,1.37317407422,,,,z,1,1.35058800061,2018_Nov_13_1539,59.9849361106,chinese_cond2,1,1004
images/computerkeyboard01a.jpg,computer keyboard,z,sounds/animalfarm_english.wav,,,,,,,,,0,0,0,1,0,38,38,61,177.70880091,8.98039434105E-06,178.907361882,1.19857123576,,,,z,1,1.18387595133,2018_Nov_13_1539,59.9849361106,chinese_cond2,1,1004
images/cookingpot.jpg,grasshopper,x,sounds/animalfarm_english.wav,,,,,,,,,0,0,0,1,0,39,39,183,180.02139843,9.30100213736E-06,180.957912583,0.936524094897,,,,x,1,0.917151361937,2018_Nov_13_1539,59.9849361106,chinese_cond2,1,1004
images/broadsword.jpg,teapot,x,sounds/animalfarm_english.wav,,,,,,,,,0,0,0,1,0,40,40,231,182.052454201,9.94245056063E-06,184.32547622,2.27303260262,,,,x,1,2.25076468778,2018_Nov_13_1539,59.9849361106,chinese_cond2,1,1004
images/clothespin02a.jpg,clothes pin,z,sounds/animalfarm_english.wav,,,,,,,,,0,0,0,1,0,41,41,79,185.432204094,9.30100213736E-06,186.426008014,0.993813220877,,,,z,1,0.98382521281,2018_Nov_13_1539,59.9849361106,chinese_cond2,1,1004
images/headphones02b.jpg,headphones,z,sounds/animalfarm_english.wav,,,,,,,,,0,0,0,1,0,42,42,101,187.535406562,9.30100213736E-06,188.476546847,0.941150227678,,,,z,1,0.91714141937,2018_Nov_13_1539,59.9849361106,chinese_cond2,1,1004
images/fryingpan01.jpg,frying pan,z,sounds/animalfarm_english.wav,,,,,,,,,0,0,0,1,0,43,43,45,189.578876623,9.30100213736E-06,190.226997706,0.6481307043,,,,z,1,0.633701942279,2018_Nov_13_1539,59.9849361106,chinese_cond2,1,1004
images/redfox.jpg,red fox,z,sounds/animalfarm_english.wav,,,,,,,,,0,0,0,1,0,44,44,1,191.341104172,8.6595537141E-06,192.044555073,0.703460843884,,,,z,1,0.684094846016,2018_Nov_13_1539,59.9849361106,chinese_cond2,1,1004
images/pingpongpaddle01c (1).jpg,ping pong paddle,z,sounds/animalfarm_english.wav,,,,,,,,,0,0,0,1,0,45,45,10,193.157139059,9.621726349E-06,194.078023335,0.920894218842,,,,z,1,0.900475923438,2018_Nov_13_1539,59.9849361106,chinese_cond2,1,1004
images/thumbtack02a.jpg,thumb tack,z,sounds/animalfarm_english.wav,,,,,,,,,0,0,0,1,0,46,46,60,195.18977055,8.6595537141E-06,195.995249747,0.805488497368,,,,z,1,0.783827072941,2018_Nov_13_1539,59.9849361106,chinese_cond2,1,1004
images/cat.jpg,black olive,x,sounds/animalfarm_english.wav,,,,,,,,,0,0,0,1,0,47,47,133,197.127534888,9.30100213736E-06,198.029068561,0.901543295127,,,,x,1,0.883811389445,2018_Nov_13_1539,59.9849361106,chinese_cond2,1,1004
images/leaf01a.jpg,leaf,z,sounds/animalfarm_english.wav,,,,,,,,,0,0,0,1,0,48,48,68,199.134379473,8.98027792573E-06,200.096249478,0.961879305542,,,,z,1,0.950456695864,2018_Nov_13_1539,59.9849361106,chinese_cond2,1,1004
images/kiwi03.jpg,backpack,x,sounds/animalfarm_english.wav,,,,,,,,,0,0,0,1,0,49,49,125,201.226869737,8.98039434105E-06,201.963621803,0.736761367065,,,,x,1,0.717291454435,2018_Nov_13_1539,59.9849361106,chinese_cond2,1,1004
images/knife04.jpg,tooth brush,x,sounds/animalfarm_english.wav,,,,,,,,,0,0,0,1,0,50,50,233,203.061718334,9.30100213736E-06,204.580784935,1.51907654386,,,,x,1,1.50063904398,2018_Nov_13_1539,59.9849361106,chinese_cond2,1,1004
images/battery03b.jpg,battery,z,sounds/animalfarm_english.wav,,,,,,,,,0,0,0,1,0,51,51,34,205.691578957,9.30100213736E-06,206.497936939,0.806367603713,,,,z,1,0.783755872049,2018_Nov_13_1539,59.9849361106,chinese_cond2,1,1004
images/flashlight05.jpg,flash light,z,sounds/animalfarm_english.wav,,,,,,,,,0,0,0,1,0,52,52,8,207.602031663,9.30100213736E-06,209.031933274,1.42991123302,,,,z,1,1.41702836391,2018_Nov_13_1539,59.9849361106,chinese_cond2,1,1004
images/diploma01.jpg,glasses,x,sounds/animalfarm_english.wav,,,,,,,,,0,0,0,1,0,53,53,179,210.165311445,9.30100213736E-06,210.899097128,0.733795625856,,,,x,1,0.717088756384,2018_Nov_13_1539,59.9849361106,chinese_cond2,1,1004
images/tape01a.jpg,tie,x,sounds/animalfarm_english.wav,,,,,,,,,0,0,0,1,0,54,54,232,212.026221167,8.98027792573E-06,212.882960186,0.856749282102,,,,x,1,0.833792129997,2018_Nov_13_1539,59.9849361106,chinese_cond2,1,1004
images/ladder.jpg,ladder,z,sounds/animalfarm_english.wav,,,,,,,,,0,0,0,1,0,55,55,113,213.977613096,9.621726349E-06,214.666758394,0.689155240078,,,,z,1,0.667086174479,2018_Nov_13_1539,59.9849361106,chinese_cond2,1,1004
images/lock02a.jpg,lock,z,sounds/animalfarm_english.wav,,,,,,,,,0,0,0,1,0,56,56,65,215.778795544,9.30100213736E-06,216.633949542,0.855163939996,,,,z,1,0.833804317517,2018_Nov_13_1539,59.9849361106,chinese_cond2,1,1004
images/masquerademask02b.jpg,mirror,x,sounds/animalfarm_english.wav,,,,,,,,,0,0,0,1,0,57,57,204,217.740575104,9.94245056063E-06,218.401057558,0.66049271659,,,,x,1,0.65040111437,2018_Nov_13_1539,59.9849361106,chinese_cond2,1,1004
images/eraser.jpg,eraser,z,sounds/animalfarm_english.wav,,,,,,,,,0,0,0,1,0,58,58,110,219.509654615,8.98027792573E-06,220.101505834,0.591860841378,,,,z,1,0.583722773357,2018_Nov_13_1539,59.9849361106,chinese_cond2,1,1004
images/apricot.jpg,apricot,z,sounds/animalfarm_english.wav,,,,,,,,,0,0,0,1,0,59,59,32,221.220526444,8.98027792573E-06,221.935325867,0.714808724588,,,,z,1,0.700414600782,2018_Nov_13_1539,59.9849361106,chinese_cond2,1,1004
images/fireextinguisher02.jpg,fire extinguisher,x,sounds/animalfarm_english.wav,,,,,,,,,0,0,0,1,0,60,60,175,223.047869763,8.98027792573E-06,223.819146558,0.771286417032,,,,z,0,0.75042423862,2018_Nov_13_1539,59.9849361106,chinese_cond2,1,1004
images/lily.jpg,kiwi,x,sounds/animalfarm_english.wav,,,,,,,,,0,0,0,1,0,61,61,190,224.920481126,9.30100213736E-06,225.819670622,0.899199118372,,,,x,1,0.883791504544,2018_Nov_13_1539,59.9849361106,chinese_cond2,1,1004
images/flipflop01b.jpg,flip flop,z,sounds/animalfarm_english.wav,,,,,,,,,0,0,0,1,0,62,62,27,226.938638312,9.30100213736E-06,228.553729563,1.61510119343,,,,x,0,1.60064645275,2018_Nov_13_1539,59.9849361106,chinese_cond2,1,1004
images/carrot02.jpg,corkscrew,x,sounds/animalfarm_english.wav,,,,,,,,,0,0,0,1,0,63,63,161,229.6575645,8.98039434105E-06,230.370874158,0.713319599978,,,,x,1,0.700421335991,2018_Nov_13_1539,59.9849361106,chinese_cond2,1,1004
images/hanger02a.jpg,hanger,z,sounds/animalfarm_english.wav,,,,,,,,,0,0,0,1,0,64,64,88,231.465875695,8.98027792573E-06,232.138010077,0.672144323587,,,,z,1,0.650400472805,2018_Nov_13_1539,59.9849361106,chinese_cond2,1,1004
images/eyedrops.jpg,bicycle,x,sounds/animalfarm_english.wav,,,,,,,,,0,0,0,1,0,65,65,131,233.240047673,8.98027792573E-06,234.038516148,0.798478417913,,,,x,1,0.78378056793,2018_Nov_13_1539,59.9849361106,chinese_cond2,1,1004
images/dolphin01.jpg,dolphin,z,sounds/animalfarm_english.wav,,,,,,,,,0,0,0,1,0,66,66,99,235.140319294,8.98027792573E-06,235.805626088,0.665316094994,,,,z,1,0.650399190024,2018_Nov_13_1539,59.9849361106,chinese_cond2,1,1004
images/teapot.jpg,light switch,x,sounds/animalfarm_english.wav,,,,,,,,,0,0,0,1,0,67,67,197,236.924508465,9.30111855268E-06,237.639447083,0.714948560577,,,,x,1,0.700412676437,2018_Nov_13_1539,59.9849361106,chinese_cond2,1,1004
images/pepper05a.jpg,lighter,x,sounds/animalfarm_english.wav,,,,,,,,,0,0,0,1,0,68,68,198,238.762517484,9.30100213736E-06,239.556614161,0.794106299058,,,,x,1,0.783753947704,2018_Nov_13_1539,59.9849361106,chinese_cond2,1,1004
images/paintbrush03a.jpg,paint brush,z,sounds/animalfarm_english.wav,,,,,,,,,0,0,0,1,0,69,69,0,240.65836118,9.621726349E-06,241.340416217,0.682064979454,,,,z,1,0.66707334551,2018_Nov_13_1539,59.9849361106,chinese_cond2,1,1004
images/notebook02b.jpg,notebook,z,sounds/animalfarm_english.wav,,,,,,,,,0,0,0,1,0,70,70,7,242.448988258,8.6595537141E-06,243.174219893,0.725241257111,,,,z,1,0.717079776106,2018_Nov_13_1539,59.9849361106,chinese_cond2,1,1004
images/panda.jpg,panda,z,sounds/animalfarm_english.wav,,,,,,,,,0,0,0,1,0,71,71,83,244.284991785,9.30100213736E-06,244.958023553,0.673041711096,,,,z,1,0.650395662058,2018_Nov_13_1539,59.9849361106,chinese_cond2,1,1004
images/flamingo.jpg,flamingo,z,sounds/animalfarm_english.wav,,,,,,,,,0,0,0,1,0,72,72,52,246.058449508,8.98039434105E-06,247.158604771,1.10016552603,,,,z,1,1.08384577127,2018_Nov_13_1539,59.9849361106,chinese_cond2,1,1004
images/mirror02.jpg,8 ball,x,sounds/animalfarm_english.wav,,,,,,,,,0,0,0,1,0,73,73,121,248.263754038,8.98027792573E-06,249.009099921,0.745356147061,,,,x,1,0.733762911987,2018_Nov_13_1539,59.9849361106,chinese_cond2,1,1004
images/diaper01a.jpg,camera,x,sounds/animalfarm_english.wav,,,,,,,,,0,0,0,1,0,74,74,143,250.131468897,8.98027792573E-06,250.842912899,0.711453944445,,,,x,1,0.700417808024,2018_Nov_13_1539,59.9849361106,chinese_cond2,1,1004
images/apple06.jpg,apple,z,sounds/animalfarm_english.wav,,,,,,,,,0,0,0,1,0,75,75,13,251.972199584,9.621726349E-06,252.593362795,0.62117347389,,,,z,1,0.600383137702,2018_Nov_13_1539,59.9849361106,chinese_cond2,1,1004
images/snowman.jpg,globe,x,sounds/animalfarm_english.wav,,,,,,,,,0,0,0,1,0,76,76,180,253.70615012,9.30100213736E-06,254.977326369,1.27118619066,,,,x,1,1.25056423491,2018_Nov_13_1539,59.9849361106,chinese_cond2,1,1004
images/antelope.jpg,antelope,z,sounds/animalfarm_english.wav,,,,,,,,,0,0,0,1,0,77,77,12,256.083474693,8.98027792573E-06,258.144824193,2.06135880144,,,,z,1,2.0507662273,2018_Nov_13_1539,59.9849361106,chinese_cond2,1,1004
images/cactus.jpg,cactus,z,sounds/animalfarm_english.wav,,,,,,,,,0,0,0,1,0,78,78,70,259.258390238,9.30100213736E-06,261.362359238,2.10397862177,,,,z,1,2.08413570642,2018_Nov_13_1539,59.9849361106,chinese_cond2,1,1004
images/candle08a.jpg,screw driver,x,sounds/animalfarm_english.wav,,,,,,,,,0,0,0,1,0,79,79,221,262.477497475,9.621726349E-06,263.129462443,0.651974910405,,,,x,1,0.633725996595,2018_Nov_13_1539,59.9849361106,chinese_cond2,1,1004
images/weight01.jpg,weight,z,sounds/animalfarm_english.wav,,,,,,,,,0,0,0,1,0,80,80,67,264.235629369,9.621726349E-06,264.979938671,0.744319885736,,,,z,1,0.733753931709,2018_Nov_13_1539,59.9849361106,chinese_cond2,1,1004
images/radio03a.jpg,radio,z,sounds/animalfarm_english.wav,,,,,,,,,0,0,0,1,0,81,81,37,266.095490322,8.98027792573E-06,266.963791466,0.86831076548,,,,z,1,0.850436137524,2018_Nov_13_1539,59.9849361106,chinese_cond2,1,1004
images/donut.jpg,rhinoceros,x,sounds/animalfarm_english.wav,,,,,,,,,0,0,0,1,0,82,82,216,268.092255814,8.98027792573E-06,268.880971693,0.788725821767,,,,x,1,0.767098394106,2018_Nov_13_1539,59.9849361106,chinese_cond2,1,1004
images/lipstick04.jpg,lipstick,z,sounds/animalfarm_english.wav,,,,,,,,,0,0,0,1,0,83,83,56,269.98271775,9.30100213736E-06,270.664779202,0.682071073214,,,,z,1,0.667070458992,2018_Nov_13_1539,59.9849361106,chinese_cond2,1,1004
images/icecube02 (2).jpg,aloe,x,sounds/animalfarm_english.wav,,,,,,,,,0,0,0,1,0,84,84,122,271.777388525,9.621726349E-06,272.715313866,0.937935283524,,,,x,1,0.917139495024,2018_Nov_13_1539,59.9849361106,chinese_cond2,1,1004
images/umbrella01.jpg,umbrella,z,sounds/animalfarm_english.wav,,,,,,,,,0,0,0,1,0,85,85,53,273.830190392,3.8486905396E-05,274.815858168,0.985687981709,,,,z,1,0.967140793917,2018_Nov_13_1539,59.9849361106,chinese_cond2,1,1004
images/beachumbrella01.jpg,beach umbrella,z,sounds/animalfarm_english.wav,,,,,,,,,0,0,0,1,0,86,86,92,275.923618134,8.98027792573E-06,276.649978399,0.72637084953,,,,z,1,0.717330262065,2018_Nov_13_1539,59.9849361106,chinese_cond2,1,1004
images/grasshopper.jpg,cauliflower,x,sounds/animalfarm_english.wav,,,,,,,,,0,0,0,1,0,87,87,148,277.744826631,9.621726349E-06,278.466822795,0.722006427939,,,,x,1,0.700421656831,2018_Nov_13_1539,59.9849361106,chinese_cond2,1,1004
images/dreamcatcher.jpg,dream catcher,z,sounds/animalfarm_english.wav,,,,,,,,,0,0,0,1,0,88,88,48,279.567153174,9.30100213736E-06,280.517354252,0.950211341493,,,,z,1,0.93381012266,2018_Nov_13_1539,59.9849361106,chinese_cond2,1,1004
images/watermelon01.jpg,orange,x,sounds/animalfarm_english.wav,,,,,,,,,0,0,0,1,0,89,89,207,281.648435072,8.98027792573E-06,282.334543428,0.686118297977,,,,x,1,0.667110870359,2018_Nov_13_1539,59.9849361106,chinese_cond2,1,1004
images/button07.jpg,radish,x,sounds/animalfarm_english.wav,,,,,,,,,0,0,0,1,0,90,90,215,283.448208897,9.621726349E-06,284.518407512,1.07020823692,,,,x,1,1.05050355382,2018_Nov_13_1539,59.9849361106,chinese_cond2,1,1004
images/cherry01.jpg,highlighter,x,sounds/animalfarm_english.wav,,,,,,,,,0,0,0,1,0,91,91,187,285.629961972,9.94245056063E-06,287.719269684,2.08931861725,,,,x,1,2.06745898491,2018_Nov_13_1539,59.9849361106,chinese_cond2,1,1004
images/gamecontroller01.jpg,game controller,z,sounds/animalfarm_english.wav,,,,,,,,,0,0,0,1,0,92,92,112,288.841073222,9.30100213736E-06,289.669763584,0.828699984238,,,,x,0,0.817117974395,2018_Nov_13_1539,59.9849361106,chinese_cond2,1,1004
images/cola.jpg,comb,x,sounds/animalfarm_english.wav,,,,,,,,,0,0,0,1,0,93,93,157,290.792684847,8.98027792573E-06,291.520252641,0.727578057209,,,,x,1,0.717096453765,2018_Nov_13_1539,59.9849361106,chinese_cond2,1,1004
images/parkfountain.jpg,park fountain,z,sounds/animalfarm_english.wav,,,,,,,,,0,0,0,1,0,94,94,93,292.642371772,8.98027792573E-06,293.454090667,0.811728196102,,,,z,1,0.800452157739,2018_Nov_13_1539,59.9849361106,chinese_cond2,1,1004
images/giraffe.jpg,lettuce,x,sounds/animalfarm_english.wav,,,,,,,,,0,0,0,1,0,95,95,195,294.556634367,9.94245056063E-06,295.28790172,0.731277295621,,,,x,1,0.717086832039,2018_Nov_13_1539,59.9849361106,chinese_cond2,1,1004
images/bicycle.jpg,hand bag,x,sounds/animalfarm_english.wav,,,,,,,,,0,0,0,1,0,96,96,186,296.400118155,9.621726349E-06,297.105048239,0.704940667492,,,,x,1,0.683746218216,2018_Nov_13_1539,59.9849361106,chinese_cond2,1,1004
images/plant01.jpg,plant,z,sounds/animalfarm_english.wav,,,,,,,,,0,0,0,1,0,97,97,47,298.218803511,9.94256697595E-06,298.872172932,0.653379043099,,,,z,1,0.633724713698,2018_Nov_13_1539,59.9849361106,chinese_cond2,1,1004
images/computermouse02a.jpg,world map,x,sounds/animalfarm_english.wav,,,,,,,,,0,0,0,1,0,98,98,239,299.976124934,8.98027792573E-06,301.989667213,2.01355158014,,,,x,1,2.00075145788,2018_Nov_13_1539,59.9849361106,chinese_cond2,1,1004
images/bowl02b (1).jpg,bowl,z,sounds/animalfarm_english.wav,,,,,,,,,0,0,0,1,0,99,99,24,303.109261278,9.621726349E-06,303.723453217,0.614202202181,,,,z,1,0.600395645946,2018_Nov_13_1539,59.9849361106,chinese_cond2,1,1004
images/tank.jpg,wallet,x,sounds/animalfarm_english.wav,,,,,,,,,0,0,0,1,0,100,100,237,304.829305833,9.30111855268E-06,305.457231845,0.62793563318,,,,z,0,0.617058896925,2018_Nov_13_1539,59.9849361106,chinese_cond2,1,1004
images/remotecontrol01c.jpg,remote control,z,sounds/animalfarm_english.wav,,,,,,,,,0,0,0,1,0,101,101,85,306.569014981,9.30100213736E-06,307.307718336,0.738713297411,,,,z,1,0.7170823419,2018_Nov_13_1539,59.9849361106,chinese_cond2,1,1004
images/dice05a.jpg,band aid,x,sounds/animalfarm_english.wav,,,,,,,,,0,0,0,1,0,102,102,126,308.421936414,9.94256697595E-06,309.224891507,0.802965035662,,,,x,1,0.783767738845,2018_Nov_13_1539,59.9849361106,chinese_cond2,1,1004
images/spoon02b.jpg,spoon,z,sounds/animalfarm_english.wav,,,,,,,,,0,0,0,1,0,103,103,38,310.318557868,9.621726349E-06,311.458834506,1.14028690103,,,,z,1,1.11721525027,2018_Nov_13_1539,59.9849361106,chinese_cond2,1,1004
images/birthdaycandle.jpg,birthday candle,z,sounds/animalfarm_english.wav,,,,,,,,,0,0,0,1,0,104,104,55,312.557076004,9.621726349E-06,313.425991336,0.868925274001,,,,z,1,0.850446721306,2018_Nov_13_1539,59.9849361106,chinese_cond2,1,1004
images/drink.jpg,drink,z,sounds/animalfarm_english.wav,,,,,,,,,0,0,0,1,0,105,105,117,314.527909943,1.02631747723E-05,315.209806542,0.681906862184,,,,z,1,0.667086174479,2018_Nov_13_1539,59.9849361106,chinese_cond2,1,1004
images/ostrich.jpg,ostrich,z,sounds/animalfarm_english.wav,,,,,,,,,0,0,0,1,0,106,106,76,316.310764579,9.62184276432E-06,317.327019868,1.01626491093,,,,z,1,1.00050834869,2018_Nov_13_1539,59.9849361106,chinese_cond2,1,1004
images/hand01a.jpg,cupcake,x,sounds/animalfarm_english.wav,,,,,,,,,0,0,0,1,0,107,107,163,318.440861415,9.30100213736E-06,319.127494156,0.686642362154,,,,x,1,0.667092268239,2018_Nov_13_1539,59.9849361106,chinese_cond2,1,1004
images/toucan.jpg,toucan,z,sounds/animalfarm_english.wav,,,,,,,,,0,0,0,1,0,108,108,81,320.230112263,9.62184276432E-06,321.094675361,0.864573040162,,,,z,1,0.85047013429,2018_Nov_13_1539,59.9849361106,chinese_cond2,1,1004
images/triangleruler02.jpg,bottle of red wine,x,sounds/animalfarm_english.wav,,,,,,,,,0,0,0,1,0,109,109,134,322.20710572,9.621726349E-06,323.011837627,0.804741529515,,,,x,1,0.783758117235,2018_Nov_13_1539,59.9849361106,chinese_cond2,1,1004
images/dresser02.jpg,dresser,z,sounds/animalfarm_english.wav,,,,,,,,,0,0,0,1,0,110,110,87,324.13540932,9.621726349E-06,324.812303255,0.676903877873,,,,z,1,0.667082325905,2018_Nov_13_1539,59.9849361106,chinese_cond2,1,1004
images/blueberry02.jpg,blueberry,z,sounds/animalfarm_english.wav,,,,,,,,,0,0,0,1,0,111,111,46,325.926737502,8.98027792573E-06,326.496098545,0.569371305872,,,,z,1,0.550402365159,2018_Nov_13_1539,59.9849361106,chinese_cond2,1,1004
images/pouch01b.jpg,pouch,z,sounds/animalfarm_english.wav,,,,,,,,,0,0,0,1,0,112,112,25,327.60994811,9.621726349E-06,328.896717672,1.28677950404,,,,z,1,1.26724416355,2018_Nov_13_1539,59.9849361106,chinese_cond2,1,1004
images/coffeepot03b.jpg,coffee pot,z,sounds/animalfarm_english.wav,,,,,,,,,0,0,0,1,0,113,113,107,330.020095326,9.62184276432E-06,332.197797648,2.17771162302,,,,z,1,2.16769507027,2018_Nov_13_1539,59.9849361106,chinese_cond2,1,1004
images/glasses01b.jpg,calculator,x,sounds/animalfarm_english.wav,,,,,,,,,0,0,0,1,0,114,114,142,333.291975565,8.98027792573E-06,334.031401192,0.739435248659,,,,x,1,0.717103188974,2018_Nov_13_1539,59.9849361106,chinese_cond2,1,1004
images/scissors04a.jpg,leek,x,sounds/animalfarm_english.wav,,,,,,,,,0,0,0,1,0,115,115,194,335.127725077,8.98027792573E-06,336.148620291,1.02090451412,,,,x,1,1.00050482061,2018_Nov_13_1539,59.9849361106,chinese_cond2,1,1004
images/safe.jpg,safe,z,sounds/animalfarm_english.wav,,,,,,,,,0,0,0,1,0,116,116,78,337.261360149,9.621726349E-06,338.232497493,0.971147928154,,,,z,1,0.950491975644,2018_Nov_13_1539,59.9849361106,chinese_cond2,1,1004
images/puzzle.jpg,puzzle,z,sounds/animalfarm_english.wav,,,,,,,,,0,0,0,1,0,117,117,57,339.355134273,9.94245056063E-06,340.349723006,0.994599637692,,,,z,1,0.983830023673,2018_Nov_13_1539,59.9849361106,chinese_cond2,1,1004
images/cigar.jpg,crocodile,x,sounds/animalfarm_english.wav,,,,,,,,,0,0,0,1,0,118,118,162,341.44989206,9.30100213736E-06,342.233541131,0.783658692497,,,,x,1,0.767093262519,2018_Nov_13_1539,59.9849361106,chinese_cond2,1,1004
images/gps.jpg,gps,z,sounds/animalfarm_english.wav,,,,,,,,,0,0,0,1,0,119,119,21,343.353799417,9.30100213736E-06,344.367453308,1.01366543735,,,,z,1,1.00049904757,2018_Nov_13_1539,59.9849361106,chinese_cond2,1,1004
images/scooter.jpg,pen,x,sounds/animalfarm_english.wav,,,,,,,,,0,0,0,1,0,120,120,212,345.462240281,9.621726349E-06,346.201271738,0.739041719586,,,,x,1,0.717112489976,2018_Nov_13_1539,59.9849361106,chinese_cond2,1,1004
images/handfan01b.jpg,handfan,z,sounds/animalfarm_english.wav,,,,,,,,,0,0,0,1,0,121,121,69,347.318237785,9.30100213736E-06,348.151776542,0.833548379247,,,,x,0,0.817129841191,2018_Nov_13_1539,59.9849361106,chinese_cond2,1,1004
images/hat05.jpg,hat,z,sounds/animalfarm_english.wav,,,,,,,,,0,0,0,1,0,122,122,15,349.257339544,8.98027792573E-06,349.918898349,0.661568747833,,,,z,1,0.650414905511,2018_Nov_13_1539,59.9849361106,chinese_cond2,1,1004
images/arrow02.jpg,hammer,x,sounds/animalfarm_english.wav,,,,,,,,,0,0,0,1,0,123,123,184,351.018081816,9.30100213736E-06,351.652686598,0.634614724666,,,,x,1,0.617070122273,2018_Nov_13_1539,59.9849361106,chinese_cond2,1,1004
images/electricguitar02.jpg,electric guitar,z,sounds/animalfarm_english.wav,,,,,,,,,0,0,0,1,0,124,124,100,352.756741553,8.98027792573E-06,353.519846283,0.763114672853,,,,z,1,0.75044476497,2018_Nov_13_1539,59.9849361106,chinese_cond2,1,1004
images/globe.jpg,cloud,x,sounds/animalfarm_english.wav,,,,,,,,,0,0,0,1,0,125,125,154,354.649779871,9.621726349E-06,355.637088795,0.98731886677,,,,x,1,0.96719082701,2018_Nov_13_1539,59.9849361106,chinese_cond2,1,1004
images/parkbench03.jpg,park bench,z,sounds/animalfarm_english.wav,,,,,,,,,0,0,0,1,0,126,126,71,356.744759278,9.30100213736E-06,357.954341955,1.20959293947,,,,z,1,1.20056389808,2018_Nov_13_1539,59.9849361106,chinese_cond2,1,1004
images/cockroach02.jpg,belt,x,sounds/animalfarm_english.wav,,,,,,,,,0,0,0,1,0,127,127,129,359.056932159,8.6595537141E-06,359.854834235,0.797912018141,,,,x,1,0.783781209379,2018_Nov_13_1539,59.9849361106,chinese_cond2,1,1004
images/tie01.jpg,bench,x,sounds/animalfarm_english.wav,,,,,,,,,0,0,0,1,0,128,128,130,360.955409326,9.30100213736E-06,363.456010204,2.5006114617,,,,x,1,2.48445463495,2018_Nov_13_1539,59.9849361106,chinese_cond2,1,1004
images/candy.jpg,candy,z,sounds/animalfarm_english.wav,,,,,,,,,0,0,0,1,0,129,129,31,364.559994278,9.62184276432E-06,365.206262214,0.646277877851,,,,z,1,0.633768973639,2018_Nov_13_1539,59.9849361106,chinese_cond2,1,1004
images/bowlingball.jpg,bowling ball,z,sounds/animalfarm_english.wav,,,,,,,,,0,0,0,1,0,130,130,20,366.340131414,9.30100213736E-06,367.090066547,0.749945396557,,,,z,1,0.733767402126,2018_Nov_13_1539,59.9849361106,chinese_cond2,1,1004
images/beermug01b.jpg,beer mug,z,sounds/animalfarm_english.wav,,,,,,,,,0,0,0,1,0,131,131,111,368.209009541,8.98027792573E-06,369.440691752,1.2316918323,,,,z,1,1.21723933658,2018_Nov_13_1539,59.9849361106,chinese_cond2,1,1004
images/table02.jpg,table,z,sounds/animalfarm_english.wav,,,,,,,,,0,0,0,1,0,132,132,49,370.557373958,8.98027792573E-06,371.174470379,0.617106043501,,,,z,1,0.600394683774,2018_Nov_13_1539,59.9849361106,chinese_cond2,1,1004
images/cheetah.jpg,cheetah,z,sounds/animalfarm_english.wav,,,,,,,,,0,0,0,1,0,133,133,82,372.279273584,9.30100213736E-06,372.975181683,0.695918040699,,,,z,1,0.683996704291,2018_Nov_13_1539,59.9849361106,chinese_cond2,1,1004
images/rubberglove02a.jpg,lady bug,x,sounds/animalfarm_english.wav,,,,,,,,,0,0,0,1,0,134,134,192,374.081939063,9.621726349E-06,374.758744158,0.676815357758,,,,x,1,0.667083608801,2018_Nov_13_1539,59.9849361106,chinese_cond2,1,1004
images/lightswitch02a.jpg,fork,x,sounds/animalfarm_english.wav,,,,,,,,,0,0,0,1,0,135,135,177,375.872199873,9.30100213736E-06,376.625920841,0.753730910015,,,,x,1,0.733787928475,2018_Nov_13_1539,59.9849361106,chinese_cond2,1,1004
images/parrot01.jpg,chameleon,x,sounds/animalfarm_english.wav,,,,,,,,,0,0,0,1,0,136,136,150,377.741180953,8.98027792573E-06,378.959850722,1.2186793905,,,,z,0,1.20055684214,2018_Nov_13_1539,59.9849361106,chinese_cond2,1,1004
images/dryingmachine01.jpg,drying machine,z,sounds/animalfarm_english.wav,,,,,,,,,0,0,0,1,0,137,137,18,380.08309271,8.98027792573E-06,381.943973567,1.86089080002,,,,z,1,1.85073280777,2018_Nov_13_1539,59.9849361106,chinese_cond2,1,1004
images/parkingmeter.jpg,ear,x,sounds/animalfarm_english.wav,,,,,,,,,0,0,0,1,0,138,138,171,383.048020183,8.98027792573E-06,383.977830227,0.929819986806,,,,x,1,0.917151682544,2018_Nov_13_1539,59.9849361106,chinese_cond2,1,1004
images/crocodile.jpg,triangle ruler,x,sounds/animalfarm_english.wav,,,,,,,,,0,0,0,1,0,139,139,235,385.076351718,9.30100213736E-06,385.828318322,0.751976546017,,,,x,1,0.733768364298,2018_Nov_13_1539,59.9849361106,chinese_cond2,1,1004
images/corn01.jpg,corn,z,sounds/animalfarm_english.wav,,,,,,,,,0,0,0,1,0,140,140,22,386.930028458,8.98027792573E-06,387.778834031,0.848815194913,,,,z,1,0.833789243479,2018_Nov_13_1539,59.9849361106,chinese_cond2,1,1004
images/lychee02a.jpg,lychee,z,sounds/animalfarm_english.wav,,,,,,,,,0,0,0,1,0,141,141,62,388.905039836,8.98027792573E-06,389.56263288,0.657602666412,,,,z,1,0.633741070633,2018_Nov_13_1539,59.9849361106,chinese_cond2,1,1004
images/cloud.jpg,ceiling fan,x,sounds/animalfarm_english.wav,,,,,,,,,0,0,0,1,0,142,142,149,390.671294724,8.98027792573E-06,391.563153096,0.891868635081,,,,x,1,0.883802088443,2018_Nov_13_1539,59.9849361106,chinese_cond2,1,1004
images/honeycomb.jpg,honey comb,z,sounds/animalfarm_english.wav,,,,,,,,,0,0,0,1,0,143,143,59,392.677904539,8.98027792573E-06,393.580361258,0.90246794431,,,,z,1,0.883806578699,2018_Nov_13_1539,59.9849361106,chinese_cond2,1,1004
images/doorhandle.jpg,doll,x,sounds/animalfarm_english.wav,,,,,,,,,0,0,0,1,0,144,144,168,394.684173744,3.8486905396E-05,395.647559494,0.963405955001,,,,x,1,0.950494862045,2018_Nov_13_1539,59.9849361106,chinese_cond2,1,1004
images/shotglass.jpg,shot glass,z,sounds/animalfarm_english.wav,,,,,,,,,0,0,0,1,0,145,145,86,396.758102388,9.30100213736E-06,397.514725272,0.75663282699,,,,z,1,0.733776703244,2018_Nov_13_1539,59.9849361106,chinese_cond2,1,1004
images/bracelet02a.jpg,chess knight,x,sounds/animalfarm_english.wav,,,,,,,,,0,0,0,1,0,146,146,152,398.625103955,8.6595537141E-06,399.365206632,0.740112298517,,,,x,1,0.717098378227,2018_Nov_13_1539,59.9849361106,chinese_cond2,1,1004
images/ashtray02b.jpg,ashtray,z,sounds/animalfarm_english.wav,,,,,,,,,0,0,0,1,0,147,147,43,400.480034407,9.30100213736E-06,401.582454949,1.10243080452,,,,z,1,1.08386501472,2018_Nov_13_1539,59.9849361106,chinese_cond2,1,1004
images/wallet01.jpg,lamp,x,sounds/animalfarm_english.wav,,,,,,,,,0,0,0,1,0,148,148,193,402.741743504,8.98027792573E-06,403.549644493,0.807911251672,,,,x,1,0.783781209262,2018_Nov_13_1539,59.9849361106,chinese_cond2,1,1004
images/hammer02a.jpg,flower,x,sounds/animalfarm_english.wav,,,,,,,,,0,0,0,1,0,149,149,176,404.6468895,9.30111855268E-06,405.383615266,0.736735709128,,,,x,1,0.717264834209,2018_Nov_13_1539,59.9849361106,chinese_cond2,1,1004
images/radish01.jpg,raisin,x,sounds/animalfarm_english.wav,,,,,,,,,0,0,0,1,0,150,150,214,406.496081225,9.621726349E-06,407.817422342,1.32135105913,,,,x,1,1.30058189086,2018_Nov_13_1539,59.9849361106,chinese_cond2,1,1004
images/highheelshoe02a.jpg,high heel shoe,z,sounds/animalfarm_english.wav,,,,,,,,,0,0,0,1,0,151,151,75,408.926627173,8.98027792573E-06,409.684571122,0.757953891996,,,,z,1,0.733756818227,2018_Nov_13_1539,59.9849361106,chinese_cond2,1,1004
images/bull.jpg,button,x,sounds/animalfarm_english.wav,,,,,,,,,0,0,0,1,0,152,152,141,410.792769198,1.02632911876E-05,411.468375103,0.675616489025,,,,x,1,0.6670877781,2018_Nov_13_1539,59.9849361106,chinese_cond2,1,1004
images/electrictoothbrush01a.jpg,banjo,x,sounds/animalfarm_english.wav,,,,,,,,,0,0,0,1,0,153,153,127,412.565907479,9.621726349E-06,413.31886416,0.75296726462,,,,x,1,0.733770609368,2018_Nov_13_1539,59.9849361106,chinese_cond2,1,1004
images/tulip02.jpg,sport shorts,x,sounds/animalfarm_english.wav,,,,,,,,,0,0,0,1,0,154,154,225,414.415097601,9.30100213736E-06,415.052660107,0.637572768377,,,,x,1,0.617075574584,2018_Nov_13_1539,59.9849361106,chinese_cond2,1,1004
images/50dollarbill.jpg,cherry,x,sounds/animalfarm_english.wav,,,,,,,,,0,0,0,1,0,155,155,151,416.17519201,8.98027792573E-06,416.903254682,0.728088330128,,,,x,1,0.717109603458,2018_Nov_13_1539,59.9849361106,chinese_cond2,1,1004
images/lion.jpg,lion,z,sounds/animalfarm_english.wav,,,,,,,,,0,0,0,1,0,156,156,44,418.017358903,9.621726349E-06,418.9536803,0.936331339413,,,,z,1,0.917152965441,2018_Nov_13_1539,59.9849361106,chinese_cond2,1,1004
images/corkscrew02a.jpg,masquerade mask,x,sounds/animalfarm_english.wav,,,,,,,,,0,0,0,1,0,157,157,201,420.060363593,8.98027792573E-06,420.870838718,0.810485067195,,,,x,1,0.800445422414,2018_Nov_13_1539,59.9849361106,chinese_cond2,1,1004
images/dragonfly02.jpg,dragon fly,z,sounds/animalfarm_english.wav,,,,,,,,,0,0,0,1,0,158,158,29,421.970455163,9.30100213736E-06,422.788016699,0.817571479012,,,,z,1,0.800451516174,2018_Nov_13_1539,59.9849361106,chinese_cond2,1,1004
images/bus.jpg,microphone,x,sounds/animalfarm_english.wav,,,,,,,,,0,0,0,1,0,159,159,203,423.908021613,8.98027792573E-06,424.605154559,0.697142888326,,,,x,1,0.683757443563,2018_Nov_13_1539,59.9849361106,chinese_cond2,1,1004
images/lamp04b.jpg,parking meter,x,sounds/animalfarm_english.wav,,,,,,,,,0,0,0,1,0,160,160,209,425.728006866,8.98027792573E-06,426.555672834,0.827675910317,,,,x,1,0.817130803363,2018_Nov_13_1539,59.9849361106,chinese_cond2,1,1004
images/baseball01a.jpg,baseball,z,sounds/animalfarm_english.wav,,,,,,,,,0,0,0,1,0,161,161,74,427.689966032,8.98027792573E-06,428.772922434,1.08296602347,,,,x,0,1.06719374564,2018_Nov_13_1539,59.9849361106,chinese_cond2,1,1004
images/microphone01.jpg,diaper,x,sounds/animalfarm_english.wav,,,,,,,,,0,0,0,1,0,162,162,164,429.874740013,9.30100213736E-06,430.506702665,0.631972915493,,,,x,1,0.617068197927,2018_Nov_13_1539,59.9849361106,chinese_cond2,1,1004
images/lettuce.jpg,mushroom,x,sounds/animalfarm_english.wav,,,,,,,,,0,0,0,1,0,163,163,205,431.632714752,2.56579369307E-05,432.373866198,0.741177425254,,,,x,1,0.717101585353,2018_Nov_13_1539,59.9849361106,chinese_cond2,1,1004
images/lantern03.jpg,lantern,z,sounds/animalfarm_english.wav,,,,,,,,,0,0,0,1,0,164,164,5,433.482638371,9.621726349E-06,434.341050931,0.858422502875,,,,z,1,0.850469813566,2018_Nov_13_1539,59.9849361106,chinese_cond2,1,1004
images/ruler02b.jpg,watermelon,x,sounds/animalfarm_english.wav,,,,,,,,,0,0,0,1,0,165,165,238,435.445455476,9.30100213736E-06,436.191548648,0.746103114914,,,,x,1,0.733790814993,2018_Nov_13_1539,59.9849361106,chinese_cond2,1,1004
images/ladybug03.jpg,giraffe,x,sounds/animalfarm_english.wav,,,,,,,,,0,0,0,1,0,166,166,178,437.296965399,9.30100213736E-06,438.275418153,0.978462375351,,,,x,1,0.967170300661,2018_Nov_13_1539,59.9849361106,chinese_cond2,1,1004
images/sportshorts02.jpg,tape,x,sounds/animalfarm_english.wav,,,,,,,,,0,0,0,1,0,167,167,230,439.385587082,9.621726349E-06,440.209267083,0.823690264602,,,,x,1,0.80046338297,2018_Nov_13_1539,59.9849361106,chinese_cond2,1,1004
images/binder03b.jpg,dj mixer,x,sounds/animalfarm_english.wav,,,,,,,,,0,0,0,1,0,168,168,167,441.324351759,9.30100213736E-06,442.226463699,0.90212188242,,,,x,1,0.88376680878,2018_Nov_13_1539,59.9849361106,chinese_cond2,1,1004
images/screw03c.jpg,screw,z,sounds/animalfarm_english.wav,,,,,,,,,0,0,0,1,0,169,169,84,443.322426128,9.30100213736E-06,444.31038901,0.987972824369,,,,z,1,0.967224823777,2018_Nov_13_1539,59.9849361106,chinese_cond2,1,1004
images/worldmap.jpg,scooter,x,sounds/animalfarm_english.wav,,,,,,,,,0,0,0,1,0,170,170,220,445.444199518,9.621726349E-06,446.094144562,0.649954986293,,,,x,1,0.633756144671,2018_Nov_13_1539,59.9849361106,chinese_cond2,1,1004
images/chameleon.jpg,50 dollar bill,x,sounds/animalfarm_english.wav,,,,,,,,,0,0,0,1,0,171,171,120,447.208826728,8.98027792573E-06,447.861277273,0.652459846111,,,,x,1,0.633745881496,2018_Nov_13_1539,59.9849361106,chinese_cond2,1,1004
images/hairpin.jpg,hair pin,z,sounds/animalfarm_english.wav,,,,,,,,,0,0,0,1,0,172,172,28,448.954670056,9.30100213736E-06,449.845115315,0.890455522109,,,,z,1,0.86712889513,2018_Nov_13_1539,59.9849361106,chinese_cond2,1,1004
images/nailpolish02b.jpg,nail polish,z,sounds/animalfarm_english.wav,,,,,,,,,0,0,0,1,0,173,173,94,450.956132561,8.98039434105E-06,451.995675028,1.03955240955,,,,z,1,1.01717544824,2018_Nov_13_1539,59.9849361106,chinese_cond2,1,1004
images/printer03a.jpg,printer,z,sounds/animalfarm_english.wav,,,,,,,,,0,0,0,1,0,174,174,72,453.106750324,9.30100213736E-06,453.779478367,0.672737984918,,,,z,1,0.650412339717,2018_Nov_13_1539,59.9849361106,chinese_cond2,1,1004
images/butterfly.jpg,butterfly,z,sounds/animalfarm_english.wav,,,,,,,,,0,0,0,1,0,175,175,91,454.88905171,9.621726349E-06,455.846690394,0.957648626179,,,,z,1,0.933821027284,2018_Nov_13_1539,59.9849361106,chinese_cond2,1,1004
images/croissant02b.jpg,croissant,z,sounds/animalfarm_english.wav,,,,,,,,,0,0,0,1,0,176,176,39,456.959804858,8.6595537141E-06,457.813875127,0.854079569806,,,,z,1,0.833800789551,2018_Nov_13_1539,59.9849361106,chinese_cond2,1,1004
images/plate01b.jpg,plate,z,sounds/animalfarm_english.wav,,,,,,,,,0,0,0,1,0,177,177,3,458.915657426,9.621726349E-06,459.4976454,0.58199791587,,,,z,1,0.567050862825,2018_Nov_13_1539,59.9849361106,chinese_cond2,1,1004
images/chessknight02b (1).jpg,cockroach,x,sounds/animalfarm_english.wav,,,,,,,,,0,0,0,1,0,178,178,155,460.609024423,8.98027792573E-06,461.231450327,0.622435525525,,,,x,1,0.600396287395,2018_Nov_13_1539,59.9849361106,chinese_cond2,1,1004
images/volleyball.jpg,volley ball,z,sounds/animalfarm_english.wav,,,,,,,,,0,0,0,1,0,179,179,2,462.36509534,9.94245056063E-06,463.03202885,0.666943451972,,,,z,1,0.650526196929,2018_Nov_13_1539,59.9849361106,chinese_cond2,1,1004
images/highlighter03b.jpg,coin,x,sounds/animalfarm_english.wav,,,,,,,,,0,0,0,1,0,180,180,156,464.135759872,8.98027792573E-06,464.782366493,0.646616563085,,,,x,1,0.633749088738,2018_Nov_13_1539,59.9849361106,chinese_cond2,1,1004
images/aquarium.jpg,computer mouse,x,sounds/animalfarm_english.wav,,,,,,,,,0,0,0,1,0,181,181,159,465.919670334,9.30100213736E-06,467.049620599,1.12996052846,,,,x,1,1.11718766787,2018_Nov_13_1539,59.9849361106,chinese_cond2,1,1004
images/backpack01b.jpg,swallow,x,sounds/animalfarm_english.wav,,,,,,,,,0,0,0,1,0,182,182,228,468.182138586,9.621726349E-06,469.63363908,1.45151075756,,,,x,1,1.4339414594,2018_Nov_13_1539,59.9849361106,chinese_cond2,1,1004
images/sock03.jpg,sock,z,sounds/animalfarm_english.wav,,,,,,,,,0,0,0,1,0,183,183,90,470.741896811,9.30100213736E-06,471.434130046,0.692244780948,,,,z,1,0.683733389247,2018_Nov_13_1539,59.9849361106,chinese_cond2,1,1004
images/broom02.jpg,broom,z,sounds/animalfarm_english.wav,,,,,,,,,0,0,0,1,0,184,184,116,472.529905492,9.30100213736E-06,473.351283332,0.821387461387,,,,z,1,0.800452157622,2018_Nov_13_1539,59.9849361106,chinese_cond2,1,1004
images/banana04a.jpg,banana,z,sounds/animalfarm_english.wav,,,,,,,,,0,0,0,1,0,185,185,118,474.459052278,9.94245056063E-06,474.935028556,0.475986541132,,,,z,1,0.466992458794,2018_Nov_13_1539,59.9849361106,chinese_cond2,1,1004
images/bullet (2).jpg,rubber glove,x,sounds/animalfarm_english.wav,,,,,,,,,0,0,0,1,0,186,186,217,476.042532904,9.30100213736E-06,476.568793039,0.526270077797,,,,x,1,0.517049243092,2018_Nov_13_1539,59.9849361106,chinese_cond2,1,1004
images/aloe02.jpg,broad sword,x,sounds/animalfarm_english.wav,,,,,,,,,0,0,0,1,0,187,187,137,477.691834574,9.30100213736E-06,478.352590606,0.660765973968,,,,x,1,0.65041105682,2018_Nov_13_1539,59.9849361106,chinese_cond2,1,1004
images/desktopcomputer.jpg,desktop computer,z,sounds/animalfarm_english.wav,,,,,,,,,0,0,0,1,0,188,188,16,479.490661299,9.621726349E-06,480.136394586,0.645743550383,,,,z,1,0.633744277875,2018_Nov_13_1539,59.9849361106,chinese_cond2,1,1004
images/licenseplate.jpg,license plate,z,sounds/animalfarm_english.wav,,,,,,,,,0,0,0,1,0,189,189,40,481.255795896,8.98027792573E-06,482.220280448,0.964494173881,,,,z,1,0.950493258541,2018_Nov_13_1539,59.9849361106,chinese_cond2,1,1004
images/leek.jpg,donut,x,sounds/animalfarm_english.wav,,,,,,,,,0,0,0,1,0,190,190,169,483.323305555,9.30100213736E-06,483.970727779,0.647432165919,,,,x,1,0.633740749909,2018_Nov_13_1539,59.9849361106,chinese_cond2,1,1004
images/bed.jpg,bed,z,sounds/animalfarm_english.wav,,,,,,,,,0,0,0,1,0,191,191,103,485.092355239,8.98027792573E-06,485.787877505,0.695531888283,,,,z,1,0.683749104734,2018_Nov_13_1539,59.9849361106,chinese_cond2,1,1004
images/skateboard.jpg,key,x,sounds/animalfarm_english.wav,,,,,,,,,0,0,0,1,0,192,192,189,486.880949884,9.30100213736E-06,487.771738318,0.890799338929,,,,x,1,0.867146214237,2018_Nov_13_1539,59.9849361106,chinese_cond2,1,1004
images/key03b.jpg,cigar,x,sounds/animalfarm_english.wav,,,,,,,,,0,0,0,1,0,193,193,153,488.875286207,9.621726349E-06,489.555537167,0.680260903086,,,,x,1,0.667097079218,2018_Nov_13_1539,59.9849361106,chinese_cond2,1,1004
images/lip.jpg,boxing glove,x,sounds/animalfarm_english.wav,,,,,,,,,0,0,0,1,0,194,194,136,490.660333316,9.62184276432E-06,491.589628598,0.929305544472,,,,x,1,0.91737907636,2018_Nov_13_1539,59.9849361106,chinese_cond2,1,1004
images/fork01.jpg,cooking pot,x,sounds/animalfarm_english.wav,,,,,,,,,0,0,0,1,0,195,195,160,492.685447663,9.30100213736E-06,493.639951904,0.954513863195,,,,x,1,0.933835780597,2018_Nov_13_1539,59.9849361106,chinese_cond2,1,1004
images/swallow.jpg,mattress,x,sounds/animalfarm_english.wav,,,,,,,,,0,0,0,1,0,196,196,202,494.743919621,8.6595537141E-06,495.440418494,0.696508815512,,,,x,1,0.683766744682,2018_Nov_13_1539,59.9849361106,chinese_cond2,1,1004
images/daisy.jpg,daisy,z,sounds/animalfarm_english.wav,,,,,,,,,0,0,0,1,0,197,197,6,496.543282598,8.98027792573E-06,497.324239826,0.78096685023,,,,z,1,0.767120203353,2018_Nov_13_1539,59.9849361106,chinese_cond2,1,1004
images/ant.jpg,ant,z,sounds/animalfarm_english.wav,,,,,,,,,0,0,0,1,0,198,198,98,498.420604444,9.621726349E-06,499.058024868,0.637430366594,,,,z,1,0.617067877203,2018_Nov_13_1539,59.9849361106,chinese_cond2,1,1004
images/pen03c.jpg,pepper,x,sounds/animalfarm_english.wav,,,,,,,,,0,0,0,1,0,199,199,211,500.153917379,9.621726349E-06,500.975195474,0.821288036765,,,,x,1,0.800456647761,2018_Nov_13_1539,59.9849361106,chinese_cond2,1,1004
images/bottleofredwine02.jpg,pipe,x,sounds/animalfarm_english.wav,,,,,,,,,0,0,0,1,0,200,200,213,502.07529012,9.30111855268E-06,502.942375396,0.867094898364,,,,x,1,0.850467247772,2018_Nov_13_1539,59.9849361106,chinese_cond2,1,1004
images/showerhead01.jpg,skateboard,x,sounds/animalfarm_english.wav,,,,,,,,,0,0,0,1,0,201,201,223,504.05245356,8.98027792573E-06,504.742847118,0.69040382118,,,,x,1,0.667085533147,2018_Nov_13_1539,59.9849361106,chinese_cond2,1,1004
images/axe01.jpg,axe,z,sounds/animalfarm_english.wav,,,,,,,,,0,0,0,1,0,202,202,104,505.848273491,9.621726349E-06,506.409947404,0.561683535227,,,,x,0,0.550369330449,2018_Nov_13_1539,59.9849361106,chinese_cond2,1,1004
images/feather03b.jpg,feather,z,sounds/animalfarm_english.wav,,,,,,,,,0,0,0,1,0,203,203,114,507.5125158,9.621726349E-06,508.227099696,0.714593839017,,,,z,1,0.700430636993,2018_Nov_13_1539,59.9849361106,chinese_cond2,1,1004
images/flower01.jpg,bus,x,sounds/animalfarm_english.wav,,,,,,,,,0,0,0,1,0,204,204,140,509.34214781,9.30100213736E-06,509.960882814,0.618744625943,,,,x,1,0.600400136085,2018_Nov_13_1539,59.9849361106,chinese_cond2,1,1004
images/cocktailshrimp01.jpg,cocktail shrimp,z,sounds/animalfarm_english.wav,,,,,,,,,0,0,0,1,0,205,205,30,511.077920062,2.46958807111E-05,512.011427421,0.93353205442,,,,z,1,0.917150720372,2018_Nov_13_1539,59.9849361106,chinese_cond2,1,1004
images/lightbulb03b.jpg,treadmill,x,sounds/animalfarm_english.wav,,,,,,,,,0,0,0,1,0,206,206,234,513.117526674,9.30100213736E-06,515.395673232,2.27815585863,,,,x,1,2.26750459196,2018_Nov_13_1539,59.9849361106,chinese_cond2,1,1004
images/candycane01a.jpg,lip,x,sounds/animalfarm_english.wav,,,,,,,,,0,0,0,1,0,207,207,200,516.491770044,9.621726349E-06,517.179453158,0.687693056185,,,,x,1,0.667094513308,2018_Nov_13_1539,59.9849361106,chinese_cond2,1,1004
images/gluestick.jpg,squirrel,x,sounds/animalfarm_english.wav,,,,,,,,,0,0,0,1,0,208,208,226,518.288921945,8.98027792573E-06,519.079935817,0.791023814119,,,,x,1,0.767104487983,2018_Nov_13_1539,59.9849361106,chinese_cond2,1,1004
images/paperclip04.jpg,eye drops,x,sounds/animalfarm_english.wav,,,,,,,,,0,0,0,1,0,209,209,174,520.186993395,9.94245056063E-06,520.83040656,0.643423428177,,,,x,1,0.633748768014,2018_Nov_13_1539,59.9849361106,chinese_cond2,1,1004
images/nametag01a.jpg,name tag,z,sounds/animalfarm_english.wav,,,,,,,,,0,0,0,1,0,210,210,108,521.952487204,9.621726349E-06,522.73073463,0.778257688857,,,,x,0,0.766943484079,2018_Nov_13_1539,59.9849361106,chinese_cond2,1,1004
images/screwdriver02b.jpg,cola,x,sounds/animalfarm_english.wav,,,,,,,,,0,0,0,1,0,211,211,158,523.827021953,9.30100213736E-06,524.698236239,0.871224228526,,,,x,1,0.850616384647,2018_Nov_13_1539,59.9849361106,chinese_cond2,1,1004
images/razor04a.jpg,razor,z,sounds/animalfarm_english.wav,,,,,,,,,0,0,0,1,0,212,212,36,525.800065364,8.98027792573E-06,526.548600534,0.748544791946,,,,z,1,0.733794342959,2018_Nov_13_1539,59.9849361106,chinese_cond2,1,1004
images/seagull.jpg,seagull,z,sounds/animalfarm_english.wav,,,,,,,,,0,0,0,1,0,213,213,50,527.658549766,8.98027792573E-06,528.399055915,0.740515770158,,,,z,1,0.717100302572,2018_Nov_13_1539,59.9849361106,chinese_cond2,1,1004
images/pineapple01a.jpg,pineapple,z,sounds/animalfarm_english.wav,,,,,,,,,0,0,0,1,0,214,214,51,529.513798378,9.621726349E-06,530.1995379,0.685750747565,,,,z,1,0.667096437654,2018_Nov_13_1539,59.9849361106,chinese_cond2,1,1004
images/gorilla.jpg,gorilla,z,sounds/animalfarm_english.wav,,,,,,,,,0,0,0,1,0,215,215,80,531.312586295,8.98027792573E-06,532.066693736,0.754117062548,,,,z,1,0.733773495886,2018_Nov_13_1539,59.9849361106,chinese_cond2,1,1004
images/orange.jpg,bat,x,sounds/animalfarm_english.wav,,,,,,,,,0,0,0,1,0,216,216,128,533.1942623,9.30100213736E-06,533.950519879,0.756267842371,,,,x,1,0.733777023852,2018_Nov_13_1539,59.9849361106,chinese_cond2,1,1004
images/egg01b (1).jpg,egg,z,sounds/animalfarm_english.wav,,,,,,,,,0,0,0,1,0,217,217,19,535.06542078,9.621726349E-06,535.650978739,0.585568223032,,,,z,1,0.567075237865,2018_Nov_13_1539,59.9849361106,chinese_cond2,1,1004
images/basketball01.jpg,basket ball,z,sounds/animalfarm_english.wav,,,,,,,,,0,0,0,1,0,218,218,33,536.7927259,9.30100213736E-06,537.468096714,0.675380435539,,,,z,1,0.667083288077,2018_Nov_13_1539,59.9849361106,chinese_cond2,1,1004
images/8ball.jpg,nail clipper,x,sounds/animalfarm_english.wav,,,,,,,,,0,0,0,1,0,219,219,206,538.585806201,9.621726349E-06,539.335256399,0.749460140127,,,,x,1,0.733769967919,2018_Nov_13_1539,59.9849361106,chinese_cond2,1,1004
images/puma.jpg,puma,z,sounds/animalfarm_english.wav,,,,,,,,,0,0,0,1,0,220,220,4,540.434955912,9.30100213736E-06,541.535833446,1.10088747728,,,,z,1,1.08385988302,2018_Nov_13_1539,59.9849361106,chinese_cond2,1,1004
images/graduationcap.jpg,graduation cap,z,sounds/animalfarm_english.wav,,,,,,,,,0,0,0,1,0,221,221,35,542.640182185,9.30100213736E-06,543.386481583,0.746309661539,,,,z,1,0.733932254603,2018_Nov_13_1539,59.9849361106,chinese_cond2,1,1004
images/medal01.jpg,medal,z,sounds/animalfarm_english.wav,,,,,,,,,0,0,0,1,0,222,222,115,544.489580136,9.621726349E-06,545.336847193,0.847276999266,,,,x,0,0.833809449105,2018_Nov_13_1539,59.9849361106,chinese_cond2,1,1004
images/hairdryer03a.jpg,hairdryer,z,sounds/animalfarm_english.wav,,,,,,,,,0,0,0,1,0,223,223,119,546.438253282,9.30100213736E-06,547.137323084,0.699080065358,,,,z,1,0.683772838442,2018_Nov_13_1539,59.9849361106,chinese_cond2,1,1004
images/rhinoceros01.jpg,envelope,x,sounds/animalfarm_english.wav,,,,,,,,,0,0,0,1,0,224,224,173,548.251375989,9.62184276432E-06,549.021139926,0.76977355883,,,,x,1,0.750448292936,2018_Nov_13_1539,59.9849361106,chinese_cond2,1,1004
images/doll.jpg,carrot,x,sounds/animalfarm_english.wav,,,,,,,,,0,0,0,1,0,225,225,146,550.134071257,8.98027792573E-06,550.771609387,0.637548072613,,,,x,1,0.617094818037,2018_Nov_13_1539,59.9849361106,chinese_cond2,1,1004
images/grandpiano.jpg,tulip,x,sounds/animalfarm_english.wav,,,,,,,,,0,0,0,1,0,226,226,236,551.888602696,9.62184276432E-06,552.538726383,0.650133950752,,,,x,1,0.633738825563,2018_Nov_13_1539,59.9849361106,chinese_cond2,1,1004
images/magnifyingglass01b.jpg,magnifying glass,z,sounds/animalfarm_english.wav,,,,,,,,,0,0,0,1,0,227,227,64,553.647411319,9.30100213736E-06,554.339198746,0.691797369975,,,,z,1,0.683764499612,2018_Nov_13_1539,59.9849361106,chinese_cond2,1,1004
images/saltshaker03c.jpg,salt shaker,z,sounds/animalfarm_english.wav,,,,,,,,,0,0,0,1,0,228,228,63,555.4529367,9.30100213736E-06,556.123001765,0.670074687107,,,,z,1,0.650421319879,2018_Nov_13_1539,59.9849361106,chinese_cond2,1,1004
images/treadmill.jpg,lily,x,sounds/animalfarm_english.wav,,,,,,,,,0,0,0,1,0,229,229,199,557.230774239,9.30100213736E-06,557.973475107,0.742710809922,,,,x,1,0.733767081401,2018_Nov_13_1539,59.9849361106,chinese_cond2,1,1004
images/marker01a.jpg,marker,z,sounds/animalfarm_english.wav,,,,,,,,,0,0,0,1,0,230,230,95,559.073844293,9.621726349E-06,559.957337203,0.883503814577,,,,z,1,0.867140120361,2018_Nov_13_1539,59.9849361106,chinese_cond2,1,1004
images/cauliflower01.jpg,glue stick,x,sounds/animalfarm_english.wav,,,,,,,,,0,0,0,1,0,231,231,181,561.075771848,9.621726349E-06,561.691131225,0.61537028139,,,,x,1,0.600403343444,2018_Nov_13_1539,59.9849361106,chinese_cond2,1,1004
images/tent.jpg,tent,z,sounds/animalfarm_english.wav,,,,,,,,,0,0,0,1,0,232,232,11,562.820220024,9.30100213736E-06,563.624991381,0.804781299434,,,,z,1,0.783807829488,2018_Nov_13_1539,59.9849361106,chinese_cond2,1,1004
,,,sounds/animalfarm_english.wav,,,,,,,,,0,0,0,1,,,,,,,,,,,,,,,2018_Nov_13_1539,59.9849361106,chinese_cond2,1,1004
images/weight01.jpg,weight,z,sounds/greatgatsby_chinese.wav,,,,,,,,,0,1,1,0,0,0,0,67,584.754610337,3.75247327611E-05,586.764532917,2.00993957859,,,574.628049811,z,1,2.00093587465,2018_Nov_13_1539,59.9849361106,chinese_cond2,1,1004
images/lighter02b.jpg,stapler,x,sounds/greatgatsby_chinese.wav,,,,,,,,,0,1,1,0,0,1,1,227,587.865751062,9.30111855268E-06,588.74822086,0.882479740656,,,,x,1,0.867139799753,2018_Nov_13_1539,59.9849361106,chinese_cond2,1,1004
images/lamp04b.jpg,parking meter,x,sounds/greatgatsby_chinese.wav,,,,,,,,,0,1,1,0,0,2,2,209,589.867556421,9.30100213736E-06,590.798766749,0.931219950086,,,,x,1,0.917159380042,2018_Nov_13_1539,59.9849361106,chinese_cond2,1,1004
images/sportshorts02.jpg,tape,x,sounds/greatgatsby_chinese.wav,,,,,,,,,0,1,1,0,0,3,3,230,591.904151749,9.30100213736E-06,593.699527156,1.79538502835,,,,x,1,1.78405061807,2018_Nov_13_1539,59.9849361106,chinese_cond2,1,1004
images/microphone01.jpg,diaper,x,sounds/greatgatsby_chinese.wav,,,,,,,,,0,1,1,0,0,4,4,164,594.797377691,9.30100213736E-06,595.399977036,0.602609287715,,,,x,1,0.583734960761,2018_Nov_13_1539,59.9849361106,chinese_cond2,1,1004
images/cat.jpg,black olive,x,sounds/greatgatsby_chinese.wav,,,,,,,,,0,1,1,0,0,5,5,133,596.529678419,9.30100213736E-06,597.650564363,1.12089588668,,,,x,1,1.10052890703,2018_Nov_13_1539,59.9849361106,chinese_cond2,1,1004
images/showerhead01.jpg,skateboard,x,sounds/greatgatsby_chinese.wav,,,,,,,,,0,1,1,0,0,6,6,223,598.757525083,9.94245056063E-06,599.751111872,0.993597052409,,,,x,1,0.983835155144,2018_Nov_13_1539,59.9849361106,chinese_cond2,1,1004
images/leaf01a.jpg,leaf,z,sounds/greatgatsby_chinese.wav,,,,,,,,,0,1,1,0,0,7,7,68,600.853249855,9.94245056063E-06,601.784982003,0.931742731365,,,,z,1,0.917162266443,2018_Nov_13_1539,59.9849361106,chinese_cond2,1,1004
images/screwdriver02b.jpg,cola,x,sounds/greatgatsby_chinese.wav,,,,,,,,,0,1,1,0,0,8,8,158,602.877741033,9.30100213736E-06,603.568777965,0.691046874272,,,,x,1,0.66708809894,2018_Nov_13_1539,59.9849361106,chinese_cond2,1,1004
images/pingpongpaddle01c (1).jpg,ping pong paddle,z,sounds/greatgatsby_chinese.wav,,,,,,,,,0,1,1,0,0,9,9,10,604.677929235,9.30100213736E-06,605.669331247,0.99141227582,,,,z,1,0.967165489797,2018_Nov_13_1539,59.9849361106,chinese_cond2,1,1004
images/croissant02b.jpg,croissant,z,sounds/greatgatsby_chinese.wav,,,,,,,,,0,1,1,0,0,10,10,39,606.779752266,9.621726349E-06,607.43649539,0.656753066694,,,,z,1,0.633774105227,2018_Nov_13_1539,59.9849361106,chinese_cond2,1,1004
images/ear.jpg,bullet,x,sounds/greatgatsby_chinese.wav,,,,,,,,,0,1,1,0,0,11,11,139,608.539761041,9.621726349E-06,609.170241624,0.630490846583,,,,x,1,0.617067235755,2018_Nov_13_1539,59.9849361106,chinese_cond2,1,1004
images/highheelshoe02a.jpg,high heel shoe,z,sounds/greatgatsby_chinese.wav,,,,,,,,,0,1,1,0,0,12,12,75,610.2761029,9.30100213736E-06,610.987393596,0.711300638039,,,,z,1,0.700434164959,2018_Nov_13_1539,59.9849361106,chinese_cond2,1,1004
images/leek.jpg,donut,x,sounds/greatgatsby_chinese.wav,,,,,,,,,0,1,1,0,0,13,13,169,612.08797895,9.621726349E-06,612.887889725,0.799921358353,,,,x,1,0.783782813,2018_Nov_13_1539,59.9849361106,chinese_cond2,1,1004
images/camera01a.jpg,bull,x,sounds/greatgatsby_chinese.wav,,,,,,,,,0,1,1,0,0,14,14,138,613.997704894,9.30100213736E-06,614.755082123,0.757387492224,,,,x,1,0.733806530479,2018_Nov_13_1539,59.9849361106,chinese_cond2,1,1004
images/nailpolish02b.jpg,nail polish,z,sounds/greatgatsby_chinese.wav,,,,,,,,,0,1,1,0,0,15,15,94,615.863198414,9.621726349E-06,616.522179876,0.658991404227,,,,z,1,0.650412018993,2018_Nov_13_1539,59.9849361106,chinese_cond2,1,1004
images/hammer02a.jpg,flower,x,sounds/greatgatsby_chinese.wav,,,,,,,,,0,1,1,0,0,16,16,176,617.616841446,9.62184276432E-06,618.339323508,0.72249200521,,,,x,1,0.700432561338,2018_Nov_13_1539,59.9849361106,chinese_cond2,1,1004
images/raisin.jpg,ruler,x,sounds/greatgatsby_chinese.wav,,,,,,,,,0,1,1,0,0,17,17,218,619.444533392,9.30100213736E-06,620.673267822,1.22874405177,,,,x,1,1.21723067714,2018_Nov_13_1539,59.9849361106,chinese_cond2,1,1004
images/redfox.jpg,red fox,z,sounds/greatgatsby_chinese.wav,,,,,,,,,0,1,1,0,0,18,18,1,621.785739554,9.62184276432E-06,622.507085289,0.721355998307,,,,z,1,0.700422618887,2018_Nov_13_1539,59.9849361106,chinese_cond2,1,1004
images/banjo.jpg,knife,x,sounds/greatgatsby_chinese.wav,,,,,,,,,0,1,1,0,0,19,19,191,623.603677622,9.30100213736E-06,625.274470411,1.67080241151,,,,x,1,1.65067597537,2018_Nov_13_1539,59.9849361106,chinese_cond2,1,1004
images/tape01a.jpg,tie,x,sounds/greatgatsby_chinese.wav,,,,,,,,,0,1,1,0,0,20,20,232,626.399349699,9.30100213736E-06,627.375024976,0.975685220212,,,,x,1,0.96716260328,2018_Nov_13_1539,59.9849361106,chinese_cond2,1,1004
images/ladder.jpg,ladder,z,sounds/greatgatsby_chinese.wav,,,,,,,,,0,1,1,0,0,21,21,113,628.465260545,9.621726349E-06,629.55892851,1.09367822786,,,,x,0,1.08385699661,2018_Nov_13_1539,59.9849361106,chinese_cond2,1,1004
images/swallow.jpg,mattress,x,sounds/greatgatsby_chinese.wav,,,,,,,,,0,1,1,0,0,22,22,202,630.658152389,9.30100213736E-06,632.476361468,1.81821902224,,,,x,1,1.80071643472,2018_Nov_13_1539,59.9849361106,chinese_cond2,1,1004
images/puma.jpg,puma,z,sounds/greatgatsby_chinese.wav,,,,,,,,,0,1,1,0,0,23,23,4,633.573342198,9.30100213736E-06,634.193494164,0.620162228937,,,,z,1,0.600414568791,2018_Nov_13_1539,59.9849361106,chinese_cond2,1,1004
images/cupcake.jpg,scissors,x,sounds/greatgatsby_chinese.wav,,,,,,,,,0,1,1,0,0,24,24,219,635.310171559,9.30100213736E-06,636.077298818,0.767137201852,,,,x,1,0.750432577333,2018_Nov_13_1539,59.9849361106,chinese_cond2,1,1004
images/razor04a.jpg,razor,z,sounds/greatgatsby_chinese.wav,,,,,,,,,0,1,1,0,0,25,25,36,637.175016894,9.30100213736E-06,638.027832167,0.852824894828,,,,z,1,0.833799506654,2018_Nov_13_1539,59.9849361106,chinese_cond2,1,1004
images/paperclip04.jpg,eye drops,x,sounds/greatgatsby_chinese.wav,,,,,,,,,0,1,1,0,0,26,26,174,639.132823958,8.98027792573E-06,639.844962329,0.712147671962,,,,x,1,0.700426146854,2018_Nov_13_1539,59.9849361106,chinese_cond2,1,1004
images/atm.jpg,atm,z,sounds/greatgatsby_chinese.wav,,,,,,,,,0,1,1,0,0,27,27,96,640.981397968,9.94245056063E-06,641.728797773,0.747410067939,,,,z,1,0.733779589646,2018_Nov_13_1539,59.9849361106,chinese_cond2,1,1004
images/headphones02b.jpg,headphones,z,sounds/greatgatsby_chinese.wav,,,,,,,,,0,1,1,0,0,28,28,101,642.835140777,9.30100213736E-06,643.695972243,0.860841087648,,,,z,1,0.850469813566,2018_Nov_13_1539,59.9849361106,chinese_cond2,1,1004
images/swan.jpg,swan,z,sounds/greatgatsby_chinese.wav,,,,,,,,,0,1,1,0,0,29,29,54,644.786155855,9.30100213736E-06,645.813197757,1.02705184417,,,,z,1,1.01718795649,2018_Nov_13_1539,59.9849361106,chinese_cond2,1,1004
images/lollipop03b.jpg,lollipop,z,sounds/greatgatsby_chinese.wav,,,,,,,,,0,1,1,0,0,30,30,42,646.904503263,9.62184276432E-06,647.613664668,0.709171346854,,,,z,1,0.700426146854,2018_Nov_13_1539,59.9849361106,chinese_cond2,1,1004
images/cockroach02.jpg,belt,x,sounds/greatgatsby_chinese.wav,,,,,,,,,0,1,1,0,0,31,31,129,648.710892035,8.98027792573E-06,649.747558564,1.03667647124,,,,x,1,1.01717448607,2018_Nov_13_1539,59.9849361106,chinese_cond2,1,1004
images/rubberglove02a.jpg,lady bug,x,sounds/greatgatsby_chinese.wav,,,,,,,,,0,1,1,0,0,32,32,192,650.850135618,8.98027792573E-06,651.731426433,0.881300435984,,,,x,1,0.867155194515,2018_Nov_13_1539,59.9849361106,chinese_cond2,1,1004
images/safe.jpg,safe,z,sounds/greatgatsby_chinese.wav,,,,,,,,,0,1,1,0,0,33,33,78,652.840434659,9.94245056063E-06,653.648582285,0.80815788894,,,,z,1,0.783782492159,2018_Nov_13_1539,59.9849361106,chinese_cond2,1,1004
images/gps.jpg,gps,z,sounds/greatgatsby_chinese.wav,,,,,,,,,0,1,1,0,0,34,34,21,654.765341464,8.98027792573E-06,655.449044064,0.683712542057,,,,z,1,0.667069496936,2018_Nov_13_1539,59.9849361106,chinese_cond2,1,1004
images/carrot02.jpg,corkscrew,x,sounds/greatgatsby_chinese.wav,,,,,,,,,0,1,1,0,0,35,35,161,656.549403949,9.621726349E-06,657.216189284,0.666794956545,,,,x,1,0.650419074926,2018_Nov_13_1539,59.9849361106,chinese_cond2,1,1004
images/stapler03a.jpg,candy cane,x,sounds/greatgatsby_chinese.wav,,,,,,,,,0,1,1,0,0,36,36,145,658.325208736,9.30100213736E-06,659.06667353,0.74147441634,,,,x,1,0.717104792595,2018_Nov_13_1539,59.9849361106,chinese_cond2,1,1004
images/aloe02.jpg,broad sword,x,sounds/greatgatsby_chinese.wav,,,,,,,,,0,1,1,0,0,37,37,137,660.186512308,9.621726349E-06,661.417277888,1.23077584268,,,,x,1,1.21722714906,2018_Nov_13_1539,59.9849361106,chinese_cond2,1,1004
images/antelope.jpg,antelope,z,sounds/greatgatsby_chinese.wav,,,,,,,,,0,1,1,0,0,38,38,12,662.520781196,9.621726349E-06,663.584515925,1.06374467234,,,,z,1,1.0505112512,2018_Nov_13_1539,59.9849361106,chinese_cond2,1,1004
images/toothbrush03a.jpg,parrot,x,sounds/greatgatsby_chinese.wav,,,,,,,,,0,1,1,0,0,39,39,210,664.675628677,9.30100213736E-06,665.301645093,0.626026359037,,,,x,1,0.617081989185,2018_Nov_13_1539,59.9849361106,chinese_cond2,1,1004
images/fireextinguisher02.jpg,fire extinguisher,x,sounds/greatgatsby_chinese.wav,,,,,,,,,0,1,1,0,0,40,40,175,666.410267808,8.98027792573E-06,667.335507847,0.925249660155,,,,z,0,0.917151682544,2018_Nov_13_1539,59.9849361106,chinese_cond2,1,1004
images/barrel01.jpg,barrel,z,sounds/greatgatsby_chinese.wav,,,,,,,,,0,1,1,0,0,41,41,9,668.463953272,8.98027792573E-06,669.969527948,1.50558429782,,,,z,1,1.48396456754,2018_Nov_13_1539,59.9849361106,chinese_cond2,1,1004
images/fork01.jpg,cooking pot,x,sounds/greatgatsby_chinese.wav,,,,,,,,,0,1,1,0,0,42,42,160,671.06222572,8.98027792573E-06,672.120191575,1.05800434202,,,,x,1,1.03386211209,2018_Nov_13_1539,59.9849361106,chinese_cond2,1,1004
images/tent.jpg,tent,z,sounds/greatgatsby_chinese.wav,,,,,,,,,0,1,1,0,0,43,43,11,673.244929744,9.30100213736E-06,673.887233522,0.642314041383,,,,z,1,0.633753578877,2018_Nov_13_1539,59.9849361106,chinese_cond2,1,1004
images/basketball01.jpg,basket ball,z,sounds/greatgatsby_chinese.wav,,,,,,,,,0,1,1,0,0,44,44,33,675.025159889,9.30111855268E-06,675.671026277,0.645876330556,,,,z,1,0.633741712081,2018_Nov_13_1539,59.9849361106,chinese_cond2,1,1004
images/8ball.jpg,nail clipper,x,sounds/greatgatsby_chinese.wav,,,,,,,,,0,1,1,0,0,45,45,206,676.786635659,9.30100213736E-06,677.588196562,0.801571166026,,,,x,1,0.783779285033,2018_Nov_13_1539,59.9849361106,chinese_cond2,1,1004
images/flower01.jpg,bus,x,sounds/greatgatsby_chinese.wav,,,,,,,,,0,1,1,0,0,46,46,140,678.700385415,9.621726349E-06,679.572048395,0.87167324312,,,,x,1,0.850460191723,2018_Nov_13_1539,59.9849361106,chinese_cond2,1,1004
images/binder03b.jpg,dj mixer,x,sounds/greatgatsby_chinese.wav,,,,,,,,,0,1,1,0,0,47,47,167,680.683670527,9.30100213736E-06,681.40586939,0.722209125874,,,,x,1,0.700431920006,2018_Nov_13_1539,59.9849361106,chinese_cond2,1,1004
images/lettuce.jpg,mushroom,x,sounds/greatgatsby_chinese.wav,,,,,,,,,0,1,1,0,0,48,48,205,682.527533412,9.621726349E-06,683.223004363,0.695481213741,,,,x,1,0.683753274148,2018_Nov_13_1539,59.9849361106,chinese_cond2,1,1004
images/computerkeyboard01a.jpg,computer keyboard,z,sounds/greatgatsby_chinese.wav,,,,,,,,,0,1,1,0,0,49,49,61,684.338051835,9.30100213736E-06,685.090161482,0.752119909972,,,,z,1,0.733766439953,2018_Nov_13_1539,59.9849361106,chinese_cond2,1,1004
images/graduationcap.jpg,graduation cap,z,sounds/greatgatsby_chinese.wav,,,,,,,,,0,1,1,0,0,50,50,35,686.190745553,8.98027792573E-06,687.557479797,1.36674386507,,,,x,0,1.35059794306,2018_Nov_13_1539,59.9849361106,chinese_cond2,1,1004
images/scissors04a.jpg,leek,x,sounds/greatgatsby_chinese.wav,,,,,,,,,0,1,1,0,0,51,51,194,688.650229847,9.30100213736E-06,689.474672211,0.824451985769,,,,x,1,0.800474929158,2018_Nov_13_1539,59.9849361106,chinese_cond2,1,1004
images/sock03.jpg,sock,z,sounds/greatgatsby_chinese.wav,,,,,,,,,0,1,1,0,0,52,52,90,690.579465474,9.621726349E-06,691.241771247,0.66231571557,,,,z,1,0.650408170186,2018_Nov_13_1539,59.9849361106,chinese_cond2,1,1004
images/pen03c.jpg,pepper,x,sounds/greatgatsby_chinese.wav,,,,,,,,,0,1,1,0,0,53,53,211,692.33417267,9.30100213736E-06,693.008920957,0.674758229638,,,,x,1,0.650427093031,2018_Nov_13_1539,59.9849361106,chinese_cond2,1,1004
images/worldmap.jpg,scooter,x,sounds/greatgatsby_chinese.wav,,,,,,,,,0,1,1,0,0,54,54,220,694.138054016,8.98027792573E-06,695.126136207,0.988091813284,,,,x,1,0.967167734867,2018_Nov_13_1539,59.9849361106,chinese_cond2,1,1004
images/ruler02b.jpg,watermelon,x,sounds/greatgatsby_chinese.wav,,,,,,,,,0,1,1,0,0,55,55,238,696.226632721,9.62184276432E-06,696.826578711,0.59995593247,,,,x,1,0.583732395084,2018_Nov_13_1539,59.9849361106,chinese_cond2,1,1004
images/hairdryer03a.jpg,hairdryer,z,sounds/greatgatsby_chinese.wav,,,,,,,,,0,1,1,0,0,56,56,119,697.924363498,9.621726349E-06,698.610379805,0.686025929288,,,,z,1,0.667087457376,2018_Nov_13_1539,59.9849361106,chinese_cond2,1,1004
images/button07.jpg,radish,x,sounds/greatgatsby_chinese.wav,,,,,,,,,0,1,1,0,0,57,57,215,699.721066063,9.621726349E-06,700.344169979,0.623114178888,,,,x,1,0.600408475031,2018_Nov_13_1539,59.9849361106,chinese_cond2,1,1004
images/lychee02a.jpg,lychee,z,sounds/greatgatsby_chinese.wav,,,,,,,,,0,1,1,0,0,58,58,62,701.466134841,8.98039434105E-06,702.194659998,0.728534778929,,,,z,1,0.717105113436,2018_Nov_13_1539,59.9849361106,chinese_cond2,1,1004
images/bowlingball.jpg,bowling ball,z,sounds/greatgatsby_chinese.wav,,,,,,,,,0,1,1,0,0,59,59,20,703.325161589,9.30100213736E-06,704.828708965,1.50355699705,,,,z,1,1.48399888515,2018_Nov_13_1539,59.9849361106,chinese_cond2,1,1004
images/puzzle.jpg,puzzle,z,sounds/greatgatsby_chinese.wav,,,,,,,,,0,1,1,0,0,60,60,57,705.947008264,9.621726349E-06,706.81253097,0.865532648284,,,,z,1,0.850468209945,2018_Nov_13_1539,59.9849361106,chinese_cond2,1,1004
images/flipflop01b.jpg,flip flop,z,sounds/greatgatsby_chinese.wav,,,,,,,,,0,1,1,0,0,61,61,27,707.927517825,9.30100213736E-06,708.596328857,0.668821936473,,,,z,1,0.650412339717,2018_Nov_13_1539,59.9849361106,chinese_cond2,1,1004
images/tissuebox03.jpg,tissue box,z,sounds/greatgatsby_chinese.wav,,,,,,,,,0,1,1,0,0,62,62,58,709.72012185,9.30100213736E-06,710.380132517,0.660020609736,,,,z,1,0.650415546843,2018_Nov_13_1539,59.9849361106,chinese_cond2,1,1004
images/knife04.jpg,tooth brush,x,sounds/greatgatsby_chinese.wav,,,,,,,,,0,1,1,0,0,63,63,233,711.475084984,9.30100213736E-06,712.76411341,1.28903900937,,,,x,1,1.26726340712,2018_Nov_13_1539,59.9849361106,chinese_cond2,1,1004
images/doorhandle.jpg,doll,x,sounds/greatgatsby_chinese.wav,,,,,,,,,0,1,1,0,0,64,64,168,713.865489351,9.621726349E-06,714.664588371,0.799109283369,,,,x,1,0.783774153446,2018_Nov_13_1539,59.9849361106,chinese_cond2,1,1004
images/diploma01.jpg,glasses,x,sounds/greatgatsby_chinese.wav,,,,,,,,,0,1,1,0,0,65,65,179,715.793979292,9.94245056063E-06,716.79848355,1.00451452064,,,,x,1,0.983834513696,2018_Nov_13_1539,59.9849361106,chinese_cond2,1,1004
images/remotecontrol01c.jpg,remote control,z,sounds/greatgatsby_chinese.wav,,,,,,,,,0,1,1,0,0,66,66,85,717.906045628,9.621726349E-06,719.415847456,1.50981209066,,,,z,1,1.50064930716,2018_Nov_13_1539,59.9849361106,chinese_cond2,1,1004
images/charcoalbarbecue.jpg,charcoal barbecue,z,sounds/greatgatsby_chinese.wav,,,,,,,,,0,1,1,0,0,67,67,77,720.531445291,9.30111855268E-06,721.566396905,1.03496187716,,,,z,1,1.01716614724,2018_Nov_13_1539,59.9849361106,chinese_cond2,1,1004
images/globe.jpg,cloud,x,sounds/greatgatsby_chinese.wav,,,,,,,,,0,1,1,0,0,68,68,154,722.69207159,9.30100213736E-06,723.433585455,0.741523807868,,,,x,1,0.717125318944,2018_Nov_13_1539,59.9849361106,chinese_cond2,1,1004
images/djmixer01.jpg,light bulb,x,sounds/greatgatsby_chinese.wav,,,,,,,,,0,1,1,0,0,69,69,196,724.553348221,9.30111855268E-06,725.950881656,1.39754369797,,,,x,1,1.38393534964,2018_Nov_13_1539,59.9849361106,chinese_cond2,1,1004
images/bracelet02a.jpg,chess knight,x,sounds/greatgatsby_chinese.wav,,,,,,,,,0,1,1,0,0,70,70,152,727.058402361,9.30100213736E-06,729.25175701,2.1933645911,,,,x,1,2.18414247362,2018_Nov_13_1539,59.9849361106,chinese_cond2,1,1004
images/lightbulb03b.jpg,treadmill,x,sounds/greatgatsby_chinese.wav,,,,,,,,,0,1,1,0,0,71,71,234,730.352652505,8.98027792573E-06,731.152079306,0.799438988441,,,,x,1,0.78355734353,2018_Nov_13_1539,59.9849361106,chinese_cond2,1,1004
images/bullet (2).jpg,rubber glove,x,sounds/greatgatsby_chinese.wav,,,,,,,,,0,1,1,0,0,72,72,217,732.255140655,9.30100213736E-06,732.936044291,0.68091325718,,,,x,1,0.667081043008,2018_Nov_13_1539,59.9849361106,chinese_cond2,1,1004
images/kiwi03.jpg,backpack,x,sounds/greatgatsby_chinese.wav,,,,,,,,,0,1,1,0,0,73,73,125,734.063036512,9.30111855268E-06,734.753192734,0.690165843582,,,,x,1,0.667088098824,2018_Nov_13_1539,59.9849361106,chinese_cond2,1,1004
images/blackolive.jpg,tank,x,sounds/greatgatsby_chinese.wav,,,,,,,,,0,1,1,0,0,74,74,229,735.86833931,8.98027792573E-06,736.7704025,0.902072811616,,,,x,1,0.883818766219,2018_Nov_13_1539,59.9849361106,chinese_cond2,1,1004
images/dreamcatcher.jpg,dream catcher,z,sounds/greatgatsby_chinese.wav,,,,,,,,,0,1,1,0,0,75,75,48,737.867195927,9.621726349E-06,738.587545812,0.720359185943,,,,z,1,0.700429033372,2018_Nov_13_1539,59.9849361106,chinese_cond2,1,1004
images/lip.jpg,boxing glove,x,sounds/greatgatsby_chinese.wav,,,,,,,,,0,1,1,0,0,76,76,136,739.689161655,9.30100213736E-06,742.688445156,2.99929376424,,,,None,0,,2018_Nov_13_1539,59.9849361106,chinese_cond2,1,1004
images/rhinoceros01.jpg,envelope,x,sounds/greatgatsby_chinese.wav,,,,,,,,,0,1,1,0,0,77,77,173,743.799411085,9.30111855268E-06,744.705801813,0.90640067053,,,,x,1,0.883802409167,2018_Nov_13_1539,59.9849361106,chinese_cond2,1,1004
images/wallet01.jpg,lamp,x,sounds/greatgatsby_chinese.wav,,,,,,,,,0,1,1,0,0,78,78,193,745.80931795,9.30100213736E-06,746.506434539,0.697126210551,,,,x,1,0.68390882574,2018_Nov_13_1539,59.9849361106,chinese_cond2,1,1004
images/broadsword.jpg,teapot,x,sounds/greatgatsby_chinese.wav,,,,,,,,,0,1,1,0,0,79,79,231,747.598206379,9.621726349E-06,748.240108931,0.641912814812,,,,x,1,0.633734656032,2018_Nov_13_1539,59.9849361106,chinese_cond2,1,1004
images/lipstick04.jpg,lipstick,z,sounds/greatgatsby_chinese.wav,,,,,,,,,0,1,1,0,0,80,80,56,749.338842101,9.621726349E-06,750.1405608,0.801729283296,,,,z,1,0.783777360572,2018_Nov_13_1539,59.9849361106,chinese_cond2,1,1004
images/lightswitch02a.jpg,fork,x,sounds/greatgatsby_chinese.wav,,,,,,,,,0,1,1,0,0,81,81,177,751.250479243,9.30100213736E-06,751.974380833,0.723911211826,,,,z,0,0.700430316385,2018_Nov_13_1539,59.9849361106,chinese_cond2,1,1004
images/hairband.jpg,hairband,z,sounds/greatgatsby_chinese.wav,,,,,,,,,0,1,1,0,0,82,82,66,753.082832602,9.30100213736E-06,753.791524786,0.708702126634,,,,z,1,0.700433523511,2018_Nov_13_1539,59.9849361106,chinese_cond2,1,1004
images/notebook02b.jpg,notebook,z,sounds/greatgatsby_chinese.wav,,,,,,,,,0,1,1,0,0,83,83,7,754.896933519,9.30100213736E-06,755.391956353,0.495033097104,,,,z,1,0.483716326766,2018_Nov_13_1539,59.9849361106,chinese_cond2,1,1004
images/thumbtack02a.jpg,thumb tack,z,sounds/greatgatsby_chinese.wav,,,,,,,,,0,1,1,0,0,84,84,60,756.500777276,8.98027792573E-06,757.27578442,0.775017086533,,,,z,1,0.750457593938,2018_Nov_13_1539,59.9849361106,chinese_cond2,1,1004
images/computermouse02a.jpg,world map,x,sounds/greatgatsby_chinese.wav,,,,,,,,,0,1,1,0,0,85,85,239,758.376345079,8.98027792573E-06,759.17660384,0.800268061692,,,,x,1,0.784117007977,2018_Nov_13_1539,59.9849361106,chinese_cond2,1,1004
images/triangleruler02.jpg,bottle of red wine,x,sounds/greatgatsby_chinese.wav,,,,,,,,,0,1,1,0,0,86,86,134,760.285639649,8.6595537141E-06,760.926733012,0.641102664289,,,,x,1,0.617074933136,2018_Nov_13_1539,59.9849361106,chinese_cond2,1,1004
images/doll.jpg,carrot,x,sounds/greatgatsby_chinese.wav,,,,,,,,,0,1,1,0,0,87,87,146,762.036965444,9.30100213736E-06,762.643843898,0.606888396433,,,,x,1,0.583726942656,2018_Nov_13_1539,59.9849361106,chinese_cond2,1,1004
images/floorlamp.jpg,floor lamp,z,sounds/greatgatsby_chinese.wav,,,,,,,,,0,1,1,0,0,88,88,26,763.734896353,9.30111855268E-06,764.36095703,0.626070619095,,,,z,1,0.617069480824,2018_Nov_13_1539,59.9849361106,chinese_cond2,1,1004
images/hat05.jpg,hat,z,sounds/greatgatsby_chinese.wav,,,,,,,,,0,1,1,0,0,89,89,15,765.462908992,9.30100213736E-06,766.128089741,0.665191012318,,,,z,1,0.650407528854,2018_Nov_13_1539,59.9849361106,chinese_cond2,1,1004
images/electrictoothbrush01a.jpg,banjo,x,sounds/greatgatsby_chinese.wav,,,,,,,,,0,1,1,0,0,90,90,127,767.221422228,9.30100213736E-06,767.928561463,0.707149498397,,,,x,1,0.683752311976,2018_Nov_13_1539,59.9849361106,chinese_cond2,1,1004
images/straw.jpg,straw,z,sounds/greatgatsby_chinese.wav,,,,,,,,,0,1,1,0,0,91,91,109,769.019990449,8.98027792573E-06,769.895794305,0.87581411947,,,,z,1,0.867172834347,2018_Nov_13_1539,59.9849361106,chinese_cond2,1,1004
images/treadmill.jpg,lily,x,sounds/greatgatsby_chinese.wav,,,,,,,,,0,1,1,0,0,92,92,199,771.0001238,9.30100213736E-06,771.646047277,0.645934060914,,,,x,1,0.633581991191,2018_Nov_13_1539,59.9849361106,chinese_cond2,1,1004
images/hand01a.jpg,cupcake,x,sounds/greatgatsby_chinese.wav,,,,,,,,,0,1,1,0,0,93,93,163,772.756580228,9.621726349E-06,773.51337021,0.756800245261,,,,x,1,0.733773495886,2018_Nov_13_1539,59.9849361106,chinese_cond2,1,1004
images/beachumbrella01.jpg,beach umbrella,z,sounds/greatgatsby_chinese.wav,,,,,,,,,0,1,1,0,0,94,94,92,774.617843069,8.98027792573E-06,775.547233605,0.92940079968,,,,z,1,0.917158097145,2018_Nov_13_1539,59.9849361106,chinese_cond2,1,1004
images/gluestick.jpg,squirrel,x,sounds/greatgatsby_chinese.wav,,,,,,,,,0,1,1,0,0,95,95,226,776.653041961,9.30100213736E-06,777.431075143,0.778043444734,,,,x,1,0.767133353162,2018_Nov_13_1539,59.9849361106,chinese_cond2,1,1004
images/radio03a.jpg,radio,z,sounds/greatgatsby_chinese.wav,,,,,,,,,0,1,1,0,0,96,96,37,778.543565798,9.94245056063E-06,779.31514664,0.77159046405,,,,z,1,0.750697175274,2018_Nov_13_1539,59.9849361106,chinese_cond2,1,1004
images/peach01.jpg,peach,z,sounds/greatgatsby_chinese.wav,,,,,,,,,0,1,1,0,0,97,97,106,780.442157143,9.621726349E-06,781.048697874,0.606550994096,,,,z,1,0.583721169736,2018_Nov_13_1539,59.9849361106,chinese_cond2,1,1004
images/comb02a.jpg,diploma,x,sounds/greatgatsby_chinese.wav,,,,,,,,,0,1,1,0,0,98,98,166,782.151786164,9.30100213736E-06,782.78248035,0.630704128533,,,,x,1,0.617073329515,2018_Nov_13_1539,59.9849361106,chinese_cond2,1,1004
images/coffeepot03b.jpg,coffee pot,z,sounds/greatgatsby_chinese.wav,,,,,,,,,0,1,1,0,0,99,99,107,783.902047154,9.30111855268E-06,784.699634278,0.797596745891,,,,z,1,0.783784416504,2018_Nov_13_1539,59.9849361106,chinese_cond2,1,1004
images/pouch01b.jpg,pouch,z,sounds/greatgatsby_chinese.wav,,,,,,,,,0,1,1,0,0,100,100,25,785.810347797,8.98027792573E-06,786.850191425,1.03985389066,,,,z,1,1.0171735239,2018_Nov_13_1539,59.9849361106,chinese_cond2,1,1004
images/honeycomb.jpg,honey comb,z,sounds/greatgatsby_chinese.wav,,,,,,,,,0,1,1,0,0,101,101,59,787.961787899,9.621726349E-06,788.634005989,0.672228674171,,,,z,1,0.650420999271,2018_Nov_13_1539,59.9849361106,chinese_cond2,1,1004
images/masquerademask02b.jpg,mirror,x,sounds/greatgatsby_chinese.wav,,,,,,,,,0,1,1,0,0,102,102,204,789.737672546,9.30100213736E-06,790.417807083,0.680145442137,,,,x,1,0.667097079218,2018_Nov_13_1539,59.9849361106,chinese_cond2,1,1004
images/butterfly.jpg,butterfly,z,sounds/greatgatsby_chinese.wav,,,,,,,,,0,1,1,0,0,103,103,91,791.523896394,9.94245056063E-06,792.318299364,0.794413553318,,,,z,1,0.783739515115,2018_Nov_13_1539,59.9849361106,chinese_cond2,1,1004
images/ostrich.jpg,ostrich,z,sounds/greatgatsby_chinese.wav,,,,,,,,,0,1,1,0,0,104,104,76,793.417079038,9.30100213736E-06,794.152112341,0.735042924178,,,,z,1,0.717100944021,2018_Nov_13_1539,59.9849361106,chinese_cond2,1,1004
images/mailbox01.jpg,mail box,z,sounds/greatgatsby_chinese.wav,,,,,,,,,0,1,1,0,0,105,105,73,795.270085464,9.621726349E-06,795.869234453,0.59915893164,,,,z,1,0.583727584104,2018_Nov_13_1539,59.9849361106,chinese_cond2,1,1004
images/cocktailshrimp01.jpg,cocktail shrimp,z,sounds/greatgatsby_chinese.wav,,,,,,,,,0,1,1,0,0,106,106,30,796.982307223,9.30111855268E-06,797.603014042,0.620717082755,,,,z,1,0.600391797256,2018_Nov_13_1539,59.9849361106,chinese_cond2,1,1004
images/mirror02.jpg,8 ball,x,sounds/greatgatsby_chinese.wav,,,,,,,,,0,1,1,0,0,107,107,121,798.703399585,8.98027792573E-06,799.303799722,0.600426114863,,,,x,1,0.583980635973,2018_Nov_13_1539,59.9849361106,chinese_cond2,1,1004
images/blueberry02.jpg,blueberry,z,sounds/greatgatsby_chinese.wav,,,,,,,,,0,1,1,0,0,108,108,46,800.415293243,9.94256697595E-06,801.020589563,0.605306582409,,,,z,1,0.583729829174,2018_Nov_13_1539,59.9849361106,chinese_cond2,1,1004
images/pineapple01a.jpg,pineapple,z,sounds/greatgatsby_chinese.wav,,,,,,,,,0,1,1,0,0,109,109,51,802.131820411,9.621726349E-06,802.837724215,0.705914066988,,,,z,1,0.683743331698,2018_Nov_13_1539,59.9849361106,chinese_cond2,1,1004
images/lion.jpg,lion,z,sounds/greatgatsby_chinese.wav,,,,,,,,,0,1,1,0,0,110,110,44,803.948800474,9.621726349E-06,804.80476366,0.85597344907,,,,z,1,0.833649086882,2018_Nov_13_1539,59.9849361106,chinese_cond2,1,1004
images/flamingo.jpg,flamingo,z,sounds/greatgatsby_chinese.wav,,,,,,,,,0,1,1,0,0,111,111,52,805.901983329,9.30100213736E-06,806.455330909,0.553357201628,,,,z,1,0.533705117297,2018_Nov_13_1539,59.9849361106,chinese_cond2,1,1004
images/hairpin.jpg,hair pin,z,sounds/greatgatsby_chinese.wav,,,,,,,,,0,1,1,0,0,112,112,28,807.545198928,9.621726349E-06,808.139106314,0.59391764889,,,,z,1,0.583723093965,2018_Nov_13_1539,59.9849361106,chinese_cond2,1,1004
images/ladybug03.jpg,giraffe,x,sounds/greatgatsby_chinese.wav,,,,,,,,,0,1,1,0,0,113,113,178,809.240547682,9.62184276432E-06,809.956258605,0.715721186367,,,,x,1,0.700429354212,2018_Nov_13_1539,59.9849361106,chinese_cond2,1,1004
images/gamecontroller01.jpg,game controller,z,sounds/greatgatsby_chinese.wav,,,,,,,,,0,1,1,0,0,114,114,112,811.074864839,9.621726349E-06,811.956784594,0.881930018542,,,,z,1,0.867141403258,2018_Nov_13_1539,59.9849361106,chinese_cond2,1,1004
images/tie01.jpg,bench,x,sounds/greatgatsby_chinese.wav,,,,,,,,,0,1,1,0,0,115,115,130,813.05434776,9.621726349E-06,814.207400145,1.1530623273,,,,x,1,1.13388683996,2018_Nov_13_1539,59.9849361106,chinese_cond2,1,1004
images/skateboard.jpg,key,x,sounds/greatgatsby_chinese.wav,,,,,,,,,0,1,1,0,0,116,116,189,815.297192793,9.30100213736E-06,816.257914924,0.96073207329,,,,x,1,0.950500955922,2018_Nov_13_1539,59.9849361106,chinese_cond2,1,1004
images/pictureframe04.jpg,picture frame,z,sounds/greatgatsby_chinese.wav,,,,,,,,,0,1,1,0,0,117,117,41,817.379114858,9.94245056063E-06,818.225094205,0.845989289694,,,,z,1,0.833795978688,2018_Nov_13_1539,59.9849361106,chinese_cond2,1,1004
images/banana04a.jpg,banana,z,sounds/greatgatsby_chinese.wav,,,,,,,,,0,1,1,0,0,118,118,118,819.330753103,8.98027792573E-06,819.942211826,0.611468024319,,,,z,1,0.600400136085,2018_Nov_13_1539,59.9849361106,chinese_cond2,1,1004
images/grasshopper.jpg,cauliflower,x,sounds/greatgatsby_chinese.wav,,,,,,,,,0,1,1,0,0,119,119,148,821.033905731,9.30100213736E-06,821.676008735,0.642112626345,,,,x,1,0.633745240048,2018_Nov_13_1539,59.9849361106,chinese_cond2,1,1004
images/nailclipper03a.jpg,aquarium,x,sounds/greatgatsby_chinese.wav,,,,,,,,,0,1,1,0,0,120,120,123,822.773925019,9.30100213736E-06,824.260023689,1.48610893288,,,,x,1,1.46729490219,2018_Nov_13_1539,59.9849361106,chinese_cond2,1,1004
images/saltshaker03c.jpg,salt shaker,z,sounds/greatgatsby_chinese.wav,,,,,,,,,0,1,1,0,0,121,121,63,825.370429954,9.621726349E-06,826.077153851,0.706733839237,,,,z,1,0.683750067023,2018_Nov_13_1539,59.9849361106,chinese_cond2,1,1004
images/bull.jpg,button,x,sounds/greatgatsby_chinese.wav,,,,,,,,,0,1,1,0,0,122,122,141,827.181542038,9.94245056063E-06,827.877631025,0.696099570952,,,,x,1,0.683733389247,2018_Nov_13_1539,59.9849361106,chinese_cond2,1,1004
images/drink.jpg,drink,z,sounds/greatgatsby_chinese.wav,,,,,,,,,0,1,1,0,0,123,123,117,828.976381514,9.621726349E-06,829.794797782,0.818426210317,,,,z,1,0.800449271221,2018_Nov_13_1539,59.9849361106,chinese_cond2,1,1004
images/paintbrush03a.jpg,paint brush,z,sounds/greatgatsby_chinese.wav,,,,,,,,,0,1,1,0,0,124,124,0,830.89347739,8.98027792573E-06,831.678627452,0.785160004743,,,,z,1,0.767116033938,2018_Nov_13_1539,59.9849361106,chinese_cond2,1,1004
images/cherry01.jpg,highlighter,x,sounds/greatgatsby_chinese.wav,,,,,,,,,0,1,1,0,0,125,125,187,832.787033678,9.30100213736E-06,833.495768198,0.70874446223,,,,x,1,0.700433844351,2018_Nov_13_1539,59.9849361106,chinese_cond2,1,1004
images/daisy.jpg,daisy,z,sounds/greatgatsby_chinese.wav,,,,,,,,,0,1,1,0,0,126,126,6,834.596531876,9.30100213736E-06,835.329577968,0.733056034776,,,,z,1,0.717085869866,2018_Nov_13_1539,59.9849361106,chinese_cond2,1,1004
images/key03b.jpg,cigar,x,sounds/greatgatsby_chinese.wav,,,,,,,,,0,1,1,0,0,127,127,153,836.429598526,9.621726349E-06,837.130048407,0.700460785185,,,,x,1,0.683747180505,2018_Nov_13_1539,59.9849361106,chinese_cond2,1,1004
images/squirrel.jpg,binder,x,sounds/greatgatsby_chinese.wav,,,,,,,,,0,1,1,0,0,128,128,132,838.231724226,9.30100213736E-06,839.413999119,1.18228483619,,,,x,1,1.16722713306,2018_Nov_13_1539,59.9849361106,chinese_cond2,1,1004
images/chameleon.jpg,50 dollar bill,x,sounds/greatgatsby_chinese.wav,,,,,,,,,0,1,1,0,0,129,129,120,840.522253322,8.98027792573E-06,841.147775181,0.62553148088,,,,x,1,0.617076857481,2018_Nov_13_1539,59.9849361106,chinese_cond2,1,1004
images/aquarium.jpg,computer mouse,x,sounds/greatgatsby_chinese.wav,,,,,,,,,0,1,1,0,0,130,130,159,842.283464494,9.621726349E-06,842.914896988,0.63144307828,,,,x,1,0.617064028513,2018_Nov_13_1539,59.9849361106,chinese_cond2,1,1004
images/icecube02 (2).jpg,aloe,x,sounds/greatgatsby_chinese.wav,,,,,,,,,0,1,1,0,0,131,131,122,844.023967114,9.30100213736E-06,844.682208023,0.658251171699,,,,x,1,0.633915865561,2018_Nov_13_1539,59.9849361106,chinese_cond2,1,1004
images/broom02.jpg,broom,z,sounds/greatgatsby_chinese.wav,,,,,,,,,0,1,1,0,0,132,132,116,845.774127076,8.98027792573E-06,846.66588474,0.891767285997,,,,z,1,0.867135950946,2018_Nov_13_1539,59.9849361106,chinese_cond2,1,1004
images/giraffe.jpg,lettuce,x,sounds/greatgatsby_chinese.wav,,,,,,,,,0,1,1,0,0,133,133,195,847.765230173,9.621726349E-06,848.566388887,0.801168335835,,,,x,1,0.78377671924,2018_Nov_13_1539,59.9849361106,chinese_cond2,1,1004
images/lock02a.jpg,lock,z,sounds/greatgatsby_chinese.wav,,,,,,,,,0,1,1,0,0,134,134,65,849.675456768,8.98027792573E-06,850.466897845,0.791451019351,,,,z,1,0.767121165642,2018_Nov_13_1539,59.9849361106,chinese_cond2,1,1004
images/plate01b.jpg,plate,z,sounds/greatgatsby_chinese.wav,,,,,,,,,0,1,1,0,0,135,135,3,851.564771793,9.30100213736E-06,852.150661062,0.585899211001,,,,z,1,0.567061767331,2018_Nov_13_1539,59.9849361106,chinese_cond2,1,1004
images/handfan01b.jpg,handfan,z,sounds/greatgatsby_chinese.wav,,,,,,,,,0,1,1,0,0,136,136,69,853.265249577,9.94245056063E-06,854.301264714,1.03602572076,,,,z,1,1.01721618033,2018_Nov_13_1539,59.9849361106,chinese_cond2,1,1004
images/parkingmeter.jpg,ear,x,sounds/greatgatsby_chinese.wav,,,,,,,,,0,1,1,0,0,137,137,171,855.401817996,9.621726349E-06,856.201739996,0.799932583701,,,,x,1,0.783795000403,2018_Nov_13_1539,59.9849361106,chinese_cond2,1,1004
images/cheetah.jpg,cheetah,z,sounds/greatgatsby_chinese.wav,,,,,,,,,0,1,1,0,0,138,138,82,857.303012022,9.94256697595E-06,858.468983518,1.16598240065,,,,z,1,1.15054111066,2018_Nov_13_1539,59.9849361106,chinese_cond2,1,1004
images/acousticguitar02.jpg,acoustic guitar,z,sounds/greatgatsby_chinese.wav,,,,,,,,,0,1,1,0,0,139,139,97,859.582560788,9.621726349E-06,860.185945909,0.603395063197,,,,z,1,0.583566580317,2018_Nov_13_1539,59.9849361106,chinese_cond2,1,1004
images/clothespin02a.jpg,clothes pin,z,sounds/greatgatsby_chinese.wav,,,,,,,,,0,1,1,0,0,140,140,79,861.289424841,8.98027792573E-06,862.053261145,0.763846245827,,,,z,1,0.750441878336,2018_Nov_13_1539,59.9849361106,chinese_cond2,1,1004
images/handbag02a.jpg,candle,x,sounds/greatgatsby_chinese.wav,,,,,,,,,0,1,1,0,0,141,141,144,863.167613286,9.621726349E-06,863.953589214,0.785986191477,,,,x,1,0.766929693054,2018_Nov_13_1539,59.9849361106,chinese_cond2,1,1004
images/printer03a.jpg,printer,z,sounds/greatgatsby_chinese.wav,,,,,,,,,0,1,1,0,0,142,142,72,865.061613778,9.62184276432E-06,865.921084729,0.859481215011,,,,z,1,0.850551277632,2018_Nov_13_1539,59.9849361106,chinese_cond2,1,1004
images/corn01.jpg,corn,z,sounds/greatgatsby_chinese.wav,,,,,,,,,0,1,1,0,0,143,143,22,867.018852518,9.94245056063E-06,867.638060911,0.619219619082,,,,z,1,0.600403343327,2018_Nov_13_1539,59.9849361106,chinese_cond2,1,1004
images/teapot.jpg,light switch,x,sounds/greatgatsby_chinese.wav,,,,,,,,,0,1,1,0,0,144,144,197,868.753581452,9.621726349E-06,869.705266524,0.951695334632,,,,x,1,0.933821027284,2018_Nov_13_1539,59.9849361106,chinese_cond2,1,1004
images/electricguitar02.jpg,electric guitar,z,sounds/greatgatsby_chinese.wav,,,,,,,,,0,1,1,0,0,145,145,100,870.805942323,9.621726349E-06,871.439050283,0.633118223283,,,,z,1,0.617068518652,2018_Nov_13_1539,59.9849361106,chinese_cond2,1,1004
images/arrow02.jpg,hammer,x,sounds/greatgatsby_chinese.wav,,,,,,,,,0,1,1,0,0,146,146,184,872.536031333,9.30111855268E-06,873.389558616,0.853536903742,,,,x,1,0.833791488549,2018_Nov_13_1539,59.9849361106,chinese_cond2,1,1004
images/envelope02a.jpg,grand piano,x,sounds/greatgatsby_chinese.wav,,,,,,,,,0,1,1,0,0,147,147,182,874.512251523,8.98027792573E-06,876.090289451,1.57804754993,,,,x,1,1.56733566627,2018_Nov_13_1539,59.9849361106,chinese_cond2,1,1004
images/axe01.jpg,axe,z,sounds/greatgatsby_chinese.wav,,,,,,,,,0,1,1,0,0,148,148,104,877.193513087,9.621726349E-06,878.174167295,0.980663508759,,,,z,1,0.967177998042,2018_Nov_13_1539,59.9849361106,chinese_cond2,1,1004
images/parkfountain.jpg,park fountain,z,sounds/greatgatsby_chinese.wav,,,,,,,,,0,1,1,0,0,149,149,93,879.293259105,9.621726349E-06,880.541439393,1.24819055153,,,,x,0,1.23389424873,2018_Nov_13_1539,59.9849361106,chinese_cond2,1,1004
images/candycane01a.jpg,lip,x,sounds/greatgatsby_chinese.wav,,,,,,,,,0,1,1,0,0,150,150,200,881.634110546,9.621726349E-06,882.408605172,0.774504889268,,,,z,0,0.75044219906,2018_Nov_13_1539,59.9849361106,chinese_cond2,1,1004
images/50dollarbill.jpg,cherry,x,sounds/greatgatsby_chinese.wav,,,,,,,,,0,1,1,0,0,151,151,151,883.52925859,9.621726349E-06,884.57583455,1.04658558103,,,,x,1,1.03384928312,2018_Nov_13_1539,59.9849361106,chinese_cond2,1,1004
images/marker01a.jpg,marker,z,sounds/greatgatsby_chinese.wav,,,,,,,,,0,1,1,0,0,152,152,95,885.672898668,9.94256697595E-06,886.342956357,0.670067952015,,,,z,1,0.650405925117,2018_Nov_13_1539,59.9849361106,chinese_cond2,1,1004
images/bottleofredwine02.jpg,pipe,x,sounds/greatgatsby_chinese.wav,,,,,,,,,0,1,1,0,0,153,153,213,887.440153255,9.621726349E-06,888.243465315,0.803322643507,,,,x,1,0.783727969043,2018_Nov_13_1539,59.9849361106,chinese_cond2,1,1004
images/umbrella01.jpg,umbrella,z,sounds/greatgatsby_chinese.wav,,,,,,,,,0,1,1,0,0,154,154,53,889.355054413,9.30100213736E-06,890.010620798,0.655576007091,,,,z,1,0.633771860157,2018_Nov_13_1539,59.9849361106,chinese_cond2,1,1004
images/bed.jpg,bed,z,sounds/greatgatsby_chinese.wav,,,,,,,,,0,1,1,0,0,155,155,103,891.128702326,9.30100213736E-06,893.06139376,1.93270137743,,,,z,1,1.91741146951,2018_Nov_13_1539,59.9849361106,chinese_cond2,1,1004
images/cactus.jpg,cactus,z,sounds/greatgatsby_chinese.wav,,,,,,,,,0,1,1,0,0,156,156,70,894.171666925,8.98027792573E-06,895.128627917,0.956970614265,,,,x,0,0.933839629404,2018_Nov_13_1539,59.9849361106,chinese_cond2,1,1004
images/tulip02.jpg,sport shorts,x,sounds/greatgatsby_chinese.wav,,,,,,,,,0,1,1,0,0,157,157,225,896.221314144,9.621726349E-06,896.962417802,0.74111360102,,,,x,1,0.717091642902,2018_Nov_13_1539,59.9849361106,chinese_cond2,1,1004
images/egg01b (1).jpg,egg,z,sounds/greatgatsby_chinese.wav,,,,,,,,,0,1,1,0,0,158,158,19,898.073893043,9.30100213736E-06,898.696198996,0.622315574437,,,,z,1,0.600389873027,2018_Nov_13_1539,59.9849361106,chinese_cond2,1,1004
images/corkscrew02a.jpg,masquerade mask,x,sounds/greatgatsby_chinese.wav,,,,,,,,,0,1,1,0,0,159,159,201,899.798703887,9.62184276432E-06,900.513355457,0.714661191334,,,,x,1,0.700433844235,2018_Nov_13_1539,59.9849361106,chinese_cond2,1,1004
images/crocodile.jpg,triangle ruler,x,sounds/greatgatsby_chinese.wav,,,,,,,,,0,1,1,0,0,160,160,235,901.609823669,9.30100213736E-06,902.347161057,0.737347651739,,,,x,1,0.717094208696,2018_Nov_13_1539,59.9849361106,chinese_cond2,1,1004
images/parkbench03.jpg,park bench,z,sounds/greatgatsby_chinese.wav,,,,,,,,,0,1,1,0,0,161,161,71,903.451540906,9.621726349E-06,904.414390403,0.962860081578,,,,z,1,0.950513785006,2018_Nov_13_1539,59.9849361106,chinese_cond2,1,1004
images/fryingpan01.jpg,frying pan,z,sounds/greatgatsby_chinese.wav,,,,,,,,,0,1,1,0,0,162,162,45,905.513781379,9.30100213736E-06,906.198466359,0.684695242555,,,,z,1,0.667326397379,2018_Nov_13_1539,59.9849361106,chinese_cond2,1,1004
images/bandaid01.jpg,door handle,x,sounds/greatgatsby_chinese.wav,,,,,,,,,0,1,1,0,0,163,163,170,907.305360689,9.94245056063E-06,908.082007698,0.776657593437,,,,x,1,0.767115392606,2018_Nov_13_1539,59.9849361106,chinese_cond2,1,1004
images/scooter.jpg,pen,x,sounds/greatgatsby_chinese.wav,,,,,,,,,0,1,1,0,0,164,164,212,909.173619817,9.94245056063E-06,909.882467232,0.70885767811,,,,x,1,0.700427750475,2018_Nov_13_1539,59.9849361106,chinese_cond2,1,1004
images/panda.jpg,panda,z,sounds/greatgatsby_chinese.wav,,,,,,,,,0,1,1,0,0,165,165,83,910.990244197,9.621726349E-06,911.749635256,0.759401322459,,,,z,1,0.750435784576,2018_Nov_13_1539,59.9849361106,chinese_cond2,1,1004
images/belt02a.jpg,snowman,x,sounds/greatgatsby_chinese.wav,,,,,,,,,0,1,1,0,0,166,166,224,912.851511848,9.94245056063E-06,913.516765081,0.665263496223,,,,x,1,0.650406245841,2018_Nov_13_1539,59.9849361106,chinese_cond2,1,1004
images/elbow.jpg,elbow,z,sounds/greatgatsby_chinese.wav,,,,,,,,,0,1,1,0,0,167,167,105,914.626811172,9.621726349E-06,915.500619801,0.873818249791,,,,z,1,0.850473662256,2018_Nov_13_1539,59.9849361106,chinese_cond2,1,1004
images/apple06.jpg,apple,z,sounds/greatgatsby_chinese.wav,,,,,,,,,0,1,1,0,0,168,168,13,916.627034397,9.30100213736E-06,917.251069056,0.624045242788,,,,z,1,0.600397891016,2018_Nov_13_1539,59.9849361106,chinese_cond2,1,1004
images/magnifyingglass01b.jpg,magnifying glass,z,sounds/greatgatsby_chinese.wav,,,,,,,,,0,1,1,0,0,169,169,64,918.356463998,9.30111855268E-06,918.984857305,0.628403570503,,,,z,1,0.617059859098,2018_Nov_13_1539,59.9849361106,chinese_cond2,1,1004
images/chessknight02b (1).jpg,cockroach,x,sounds/greatgatsby_chinese.wav,,,,,,,,,0,1,1,0,0,170,170,155,920.092251324,9.30100213736E-06,921.052065804,0.959824743215,,,,x,1,0.950489089126,2018_Nov_13_1539,59.9849361106,chinese_cond2,1,1004
images/parrot01.jpg,chameleon,x,sounds/greatgatsby_chinese.wav,,,,,,,,,0,1,1,0,0,171,171,150,922.164405077,9.62184276432E-06,923.902827156,1.73843266338,,,,x,1,1.71736265533,2018_Nov_13_1539,59.9849361106,chinese_cond2,1,1004
images/dryingmachine01.jpg,drying machine,z,sounds/greatgatsby_chinese.wav,,,,,,,,,0,1,1,0,0,172,172,18,925.023142531,9.30100213736E-06,925.736628587,0.713495677686,,,,z,1,0.700418770197,2018_Nov_13_1539,59.9849361106,chinese_cond2,1,1004
images/bowl02b (1).jpg,bowl,z,sounds/greatgatsby_chinese.wav,,,,,,,,,0,1,1,0,0,173,173,24,926.852785446,8.98039434105E-06,927.437118879,0.584391163546,,,,z,1,0.56705406995,2018_Nov_13_1539,59.9849361106,chinese_cond2,1,1004
images/medal01.jpg,medal,z,sounds/greatgatsby_chinese.wav,,,,,,,,,0,1,1,0,0,174,174,115,928.537031674,9.621726349E-06,929.287578108,0.750556697836,,,,z,1,0.73378600413,2018_Nov_13_1539,59.9849361106,chinese_cond2,1,1004
images/cookingpot.jpg,grasshopper,x,sounds/greatgatsby_chinese.wav,,,,,,,,,0,1,1,0,0,175,175,183,930.400895271,8.98027792573E-06,931.188060767,0.787175117992,,,,x,1,0.767108015832,2018_Nov_13_1539,59.9849361106,chinese_cond2,1,1004
images/candy.jpg,candy,z,sounds/greatgatsby_chinese.wav,,,,,,,,,0,1,1,0,0,176,176,31,932.289256782,9.62184276432E-06,933.238610505,0.949364307686,,,,z,1,0.933828724665,2018_Nov_13_1539,59.9849361106,chinese_cond2,1,1004
images/cigar.jpg,crocodile,x,sounds/greatgatsby_chinese.wav,,,,,,,,,0,1,1,0,0,177,177,162,934.335712469,9.30100213736E-06,935.189103443,0.853401237167,,,,x,1,0.83378218743,2018_Nov_13_1539,59.9849361106,chinese_cond2,1,1004
images/shotglass.jpg,shot glass,z,sounds/greatgatsby_chinese.wav,,,,,,,,,0,1,1,0,0,178,178,86,936.296253711,8.98027792573E-06,937.089607911,0.79336382146,,,,z,1,0.783781529986,2018_Nov_13_1539,59.9849361106,chinese_cond2,1,1004
images/ceilingfan02.jpg,paper clip,x,sounds/greatgatsby_chinese.wav,,,,,,,,,0,1,1,0,0,179,179,208,938.186268878,9.30100213736E-06,938.973446883,0.787188588409,,,,x,1,0.767112185364,2018_Nov_13_1539,59.9849361106,chinese_cond2,1,1004
images/ashtray02b.jpg,ashtray,z,sounds/greatgatsby_chinese.wav,,,,,,,,,0,1,1,0,0,180,180,43,940.086777195,8.6595537141E-06,940.757263692,0.670495798578,,,,z,1,0.650401435094,2018_Nov_13_1539,59.9849361106,chinese_cond2,1,1004
images/mattress.jpg,cat,x,sounds/greatgatsby_chinese.wav,,,,,,,,,0,1,1,0,0,181,181,147,941.861292989,8.98027792573E-06,942.574384553,0.713101507165,,,,x,1,0.700431278441,2018_Nov_13_1539,59.9849361106,chinese_cond2,1,1004
images/bench02.jpg,electric toothbrush,x,sounds/greatgatsby_chinese.wav,,,,,,,,,0,1,1,0,0,182,182,172,943.682003721,9.30100213736E-06,944.75829835,1.07630489243,,,,x,1,1.06720080157,2018_Nov_13_1539,59.9849361106,chinese_cond2,1,1004
images/spoon02b.jpg,spoon,z,sounds/greatgatsby_chinese.wav,,,,,,,,,0,1,1,0,0,183,183,38,945.8479146,9.621726349E-06,946.875511997,1.02760798077,,,,z,1,1.01717961766,2018_Nov_13_1539,59.9849361106,chinese_cond2,1,1004
images/cola.jpg,comb,x,sounds/greatgatsby_chinese.wav,,,,,,,,,0,1,1,0,0,184,184,157,947.994890856,9.621726349E-06,949.159446994,1.16456608032,,,,x,1,1.15054463863,2018_Nov_13_1539,59.9849361106,chinese_cond2,1,1004
images/feather03b.jpg,feather,z,sounds/greatgatsby_chinese.wav,,,,,,,,,0,1,1,0,0,185,185,114,950.258788578,9.30100213736E-06,950.926601835,0.667822879157,,,,z,1,0.650428696652,2018_Nov_13_1539,59.9849361106,chinese_cond2,1,1004
images/flashlight05.jpg,flash light,z,sounds/greatgatsby_chinese.wav,,,,,,,,,0,1,1,0,0,186,186,8,952.028729876,9.621726349E-06,953.010474548,0.981754614157,,,,z,1,0.967181846732,2018_Nov_13_1539,59.9849361106,chinese_cond2,1,1004
images/bowtie.jpg,bowtie,z,sounds/greatgatsby_chinese.wav,,,,,,,,,0,1,1,0,0,187,187,89,954.120553673,9.30100213736E-06,954.794259285,0.673716195161,,,,z,1,0.650415546959,2018_Nov_13_1539,59.9849361106,chinese_cond2,1,1004
images/orange.jpg,bat,x,sounds/greatgatsby_chinese.wav,,,,,,,,,0,1,1,0,0,188,188,128,955.918040411,9.94245056063E-06,956.744782691,0.826752223191,,,,x,1,0.817142028711,2018_Nov_13_1539,59.9849361106,chinese_cond2,1,1004
images/eraser.jpg,eraser,z,sounds/greatgatsby_chinese.wav,,,,,,,,,0,1,1,0,0,189,189,110,957.85065391,9.30111855268E-06,958.511892311,0.66124834388,,,,z,1,0.650414905511,2018_Nov_13_1539,59.9849361106,chinese_cond2,1,1004
images/donut.jpg,rhinoceros,x,sounds/greatgatsby_chinese.wav,,,,,,,,,0,1,1,0,0,190,190,216,959.636061835,9.30100213736E-06,960.428898705,0.79284713394,,,,x,1,0.783603527816,2018_Nov_13_1539,59.9849361106,chinese_cond2,1,1004
images/ant.jpg,ant,z,sounds/greatgatsby_chinese.wav,,,,,,,,,0,1,1,0,0,191,191,98,961.523033324,9.30100213736E-06,962.496292583,0.973269201233,,,,z,1,0.9504929377,2018_Nov_13_1539,59.9849361106,chinese_cond2,1,1004
images/battery03b.jpg,battery,z,sounds/greatgatsby_chinese.wav,,,,,,,,,0,1,1,0,0,192,192,34,963.604059605,9.30100213736E-06,964.430114252,0.826065230882,,,,z,1,0.817110277014,2018_Nov_13_1539,59.9849361106,chinese_cond2,1,1004
images/apricot.jpg,apricot,z,sounds/greatgatsby_chinese.wav,,,,,,,,,0,1,1,0,0,193,193,32,965.54611171,8.98027792573E-06,966.247257243,0.701155154034,,,,x,0,0.683745576767,2018_Nov_13_1539,59.9849361106,chinese_cond2,1,1004
images/eyedrops.jpg,bicycle,x,sounds/greatgatsby_chinese.wav,,,,,,,,,0,1,1,0,0,194,194,131,967.346895177,9.30111855268E-06,968.697904289,1.35101873393,,,,x,1,1.33392282529,2018_Nov_13_1539,59.9849361106,chinese_cond2,1,1004
images/radish01.jpg,raisin,x,sounds/greatgatsby_chinese.wav,,,,,,,,,0,1,1,0,0,195,195,214,969.80731727,8.98027792573E-06,970.515059467,0.707751819398,,,,x,1,0.683772196993,2018_Nov_13_1539,59.9849361106,chinese_cond2,1,1004
images/calculator02b.jpg,dice,x,sounds/greatgatsby_chinese.wav,,,,,,,,,0,1,1,0,0,196,196,165,971.616196468,8.98027792573E-06,972.532242934,0.916056407848,,,,x,1,0.900476244045,2018_Nov_13_1539,59.9849361106,chinese_cond2,1,1004
images/grandpiano.jpg,tulip,x,sounds/greatgatsby_chinese.wav,,,,,,,,,0,1,1,0,0,197,197,236,973.645807375,9.621726349E-06,974.316053008,0.670255896519,,,,x,1,0.650414584787,2018_Nov_13_1539,59.9849361106,chinese_cond2,1,1004
images/nametag01a.jpg,name tag,z,sounds/greatgatsby_chinese.wav,,,,,,,,,0,1,1,0,0,198,198,108,975.43634946,9.30100213736E-06,976.366582541,0.930242702016,,,,z,1,0.917155531235,2018_Nov_13_1539,59.9849361106,chinese_cond2,1,1004
images/candle08a.jpg,screw driver,x,sounds/greatgatsby_chinese.wav,,,,,,,,,0,1,1,0,0,199,199,221,977.479302834,9.94245056063E-06,978.300436282,0.821143710637,,,,x,1,0.800470118178,2018_Nov_13_1539,59.9849361106,chinese_cond2,1,1004
images/coin01b.jpg,arrow,x,sounds/greatgatsby_chinese.wav,,,,,,,,,0,1,1,0,0,200,200,124,979.40359032,9.30111855268E-06,980.167592118,0.764012060594,,,,x,1,0.750444123521,2018_Nov_13_1539,59.9849361106,chinese_cond2,1,1004
images/lily.jpg,kiwi,x,sounds/greatgatsby_chinese.wav,,,,,,,,,0,1,1,0,0,201,201,190,981.266237729,8.98027792573E-06,981.918039769,0.651811982272,,,,x,1,0.633743315702,2018_Nov_13_1539,59.9849361106,chinese_cond2,1,1004
images/hanger02a.jpg,hanger,z,sounds/greatgatsby_chinese.wav,,,,,,,,,0,1,1,0,0,202,202,88,983.010310016,9.621726349E-06,983.601812928,0.591512855026,,,,x,0,0.567047655582,2018_Nov_13_1539,59.9849361106,chinese_cond2,1,1004
images/beermug01b.jpg,beer mug,z,sounds/greatgatsby_chinese.wav,,,,,,,,,0,1,1,0,0,203,203,111,984.717905963,9.30100213736E-06,986.302516181,1.58462016087,,,,z,1,1.56718781218,2018_Nov_13_1539,59.9849361106,chinese_cond2,1,1004
images/bat.jpg,hand,x,sounds/greatgatsby_chinese.wav,,,,,,,,,0,1,1,0,0,204,204,185,987.399410316,9.621726349E-06,988.336392726,0.936992673669,,,,x,1,0.917155210511,2018_Nov_13_1539,59.9849361106,chinese_cond2,1,1004
images/volleyball.jpg,volley ball,z,sounds/greatgatsby_chinese.wav,,,,,,,,,0,1,1,0,0,205,205,2,989.468020381,9.94245056063E-06,990.3702558,0.902245361474,,,,z,1,0.883806578582,2018_Nov_13_1539,59.9849361106,chinese_cond2,1,1004
images/sunglasses03a.jpg,sun glasses,z,sounds/greatgatsby_chinese.wav,,,,,,,,,0,1,1,0,0,206,206,17,991.477452253,9.621726349E-06,992.104057841,0.626615209505,,,,z,1,0.617084234138,2018_Nov_13_1539,59.9849361106,chinese_cond2,1,1004
