images,name,corrAns,sounds,trials_3.thisRepN,trials_3.thisTrialN,trials_3.thisN,trials_3.thisIndex,trials_4.thisRepN,trials_4.thisTrialN,trials_4.thisN,trials_4.thisIndex,trials_2.thisRepN,trials_2.thisTrialN,trials_2.thisN,trials_2.thisIndex,trials.thisRepN,trials.thisTrialN,trials.thisN,trials.thisIndex,begin_global,begin_routine,end_global,end_routine,key_resp_2.keys,key_resp_2.corr,key_resp_2.rt,begin_book,key_resp_1.keys,key_resp_1.corr,key_resp_1.rt,date,frameRate,expName,session,participant
images\volleyball.jpg,volley ball,z,,0,0,0,0,,,,,,,,,,,,,,,,,,,,,,,,2018_Nov_13_1539,60.0026750081,spanish_cond1,1,1005
images\puma.jpg,puma,z,,,,,,0,0,0,0,,,,,,,,,48.1753441959,9.94256697595E-06,50.3307125681,2.1553795978,z,1,2.13397076703,,,,,2018_Nov_13_1539,60.0026750081,spanish_cond1,1,1005
images\notebook02b.jpg,notebook,z,sounds\greatgatsby_english.wav,,,,,,,,,0,0,0,0,0,0,0,7,92.5144472964,9.94245056063E-06,93.992622002,1.47818496882,,,,82.3278058218,z,1,1.46730559703,2018_Nov_13_1539,60.0026750081,spanish_cond1,1,1005
images\clothespin02a.jpg,clothes pin,z,sounds\greatgatsby_english.wav,,,,,,,,,0,0,0,0,0,1,1,79,95.1052108794,9.30111855268E-06,96.1431669649,1.03796602797,,,,,z,1,1.01714573079,2018_Nov_13_1539,60.0026750081,spanish_cond1,1,1005
images\antelope.jpg,antelope,z,sounds\greatgatsby_english.wav,,,,,,,,,0,0,0,0,0,2,2,12,97.2478354954,8.98027792573E-06,98.2937407931,1.04591491946,,,,,z,1,1.03375873459,2018_Nov_13_1539,60.0026750081,spanish_cond1,1,1005
images\acousticguitar02.jpg,acoustic guitar,z,sounds\greatgatsby_english.wav,,,,,,,,,0,0,0,0,0,3,3,97,99.4077325292,9.30111855268E-06,100.444324564,1.03660197719,,,,,z,1,1.01714797597,2018_Nov_13_1539,60.0026750081,spanish_cond1,1,1005
images\seagull.jpg,seagull,z,sounds\greatgatsby_english.wav,,,,,,,,,0,0,0,0,0,4,4,50,101.553448951,8.6595537141E-06,102.578229582,1.02478993195,,,,,z,1,1.00047692074,2018_Nov_13_1539,60.0026750081,spanish_cond1,1,1005
images\battery03b.jpg,battery,z,sounds\greatgatsby_english.wav,,,,,,,,,0,0,0,0,0,5,5,34,103.688951509,5.74100995436E-05,104.612124625,0.923207754968,,,,,z,1,0.900464059552,2018_Nov_13_1539,60.0026750081,spanish_cond1,1,1005
images\lychee02a.jpg,lychee,z,sounds\greatgatsby_english.wav,,,,,,,,,0,0,0,0,0,6,6,62,105.737185283,9.30111855268E-06,106.929403554,1.19222789304,,,,,z,1,1.18386750901,2018_Nov_13_1539,60.0026750081,spanish_cond1,1,1005
images\cheetah.jpg,cheetah,z,sounds\greatgatsby_english.wav,,,,,,,,,0,0,0,0,0,7,7,82,108.033375466,8.65967012942E-06,108.763231501,0.729865657282,,,,,z,1,0.717073791893,2018_Nov_13_1539,60.0026750081,spanish_cond1,1,1005
images\remotecontrol01c.jpg,remote control,z,sounds\greatgatsby_english.wav,,,,,,,,,0,0,0,0,0,8,8,85,109.872934159,9.62184276432E-06,110.780456131,0.907531594043,,,,,z,1,0.883806474856,2018_Nov_13_1539,60.0026750081,spanish_cond1,1,1005
images\plate01b.jpg,plate,z,sounds\greatgatsby_english.wav,,,,,,,,,0,0,0,0,0,9,9,3,111.880464502,9.30111855268E-06,113.031053725,1.15059884498,,,,,z,1,1.13386364433,2018_Nov_13_1539,60.0026750081,spanish_cond1,1,1005
images\giraffe.jpg,lettuce,x,sounds\greatgatsby_english.wav,,,,,,,,,0,0,0,0,0,10,10,195,114.131658006,8.98027792573E-06,115.148281915,1.01663320954,,,,,x,1,1.00048269378,2018_Nov_13_1539,60.0026750081,spanish_cond1,1,1005
images\thumbtack02a.jpg,thumb tack,z,sounds\greatgatsby_english.wav,,,,,,,,,0,0,0,0,0,11,11,60,116.260142743,8.98039434105E-06,117.482249218,1.22211641807,,,,,z,1,1.20053952653,2018_Nov_13_1539,60.0026750081,spanish_cond1,1,1005
images\cloud.jpg,ceiling fan,x,sounds\greatgatsby_english.wav,,,,,,,,,0,0,0,0,0,12,12,149,118.588893425,9.94256697595E-06,119.616158406,1.02727556427,,,,,x,1,1.01715214539,2018_Nov_13_1539,60.0026750081,spanish_cond1,1,1005
images\apple06.jpg,apple,z,sounds\greatgatsby_english.wav,,,,,,,,,0,0,0,0,0,13,13,13,120.74254623,8.6595537141E-06,121.533323989,0.790787060163,,,,,z,1,0.767061620252,2018_Nov_13_1539,60.0026750081,spanish_cond1,1,1005
images\mushroom01.jpg,shower head,x,sounds\greatgatsby_english.wav,,,,,,,,,0,0,0,0,0,14,14,222,122.650727296,9.30111855268E-06,123.883961065,1.23324339092,,,,,x,1,1.21720063931,2018_Nov_13_1539,60.0026750081,spanish_cond1,1,1005
images\nailclipper03a.jpg,aquarium,x,sounds\greatgatsby_english.wav,,,,,,,,,0,0,0,0,0,15,15,123,124.982671455,8.98039434105E-06,126.217936707,1.23527519486,,,,,x,1,1.21721924143,2018_Nov_13_1539,60.0026750081,spanish_cond1,1,1005
images\ashtray02b.jpg,ashtray,z,sounds\greatgatsby_english.wav,,,,,,,,,0,0,0,0,0,16,16,43,127.331344079,9.62184276432E-06,128.801943219,1.47060940322,,,,,z,1,1.45060054469,2018_Nov_13_1539,60.0026750081,spanish_cond1,1,1005
images\medal01.jpg,medal,z,sounds\greatgatsby_english.wav,,,,,,,,,0,0,0,0,0,17,17,115,129.903787109,9.62184276432E-06,131.019216663,1.11543981743,,,,,z,1,1.10050100728,2018_Nov_13_1539,60.0026750081,spanish_cond1,1,1005
images\swallow.jpg,mattress,x,sounds\greatgatsby_english.wav,,,,,,,,,0,0,0,0,0,18,18,202,132.120728601,8.98039434105E-06,133.319831913,1.19911261334,,,,,x,1,1.18386590539,2018_Nov_13_1539,60.0026750081,spanish_cond1,1,1005
images\hairdryer03a.jpg,hairdryer,z,sounds\greatgatsby_english.wav,,,,,,,,,0,0,0,0,0,19,19,119,134.41869978,8.98039434105E-06,135.270357248,0.851667089504,,,,,z,1,0.833773744642,2018_Nov_13_1539,60.0026750081,spanish_cond1,1,1005
images\beachumbrella01.jpg,beach umbrella,z,sounds\greatgatsby_english.wav,,,,,,,,,0,0,0,0,0,20,20,92,136.377711544,9.62184276432E-06,137.687666678,1.30996571749,,,,,z,1,1.300561368,2018_Nov_13_1539,60.0026750081,spanish_cond1,1,1005
images\umbrella01.jpg,umbrella,z,sounds\greatgatsby_english.wav,,,,,,,,,0,0,0,0,0,21,21,53,138.800366206,9.94245056063E-06,139.92161695,1.12126100773,,,,,z,1,1.10051576071,2018_Nov_13_1539,60.0026750081,spanish_cond1,1,1005
images\panda.jpg,panda,z,sounds\greatgatsby_english.wav,,,,,,,,,0,0,0,0,0,22,22,83,141.030809652,8.6595537141E-06,142.205555372,1.17475502088,,,,,z,1,1.15052764362,2018_Nov_13_1539,60.0026750081,spanish_cond1,1,1005
images\hammer02a.jpg,flower,x,sounds\greatgatsby_english.wav,,,,,,,,,0,0,0,0,0,23,23,176,143.30170091,8.98027792573E-06,144.222623487,0.920932198642,,,,,x,1,0.900315883802,2018_Nov_13_1539,60.0026750081,spanish_cond1,1,1005
images\radish01.jpg,raisin,x,sounds\greatgatsby_english.wav,,,,,,,,,0,0,0,0,0,24,24,214,145.333882952,8.98039434105E-06,146.690088806,1.35621547571,,,,,x,1,1.333908931,2018_Nov_13_1539,60.0026750081,spanish_cond1,1,1005
images\barrel01.jpg,barrel,z,sounds\greatgatsby_english.wav,,,,,,,,,0,0,0,0,0,25,25,9,147.819753817,9.62184276432E-06,148.723969737,0.904225542792,,,,,z,1,0.883790759137,2018_Nov_13_1539,60.0026750081,spanish_cond1,1,1005
images\safe.jpg,safe,z,sounds\greatgatsby_english.wav,,,,,,,,,0,0,0,0,0,26,26,78,149.836254887,9.30111855268E-06,150.907892412,1.07164714672,,,,,z,1,1.05049585958,2018_Nov_13_1539,60.0026750081,spanish_cond1,1,1005
images\mattress.jpg,cat,x,sounds\greatgatsby_english.wav,,,,,,,,,0,0,0,0,0,27,27,147,152.012987188,8.65967012942E-06,152.85842416,0.845446915133,,,,,x,1,0.833776310435,2018_Nov_13_1539,60.0026750081,spanish_cond1,1,1005
images\tent.jpg,tent,z,sounds\greatgatsby_english.wav,,,,,,,,,0,0,0,0,0,28,28,11,153.984265788,9.30111855268E-06,154.758927349,0.774671182968,,,,,z,1,0.750417185249,2018_Nov_13_1539,60.0026750081,spanish_cond1,1,1005
images\50dollarbill.jpg,cherry,x,sounds\greatgatsby_english.wav,,,,,,,,,0,0,0,0,0,29,29,151,155.879805409,9.621726349E-06,157.009533602,1.12973845692,,,,,x,1,1.11718521232,2018_Nov_13_1539,60.0026750081,spanish_cond1,1,1005
images\beermug01b.jpg,beer mug,z,sounds\greatgatsby_english.wav,,,,,,,,,0,0,0,0,0,30,30,111,158.127619095,9.30111855268E-06,159.276987953,1.14937847969,,,,,z,1,1.13403651596,2018_Nov_13_1539,60.0026750081,spanish_cond1,1,1005
images\parrot01.jpg,chameleon,x,sounds\greatgatsby_english.wav,,,,,,,,,0,0,0,0,0,31,31,150,160.391269305,9.621726349E-06,162.144256474,1.75299711118,,,,,x,1,1.73402772809,2018_Nov_13_1539,60.0026750081,spanish_cond1,1,1005
images\electricguitar02.jpg,electric guitar,z,sounds\greatgatsby_english.wav,,,,,,,,,0,0,0,0,0,32,32,100,163.24755967,8.98027792573E-06,164.294832868,1.04728249833,,,,,z,1,1.03383827477,2018_Nov_13_1539,60.0026750081,spanish_cond1,1,1005
images\microphone01.jpg,diaper,x,sounds\greatgatsby_english.wav,,,,,,,,,0,0,0,0,0,33,33,164,165.394834503,8.98039434105E-06,166.428729868,1.03390498599,,,,,x,1,1.01715984277,2018_Nov_13_1539,60.0026750081,spanish_cond1,1,1005
images\calculator02b.jpg,dice,x,sounds\greatgatsby_english.wav,,,,,,,,,0,0,0,0,0,34,34,165,167.530480747,8.6595537141E-06,168.629332898,1.0988617728,,,,,x,1,1.08385047852,2018_Nov_13_1539,60.0026750081,spanish_cond1,1,1005
images\pipe.jpg,icecube,x,sounds\greatgatsby_english.wav,,,,,,,,,0,0,0,0,0,35,35,188,169.739368149,9.62184276432E-06,170.979949768,1.24059188203,,,,,x,1,1.21720929898,2018_Nov_13_1539,60.0026750081,spanish_cond1,1,1005
images\eraser.jpg,eraser,z,sounds\greatgatsby_english.wav,,,,,,,,,0,0,0,0,0,36,36,110,172.088289978,9.94245056063E-06,173.397272668,1.308993274,,,,,z,1,1.30053154042,2018_Nov_13_1539,60.0026750081,spanish_cond1,1,1005
images\computerkeyboard01a.jpg,computer keyboard,z,sounds\greatgatsby_english.wav,,,,,,,,,0,0,0,0,0,37,37,61,174.515368424,9.30111855268E-06,175.447828504,0.932470022468,,,,,z,1,0.917139284196,2018_Nov_13_1539,60.0026750081,spanish_cond1,1,1005
images\gps.jpg,gps,z,sounds\greatgatsby_english.wav,,,,,,,,,0,0,0,0,0,38,38,21,176.566216762,8.98027792573E-06,177.681761778,1.11555527896,,,,,z,1,1.1005234581,2018_Nov_13_1539,60.0026750081,spanish_cond1,1,1005
images\electrictoothbrush01a.jpg,banjo,x,sounds\greatgatsby_english.wav,,,,,,,,,0,0,0,0,0,39,39,127,178.776182768,8.98039434105E-06,179.765685061,0.989512235625,,,,,x,1,0.967183560599,2018_Nov_13_1539,60.0026750081,spanish_cond1,1,1005
images\apricot.jpg,apricot,z,sounds\greatgatsby_english.wav,,,,,,,,,0,0,0,0,0,40,40,32,180.882345885,8.6595537141E-06,181.849543237,0.967206652858,,,,,z,1,0.950474338839,2018_Nov_13_1539,60.0026750081,spanish_cond1,1,1005
images\lamp04b.jpg,parking meter,x,sounds\greatgatsby_english.wav,,,,,,,,,0,0,0,0,0,41,41,209,182.970551191,8.98039434105E-06,184.250175197,1.27963330678,,,,,x,1,1.26721380511,2018_Nov_13_1539,60.0026750081,spanish_cond1,1,1005
images\globe.jpg,cloud,x,sounds\greatgatsby_english.wav,,,,,,,,,0,0,0,0,0,42,42,154,185.379393756,9.30111855268E-06,186.250725243,0.871340788552,,,,,x,1,0.850446403492,2018_Nov_13_1539,60.0026750081,spanish_cond1,1,1005
images\rhinoceros01.jpg,envelope,x,sounds\greatgatsby_english.wav,,,,,,,,,0,0,0,0,0,43,43,173,187.36362715,8.98039434105E-06,188.451310955,1.08769342629,,,,,x,1,1.06716466974,2018_Nov_13_1539,60.0026750081,spanish_cond1,1,1005
images\boxingglove02a.jpg,bracelet,x,sounds\greatgatsby_english.wav,,,,,,,,,0,0,0,0,0,44,44,135,189.562347514,9.30100213736E-06,190.75192877,1.18959151919,,,,,x,1,1.16719260509,2018_Nov_13_1539,60.0026750081,spanish_cond1,1,1005
images\saltshaker03c.jpg,salt shaker,z,sounds\greatgatsby_english.wav,,,,,,,,,0,0,0,0,0,45,45,63,191.862985215,8.98039434105E-06,192.869172996,1.00619740284,,,,,z,1,0.98381997738,2018_Nov_13_1539,60.0026750081,spanish_cond1,1,1005
images\triangleruler02.jpg,bottle of red wine,x,sounds\greatgatsby_english.wav,,,,,,,,,0,0,0,0,0,46,46,134,193.981313177,9.30111855268E-06,195.003079939,1.02177670435,,,,,x,1,1.00048397668,2018_Nov_13_1539,60.0026750081,spanish_cond1,1,1005
images\tank.jpg,wallet,x,sounds\greatgatsby_english.wav,,,,,,,,,0,0,0,0,0,47,47,237,196.108919122,9.30111855268E-06,197.25368042,1.14477124007,,,,,x,1,1.13385530538,2018_Nov_13_1539,60.0026750081,spanish_cond1,1,1005
images\aquarium.jpg,computer mouse,x,sounds\greatgatsby_english.wav,,,,,,,,,0,0,0,0,0,48,48,159,198.389708007,9.30111855268E-06,199.404260021,1.01456195617,,,,,x,1,1.00048846682,2018_Nov_13_1539,60.0026750081,spanish_cond1,1,1005
images\tape01a.jpg,tie,x,sounds\greatgatsby_english.wav,,,,,,,,,0,0,0,0,0,49,49,232,200.529698494,9.62184276432E-06,201.588179808,1.05849093571,,,,,x,1,1.03382704942,2018_Nov_13_1539,60.0026750081,spanish_cond1,1,1005
images\cauliflower01.jpg,glue stick,x,sounds\greatgatsby_english.wav,,,,,,,,,0,0,0,0,0,50,50,181,202.70543109,8.65967012942E-06,203.722138708,1.01671756071,,,,,x,1,1.00053657591,2018_Nov_13_1539,60.0026750081,spanish_cond1,1,1005
images\pingpongpaddle01c (1).jpg,ping pong paddle,z,sounds\greatgatsby_english.wav,,,,,,,,,0,0,0,0,0,51,51,10,204.834584862,9.30111855268E-06,206.056056299,1.22148073767,,,,,z,1,1.20055171417,2018_Nov_13_1539,60.0026750081,spanish_cond1,1,1005
images\donut.jpg,rhinoceros,x,sounds\greatgatsby_english.wav,,,,,,,,,0,0,0,0,0,52,52,216,207.257357231,9.30100213736E-06,208.106597702,0.849250413477,,,,,x,1,0.833771178848,2018_Nov_13_1539,60.0026750081,spanish_cond1,1,1005
images\screwdriver02b.jpg,cola,x,sounds\greatgatsby_english.wav,,,,,,,,,0,0,0,0,0,53,53,158,209.201761816,9.30111855268E-06,210.023776435,0.82202456193,,,,,x,1,0.800429709721,2018_Nov_13_1539,60.0026750081,spanish_cond1,1,1005
images\glasses01b.jpg,calculator,x,sounds\greatgatsby_english.wav,,,,,,,,,0,0,0,0,0,54,54,142,211.117922242,8.98039434105E-06,212.091008137,0.973096158123,,,,,x,1,0.950484281406,2018_Nov_13_1539,60.0026750081,spanish_cond1,1,1005
images\dresser02.jpg,dresser,z,sounds\greatgatsby_english.wav,,,,,,,,,0,0,0,0,0,55,55,87,213.213643459,8.98039434105E-06,214.141554992,0.927922758739,,,,,z,1,0.917122606421,2018_Nov_13_1539,60.0026750081,spanish_cond1,1,1005
images\floorlamp.jpg,floor lamp,z,sounds\greatgatsby_english.wav,,,,,,,,,0,0,0,0,0,56,56,26,215.23515845,9.30100213736E-06,216.775608346,1.5404598387,,,,,z,1,1.51727931353,2018_Nov_13_1539,60.0026750081,spanish_cond1,1,1005
images\cookingpot.jpg,grasshopper,x,sounds\greatgatsby_english.wav,,,,,,,,,0,0,0,0,0,57,57,183,217.889314315,9.30100213736E-06,218.659436951,0.770132578793,,,,,x,1,0.750414298731,2018_Nov_13_1539,60.0026750081,spanish_cond1,1,1005
images\chessknight02b (1).jpg,cockroach,x,sounds\greatgatsby_english.wav,,,,,,,,,0,0,0,0,0,58,58,155,219.852348634,9.62184276432E-06,221.160114166,1.30777611607,,,,,x,1,1.28390314174,2018_Nov_13_1539,60.0026750081,spanish_cond1,1,1005
images\licenseplate.jpg,license plate,z,sounds\greatgatsby_english.wav,,,,,,,,,0,0,0,0,0,59,59,40,222.277430555,8.98039434105E-06,223.277341714,0.999920459813,,,,,z,1,0.983817090746,2018_Nov_13_1539,60.0026750081,spanish_cond1,1,1005
images\djmixer01.jpg,light bulb,x,sounds\greatgatsby_english.wav,,,,,,,,,0,0,0,0,0,60,60,196,224.398835249,9.30111855268E-06,225.411096632,1.01227228809,,,,,x,1,1.00033355586,2018_Nov_13_1539,60.0026750081,spanish_cond1,1,1005
images\bracelet02a.jpg,chess knight,x,sounds\greatgatsby_english.wav,,,,,,,,,0,0,0,0,0,61,61,152,226.519640504,8.98039434105E-06,227.528488392,1.00885783124,,,,,x,1,1.00048942911,2018_Nov_13_1539,60.0026750081,spanish_cond1,1,1005
images\elbow.jpg,elbow,z,sounds\greatgatsby_english.wav,,,,,,,,,0,0,0,0,0,62,62,105,228.639601606,9.30111855268E-06,229.479013727,0.839422384044,,,,,z,1,0.81710301002,2018_Nov_13_1539,60.0026750081,spanish_cond1,1,1005
images\grandpiano.jpg,tulip,x,sounds\greatgatsby_english.wav,,,,,,,,,0,0,0,0,0,63,63,236,230.592983654,9.94256697595E-06,231.779628015,1.18665430369,,,,,x,1,1.16720383056,2018_Nov_13_1539,60.0026750081,spanish_cond1,1,1005
images\table02.jpg,table,z,sounds\greatgatsby_english.wav,,,,,,,,,0,0,0,0,0,64,64,49,232.893873446,8.98027792573E-06,233.646869915,0.753006412298,,,,,x,0,0.733819255722,2018_Nov_13_1539,60.0026750081,spanish_cond1,1,1005
images\dryingmachine01.jpg,drying machine,z,sounds\greatgatsby_english.wav,,,,,,,,,0,0,0,0,0,65,65,18,234.767518656,8.65967012942E-06,235.814048409,1.04653937451,,,,,z,1,1.03382929438,2018_Nov_13_1539,60.0026750081,spanish_cond1,1,1005
images\doll.jpg,carrot,x,sounds\greatgatsby_english.wav,,,,,,,,,0,0,0,0,0,66,66,146,236.926330992,9.30100213736E-06,237.697892729,0.771571679623,,,,,x,1,0.750421996228,2018_Nov_13_1539,60.0026750081,spanish_cond1,1,1005
images\lily.jpg,kiwi,x,sounds\greatgatsby_english.wav,,,,,,,,,0,0,0,0,0,67,67,190,238.797313849,8.98039434105E-06,239.781769828,0.984465921065,,,,,x,1,0.967140583205,2018_Nov_13_1539,60.0026750081,spanish_cond1,1,1005
images\volleyball.jpg,volley ball,z,sounds\greatgatsby_english.wav,,,,,,,,,0,0,0,0,0,68,68,2,240.913331616,9.621726349E-06,241.648953356,0.735631682561,,,,,z,1,0.717088545323,2018_Nov_13_1539,60.0026750081,spanish_cond1,1,1005
images\ostrich.jpg,ostrich,z,sounds\greatgatsby_english.wav,,,,,,,,,0,0,0,0,0,69,69,76,242.749297207,8.98039434105E-06,243.666155856,0.916868270142,,,,,z,1,0.900454758434,2018_Nov_13_1539,60.0026750081,spanish_cond1,1,1005
images\gorilla.jpg,gorilla,z,sounds\greatgatsby_english.wav,,,,,,,,,0,0,0,0,0,70,70,80,244.776887084,8.98039434105E-06,246.066803211,1.28992606932,,,,,z,1,1.26723369013,2018_Nov_13_1539,60.0026750081,spanish_cond1,1,1005
images\arrow02.jpg,hammer,x,sounds\greatgatsby_english.wav,,,,,,,,,0,0,0,0,0,71,71,184,247.164913521,9.30100213736E-06,248.050667128,0.885763228638,,,,,x,1,0.867106233374,2018_Nov_13_1539,60.0026750081,spanish_cond1,1,1005
images\grasshopper.jpg,cauliflower,x,sounds\greatgatsby_english.wav,,,,,,,,,0,0,0,0,0,72,72,148,249.144583936,8.98027792573E-06,250.051201138,0.9066265031,,,,,x,1,0.883779854514,2018_Nov_13_1539,60.0026750081,spanish_cond1,1,1005
images\mirror02.jpg,8 ball,x,sounds\greatgatsby_english.wav,,,,,,,,,0,0,0,0,0,73,73,121,251.154207662,9.30111855268E-06,252.018417092,0.86421905132,,,,,x,1,0.850457628956,2018_Nov_13_1539,60.0026750081,spanish_cond1,1,1005
images\blueberry02.jpg,blueberry,z,sounds\greatgatsby_english.wav,,,,,,,,,0,0,0,0,0,74,74,46,253.132243012,8.98039434105E-06,254.769172644,1.63693957415,,,,,z,1,1.61735279206,2018_Nov_13_1539,60.0026750081,spanish_cond1,1,1005
images\peach01.jpg,peach,z,sounds\greatgatsby_english.wav,,,,,,,,,0,0,0,0,0,75,75,106,255.898002161,9.30111855268E-06,256.486262151,0.588270253385,,,,,z,1,0.567035897984,2018_Nov_13_1539,60.0026750081,spanish_cond1,1,1005
images\highheelshoe02a.jpg,high heel shoe,z,sounds\greatgatsby_english.wav,,,,,,,,,0,0,0,0,0,76,76,75,257.592804046,8.98039434105E-06,258.536815741,0.944021637551,,,,,z,1,0.933750684373,2018_Nov_13_1539,60.0026750081,spanish_cond1,1,1005
images\stapler03a.jpg,candy cane,x,sounds\greatgatsby_english.wav,,,,,,,,,0,0,0,0,0,77,77,145,259.648814482,9.30100213736E-06,260.837438048,1.18863318767,,,,,x,1,1.16719164292,2018_Nov_13_1539,60.0026750081,spanish_cond1,1,1005
images\key03b.jpg,cigar,x,sounds\greatgatsby_english.wav,,,,,,,,,0,0,0,0,0,78,78,153,261.940600125,9.62184276432E-06,262.72127884,0.780688337283,,,,,x,1,0.767097220989,2018_Nov_13_1539,60.0026750081,spanish_cond1,1,1005
images\button07.jpg,radish,x,sounds\greatgatsby_english.wav,,,,,,,,,0,0,0,0,0,79,79,215,263.834465552,8.65967012942E-06,265.488688128,1.65423219779,,,,,x,1,1.63399305753,2018_Nov_13_1539,60.0026750081,spanish_cond1,1,1005
images\candycane01a.jpg,lip,x,sounds\greatgatsby_english.wav,,,,,,,,,0,0,0,0,0,80,80,200,266.584027039,8.98039434105E-06,267.605936524,1.0219197484,,,,,x,1,1.00049776782,2018_Nov_13_1539,60.0026750081,spanish_cond1,1,1005
images\bottleofredwine02.jpg,pipe,x,sounds\greatgatsby_english.wav,,,,,,,,,0,0,0,0,0,81,81,213,268.705593378,8.98039434105E-06,269.623169492,0.917586056632,,,,,x,1,0.900493887137,2018_Nov_13_1539,60.0026750081,spanish_cond1,1,1005
images\gluestick.jpg,squirrel,x,sounds\greatgatsby_english.wav,,,,,,,,,0,0,0,0,0,82,82,226,270.731250555,8.98039434105E-06,271.840385847,1.10914491373,,,,,x,1,1.10049780004,2018_Nov_13_1539,60.0026750081,spanish_cond1,1,1005
images\corn01.jpg,corn,z,sounds\greatgatsby_english.wav,,,,,,,,,0,0,0,0,0,83,83,22,272.940090811,9.30100213736E-06,274.057653839,1.11757297092,,,,,z,1,1.10050774249,2018_Nov_13_1539,60.0026750081,spanish_cond1,1,1005
images\screw03c.jpg,screw,z,sounds\greatgatsby_english.wav,,,,,,,,,0,0,0,0,0,84,84,84,275.151680977,9.94256697595E-06,276.191588364,1.03991700883,,,,,z,1,1.0171861425,2018_Nov_13_1539,60.0026750081,spanish_cond1,1,1005
images\ear.jpg,bullet,x,sounds\greatgatsby_english.wav,,,,,,,,,0,0,0,0,0,85,85,139,277.296685706,9.30111855268E-06,278.225450693,0.928775250446,,,,,x,1,0.917136397678,2018_Nov_13_1539,60.0026750081,spanish_cond1,1,1005
images\tie01.jpg,bench,x,sounds\greatgatsby_english.wav,,,,,,,,,0,0,0,0,0,86,86,130,279.325222047,9.30111855268E-06,280.376020993,1.05080856814,,,,,x,1,1.03381165443,2018_Nov_13_1539,60.0026750081,spanish_cond1,1,1005
images\lemon02.jpg,lemon,z,sounds\greatgatsby_english.wav,,,,,,,,,0,0,0,0,0,87,87,14,281.488751953,9.30100213736E-06,282.093144498,0.604402166908,,,,,z,1,0.58368963399,2018_Nov_13_1539,60.0026750081,spanish_cond1,1,1005
images\tissuebox03.jpg,tissue box,z,sounds\greatgatsby_english.wav,,,,,,,,,0,0,0,0,0,88,88,58,283.218053772,8.6595537141E-06,284.060342491,0.842298340634,,,,,z,1,0.833775348263,2018_Nov_13_1539,60.0026750081,spanish_cond1,1,1005
images\egg01b (1).jpg,egg,z,sounds\greatgatsby_english.wav,,,,,,,,,0,0,0,0,0,89,89,19,285.175563252,9.30111855268E-06,285.81081837,0.635264739161,,,,,z,1,0.617056761286,2018_Nov_13_1539,60.0026750081,spanish_cond1,1,1005
images\bed.jpg,bed,z,sounds\greatgatsby_english.wav,,,,,,,,,0,0,0,0,0,90,90,103,286.92984295,9.62184276432E-06,287.727997424,0.798164737527,,,,,z,1,0.783760578837,2018_Nov_13_1539,60.0026750081,spanish_cond1,1,1005
images\radio03a.jpg,radio,z,sounds\greatgatsby_english.wav,,,,,,,,,0,0,0,0,0,91,91,37,288.843342627,9.62184276432E-06,290.02861524,1.18528255553,,,,,z,1,1.16718779423,2018_Nov_13_1539,60.0026750081,spanish_cond1,1,1005
images\sock03.jpg,sock,z,sounds\greatgatsby_english.wav,,,,,,,,,0,0,0,0,0,92,92,90,291.135521802,9.621726349E-06,291.929153708,0.793641848839,,,,,z,1,0.783790085581,2018_Nov_13_1539,60.0026750081,spanish_cond1,1,1005
images\knife04.jpg,tooth brush,x,sounds\greatgatsby_english.wav,,,,,,,,,0,0,0,0,0,93,93,233,293.027386215,8.6595537141E-06,293.912995174,0.885618580854,,,,,x,1,0.867120024632,2018_Nov_13_1539,60.0026750081,spanish_cond1,1,1005
images\binder03b.jpg,dj mixer,x,sounds\greatgatsby_english.wav,,,,,,,,,0,0,0,0,0,94,94,167,295.026026334,8.98027792573E-06,296.396992994,1.37097628252,,,,,x,1,1.35057870322,2018_Nov_13_1539,60.0026750081,spanish_cond1,1,1005
images\bull.jpg,button,x,sounds\greatgatsby_english.wav,,,,,,,,,0,0,0,0,0,95,95,141,297.503983586,8.98027792573E-06,298.464224055,0.960250731325,,,,,x,1,0.950483319117,2018_Nov_13_1539,60.0026750081,spanish_cond1,1,1005
images\candle08a.jpg,screw driver,x,sounds\greatgatsby_english.wav,,,,,,,,,0,0,0,0,0,96,96,221,299.579271302,9.30111855268E-06,300.448078991,0.868817310547,,,,,x,1,0.850441592629,2018_Nov_13_1539,60.0026750081,spanish_cond1,1,1005
images\weight01.jpg,weight,z,sounds\greatgatsby_english.wav,,,,,,,,,0,0,0,0,0,97,97,67,301.554021128,8.98027792573E-06,302.715364639,1.16135345399,,,,,z,1,1.15053566173,2018_Nov_13_1539,60.0026750081,spanish_cond1,1,1005
images\scissors04a.jpg,leek,x,sounds\greatgatsby_english.wav,,,,,,,,,0,0,0,0,0,98,98,194,303.811187847,9.30111855268E-06,304.865944561,1.05476665683,,,,,x,1,1.03383153956,2018_Nov_13_1539,60.0026750081,spanish_cond1,1,1005
images\belt02a.jpg,snowman,x,sounds\greatgatsby_english.wav,,,,,,,,,0,0,0,0,0,99,99,224,305.971391175,9.30111855268E-06,306.883145136,0.91176358331,,,,,x,1,0.900460531586,2018_Nov_13_1539,60.0026750081,spanish_cond1,1,1005
images\razor04a.jpg,razor,z,sounds\greatgatsby_english.wav,,,,,,,,,0,0,0,0,0,100,100,36,307.9835387,9.30111855268E-06,308.800574037,0.81706131564,,,,,z,1,0.800590073108,2018_Nov_13_1539,60.0026750081,spanish_cond1,1,1005
images\croissant02b.jpg,croissant,z,sounds\greatgatsby_english.wav,,,,,,,,,0,0,0,0,0,101,101,39,309.913007362,8.98027792573E-06,310.767710771,0.854713672772,,,,,z,1,0.833966180566,2018_Nov_13_1539,60.0026750081,spanish_cond1,1,1005
images\bullet (2).jpg,rubber glove,x,sounds\greatgatsby_english.wav,,,,,,,,,0,0,0,0,0,102,102,217,311.872536458,9.62184276432E-06,313.13483256,1.2623063653,,,,,x,1,1.25055878621,2018_Nov_13_1539,60.0026750081,spanish_cond1,1,1005
images\eyedrops.jpg,bicycle,x,sounds\greatgatsby_english.wav,,,,,,,,,0,0,0,0,0,103,103,131,314.235502269,8.98039434105E-06,315.168711888,0.933219240163,,,,,x,1,0.917133831885,2018_Nov_13_1539,60.0026750081,spanish_cond1,1,1005
images\bowtie.jpg,bowtie,z,sounds\greatgatsby_english.wav,,,,,,,,,0,0,0,0,0,104,104,89,316.280229858,9.30111855268E-06,317.085882924,0.805662687169,,,,,z,1,0.783759295824,2018_Nov_13_1539,60.0026750081,spanish_cond1,1,1005
images\honeycomb.jpg,honey comb,z,sounds\greatgatsby_english.wav,,,,,,,,,0,0,0,0,0,105,105,59,318.201010674,9.30111855268E-06,319.169782473,0.968781421194,,,,,z,1,0.950468565687,2018_Nov_13_1539,60.0026750081,spanish_cond1,1,1005
images\doorhandle.jpg,doll,x,sounds\greatgatsby_english.wav,,,,,,,,,0,0,0,0,0,106,106,168,320.273675166,8.98039434105E-06,321.253677212,0.980011347332,,,,,x,1,0.96714860131,2018_Nov_13_1539,60.0026750081,spanish_cond1,1,1005
images\wallet01.jpg,lamp,x,sounds\greatgatsby_english.wav,,,,,,,,,0,0,0,0,0,107,107,193,322.433102335,9.30100213736E-06,323.971082956,1.5379899221,,,,,x,1,1.51730625459,2018_Nov_13_1539,60.0026750081,spanish_cond1,1,1005
images\toothbrush03a.jpg,parrot,x,sounds\greatgatsby_english.wav,,,,,,,,,0,0,0,0,0,108,108,210,325.065188672,9.30100213736E-06,325.938268441,0.873090032139,,,,,x,1,0.85044929001,2018_Nov_13_1539,60.0026750081,spanish_cond1,1,1005
images\lightbulb03b.jpg,treadmill,x,sounds\greatgatsby_english.wav,,,,,,,,,0,0,0,0,0,109,109,234,327.040722033,9.30111855268E-06,328.088844515,1.04813210352,,,,,x,1,1.0338280116,2018_Nov_13_1539,60.0026750081,spanish_cond1,1,1005
images\toucan.jpg,toucan,z,sounds\greatgatsby_english.wav,,,,,,,,,0,0,0,0,0,110,110,81,329.189573238,8.98039434105E-06,330.706223606,1.5166599903,,,,,z,1,1.50063006778,2018_Nov_13_1539,60.0026750081,spanish_cond1,1,1005
images\paperclip04.jpg,eye drops,x,sounds\greatgatsby_english.wav,,,,,,,,,0,0,0,0,0,111,111,174,331.813562187,9.30100213736E-06,332.823451796,1.00989955151,,,,,x,1,1.00048718392,2018_Nov_13_1539,60.0026750081,spanish_cond1,1,1005
images\raisin.jpg,ruler,x,sounds\greatgatsby_english.wav,,,,,,,,,0,0,0,0,0,112,112,218,333.930438539,9.30100213736E-06,335.22410749,1.29367889289,,,,,x,1,1.28389929316,2018_Nov_13_1539,60.0026750081,spanish_cond1,1,1005
images\feather03b.jpg,feather,z,sounds\greatgatsby_english.wav,,,,,,,,,0,0,0,0,0,113,113,114,336.326600531,9.621726349E-06,337.157951505,0.831360596581,,,,,z,1,0.817106538103,2018_Nov_13_1539,60.0026750081,spanish_cond1,1,1005
images\banana04a.jpg,banana,z,sounds\greatgatsby_english.wav,,,,,,,,,0,0,0,0,0,114,114,118,338.264809317,8.98039434105E-06,339.42521791,1.16041821486,,,,,z,1,1.15051545599,2018_Nov_13_1539,60.0026750081,spanish_cond1,1,1005
images\skateboard.jpg,key,x,sounds\greatgatsby_english.wav,,,,,,,,,0,0,0,0,0,115,115,189,340.517850528,8.98039434105E-06,341.442430993,0.924590407871,,,,,x,1,0.900456362171,2018_Nov_13_1539,60.0026750081,spanish_cond1,1,1005
images\backpack01b.jpg,swallow,x,sounds\greatgatsby_english.wav,,,,,,,,,0,0,0,0,0,116,116,228,342.57410696,9.30111855268E-06,343.959820637,1.38572361891,,,,,x,1,1.36729273596,2018_Nov_13_1539,60.0026750081,spanish_cond1,1,1005
images\nametag01a.jpg,name tag,z,sounds\greatgatsby_english.wav,,,,,,,,,0,0,0,0,0,117,117,108,345.081510456,8.98039434105E-06,346.393765842,1.31226500752,,,,,z,1,1.30057034839,2018_Nov_13_1539,60.0026750081,spanish_cond1,1,1005
images\camera01a.jpg,bull,x,sounds\greatgatsby_english.wav,,,,,,,,,0,0,0,0,0,118,118,138,347.576664435,9.621726349E-06,348.844422835,1.26776802086,,,,,x,1,1.25054916437,2018_Nov_13_1539,60.0026750081,spanish_cond1,1,1005
images\pictureframe04.jpg,picture frame,z,sounds\greatgatsby_english.wav,,,,,,,,,0,0,0,0,0,119,119,41,349.968726577,9.94245056063E-06,351.161719403,1.19300341024,,,,,z,1,1.18387648941,2018_Nov_13_1539,60.0026750081,spanish_cond1,1,1005
images\bicycle.jpg,hand bag,x,sounds\greatgatsby_english.wav,,,,,,,,,0,0,0,0,0,120,120,186,352.271461831,9.30111855268E-06,353.428986449,1.15753456077,,,,,x,1,1.13385338103,2018_Nov_13_1539,60.0026750081,spanish_cond1,1,1005
images\coin01b.jpg,arrow,x,sounds\greatgatsby_english.wav,,,,,,,,,0,0,0,0,0,121,121,124,354.53187687,8.98039434105E-06,355.3628372,0.830970272189,,,,,x,1,0.817097878433,2018_Nov_13_1539,60.0026750081,spanish_cond1,1,1005
images\teapot.jpg,light switch,x,sounds\greatgatsby_english.wav,,,,,,,,,0,0,0,0,0,122,122,197,356.479149394,9.30111855268E-06,358.046897947,1.56775817461,,,,,x,1,1.55063874333,2018_Nov_13_1539,60.0026750081,spanish_cond1,1,1005
images\spoon02b.jpg,spoon,z,sounds\greatgatsby_english.wav,,,,,,,,,0,0,0,0,0,123,123,38,359.13872939,9.62184276432E-06,359.880714669,0.741994901095,,,,,z,1,0.733746130019,2018_Nov_13_1539,60.0026750081,spanish_cond1,1,1005
images\squirrel.jpg,binder,x,sounds\greatgatsby_english.wav,,,,,,,,,0,0,0,0,0,124,124,132,360.983961418,9.30100213736E-06,362.031297157,1.04734504002,,,,,x,1,1.03382255917,2018_Nov_13_1539,60.0026750081,spanish_cond1,1,1005
images\bus.jpg,microphone,x,sounds\greatgatsby_english.wav,,,,,,,,,0,0,0,0,0,125,125,203,363.14968734,8.98039434105E-06,364.265232034,1.11555463762,,,,,x,1,1.10051030829,2018_Nov_13_1539,60.0026750081,spanish_cond1,1,1005
images\cockroach02.jpg,belt,x,sounds\greatgatsby_english.wav,,,,,,,,,0,0,0,0,0,126,126,129,365.364009456,8.98039434105E-06,366.48249297,1.11849281518,,,,,x,1,1.10051319492,2018_Nov_13_1539,60.0026750081,spanish_cond1,1,1005
images\axe01.jpg,axe,z,sounds\greatgatsby_english.wav,,,,,,,,,0,0,0,0,0,127,127,104,367.586620435,9.94256697595E-06,368.716440036,1.12982986413,,,,,z,1,1.11719739996,2018_Nov_13_1539,60.0026750081,spanish_cond1,1,1005
images\parkbench03.jpg,park bench,z,sounds\greatgatsby_english.wav,,,,,,,,,0,0,0,0,0,128,128,71,369.822612454,9.30111855268E-06,371.450499516,1.62789764581,,,,,z,1,1.61731526698,2018_Nov_13_1539,60.0026750081,spanish_cond1,1,1005
images\blackolive.jpg,tank,x,sounds\greatgatsby_english.wav,,,,,,,,,0,0,0,0,0,129,129,229,372.56693551,8.6595537141E-06,373.967856766,1.40093151864,,,,,x,1,1.38393043564,2018_Nov_13_1539,60.0026750081,spanish_cond1,1,1005
images\highlighter03b.jpg,coin,x,sounds\greatgatsby_english.wav,,,,,,,,,0,0,0,0,0,130,130,156,375.069641963,8.98039434105E-06,376.068421598,0.998789898003,,,,,x,1,0.983827354037,2018_Nov_13_1539,60.0026750081,spanish_cond1,1,1005
images\scooter.jpg,pen,x,sounds\greatgatsby_english.wav,,,,,,,,,0,0,0,0,0,131,131,212,377.162091446,8.98027792573E-06,378.002262727,0.84018122335,,,,,x,1,0.817106537987,2018_Nov_13_1539,60.0026750081,spanish_cond1,1,1005
images\cactus.jpg,cactus,z,sounds\greatgatsby_english.wav,,,,,,,,,0,0,0,0,0,132,132,70,379.114075767,9.30100213736E-06,380.302877015,1.18881087028,,,,,z,1,1.16718747339,2018_Nov_13_1539,60.0026750081,spanish_cond1,1,1005
images\coffeepot03b.jpg,coffee pot,z,sounds\greatgatsby_english.wav,,,,,,,,,0,0,0,0,0,133,133,107,381.424091838,9.94256697595E-06,382.786875156,1.36279358121,,,,,z,1,1.35057613754,2018_Nov_13_1539,60.0026750081,spanish_cond1,1,1005
images\baseball01a.jpg,baseball,z,sounds\greatgatsby_english.wav,,,,,,,,,0,0,0,0,0,134,134,74,383.920555024,9.30111855268E-06,384.587360993,0.66681623226,,,,,z,1,0.65038860857,2018_Nov_13_1539,60.0026750081,spanish_cond1,1,1005
images\sunglasses03a.jpg,sun glasses,z,sounds\greatgatsby_english.wav,,,,,,,,,0,0,0,0,0,135,135,17,385.695829815,9.30100213736E-06,386.437872183,0.742052311194,,,,,z,1,0.733750940999,2018_Nov_13_1539,60.0026750081,spanish_cond1,1,1005
images\leek.jpg,donut,x,sounds\greatgatsby_english.wav,,,,,,,,,0,0,0,0,0,136,136,169,387.539098033,9.30100213736E-06,388.221670929,0.682582517387,,,,,x,1,0.667065116228,2018_Nov_13_1539,60.0026750081,spanish_cond1,1,1005
images\graduationcap.jpg,graduation cap,z,sounds\greatgatsby_english.wav,,,,,,,,,0,0,0,0,0,137,137,35,389.325059759,9.30111855268E-06,390.088834893,0.763785075862,,,,,z,1,0.750414619572,2018_Nov_13_1539,60.0026750081,spanish_cond1,1,1005
images\ladder.jpg,ladder,z,sounds\greatgatsby_english.wav,,,,,,,,,0,0,0,0,0,138,138,113,391.182620844,9.30111855268E-06,392.239419305,1.05680808262,,,,,z,1,1.03382480424,2018_Nov_13_1539,60.0026750081,spanish_cond1,1,1005
images\diploma01.jpg,glasses,x,sounds\greatgatsby_english.wav,,,,,,,,,0,0,0,0,0,139,139,179,393.370026611,8.98027792573E-06,394.289968726,0.919951737043,,,,,x,1,0.900456362055,2018_Nov_13_1539,60.0026750081,spanish_cond1,1,1005
images\swan.jpg,swan,z,sounds\greatgatsby_english.wav,,,,,,,,,0,0,0,0,0,140,140,54,395.382304993,8.65967012942E-06,396.5739126,1.1916175501,,,,,z,1,1.16716021171,2018_Nov_13_1539,60.0026750081,spanish_cond1,1,1005
images\lipstick04.jpg,lipstick,z,sounds\greatgatsby_english.wav,,,,,,,,,0,0,0,0,0,141,141,56,397.67540337,9.30111855268E-06,398.524445311,0.849051883677,,,,,z,1,0.83377663116,2018_Nov_13_1539,60.0026750081,spanish_cond1,1,1005
images\desktopcomputer.jpg,desktop computer,z,sounds\greatgatsby_english.wav,,,,,,,,,0,0,0,0,0,142,142,16,399.66013806,9.30100213736E-06,400.608338126,0.948209687253,,,,,z,1,0.933808094356,2018_Nov_13_1539,60.0026750081,spanish_cond1,1,1005
images\sportshorts02.jpg,tape,x,sounds\greatgatsby_english.wav,,,,,,,,,0,0,0,0,0,143,143,230,401.717608123,8.98039434105E-06,402.708914183,0.991315682069,,,,,x,1,0.967155336635,2018_Nov_13_1539,60.0026750081,spanish_cond1,1,1005
images\8ball.jpg,nail clipper,x,sounds\greatgatsby_english.wav,,,,,,,,,0,0,0,0,0,144,144,206,403.825888678,8.98027792573E-06,404.942834949,1.11695589265,,,,,x,1,1.10051255336,2018_Nov_13_1539,60.0026750081,spanish_cond1,1,1005
images\carrot02.jpg,corkscrew,x,sounds\greatgatsby_english.wav,,,,,,,,,0,0,0,0,0,145,145,161,406.046760676,9.30111855268E-06,407.260125103,1.21337404859,,,,,x,1,1.20054562041,2018_Nov_13_1539,60.0026750081,spanish_cond1,1,1005
images\bowl02b (1).jpg,bowl,z,sounds\greatgatsby_english.wav,,,,,,,,,0,0,0,0,0,146,146,24,408.379268672,8.98027792573E-06,410.227592827,1.84833345574,,,,,x,0,1.83404732449,2018_Nov_13_1539,60.0026750081,spanish_cond1,1,1005
images\comb02a.jpg,diploma,x,sounds\greatgatsby_english.wav,,,,,,,,,0,0,0,0,0,147,147,166,411.331848582,9.30111855268E-06,412.11143394,0.779594979831,,,,,x,1,0.767089844216,2018_Nov_13_1539,60.0026750081,spanish_cond1,1,1005
images\parkfountain.jpg,park fountain,z,sounds\greatgatsby_english.wav,,,,,,,,,0,0,0,0,0,148,148,93,413.231569518,8.6595537141E-06,414.428715114,1.1971542557,,,,,z,1,1.18386879191,2018_Nov_13_1539,60.0026750081,spanish_cond1,1,1005
images\printer03a.jpg,printer,z,sounds\greatgatsby_english.wav,,,,,,,,,0,0,0,0,0,149,149,72,415.537854575,9.30111855268E-06,416.495936232,0.958091598935,,,,,z,1,0.933797189733,2018_Nov_13_1539,60.0026750081,spanish_cond1,1,1005
images\lollipop03b.jpg,lollipop,z,sounds\greatgatsby_english.wav,,,,,,,,,0,0,0,0,0,150,150,42,417.590255231,9.30111855268E-06,418.396452249,0.806206960464,,,,,z,1,0.783765710425,2018_Nov_13_1539,60.0026750081,spanish_cond1,1,1005
images\masquerademask02b.jpg,mirror,x,sounds\greatgatsby_english.wav,,,,,,,,,0,0,0,0,0,151,151,204,419.580474669,9.30100213736E-06,420.413656031,0.833190663368,,,,,x,1,0.817081842106,2018_Nov_13_1539,60.0026750081,spanish_cond1,1,1005
images\hairpin.jpg,hair pin,z,sounds\greatgatsby_english.wav,,,,,,,,,0,0,0,0,0,152,152,28,421.505672854,9.30111855268E-06,422.230808433,0.725145201082,,,,,z,1,0.717070905375,2018_Nov_13_1539,60.0026750081,spanish_cond1,1,1005
images\cat.jpg,black olive,x,sounds\greatgatsby_english.wav,,,,,,,,,0,0,0,0,0,153,153,133,423.362096642,9.62184276432E-06,424.664792126,1.30270542635,,,,,x,1,1.28388453973,2018_Nov_13_1539,60.0026750081,spanish_cond1,1,1005
images\showerhead01.jpg,skateboard,x,sounds\greatgatsby_english.wav,,,,,,,,,0,0,0,0,0,154,154,223,425.77446239,9.62184276432E-06,426.798725368,1.02427292045,,,,,x,1,1.00049872999,2018_Nov_13_1539,60.0026750081,spanish_cond1,1,1005
images\pepper05a.jpg,lighter,x,sounds\greatgatsby_english.wav,,,,,,,,,0,0,0,0,0,155,155,198,427.921342408,9.30100213736E-06,429.015986624,1.09465383796,,,,,x,1,1.08385785518,2018_Nov_13_1539,60.0026750081,spanish_cond1,1,1005
images\flashlight05.jpg,flash light,z,sounds\greatgatsby_english.wav,,,,,,,,,0,0,0,0,0,156,156,8,430.118643557,8.98039434105E-06,430.916480191,0.797846255824,,,,,z,1,0.78376154101,2018_Nov_13_1539,60.0026750081,spanish_cond1,1,1005
images\basketball01.jpg,basket ball,z,sounds\greatgatsby_english.wav,,,,,,,,,0,0,0,0,0,157,157,33,432.054994373,9.30111855268E-06,432.850174427,0.795189996948,,,,,z,1,0.783600856899,2018_Nov_13_1539,60.0026750081,spanish_cond1,1,1005
images\cake.jpg,cake,z,sounds\greatgatsby_english.wav,,,,,,,,,0,0,0,0,0,158,158,23,433.964153334,9.94256697595E-06,435.100939761,1.13679636957,,,,,z,1,1.1171848916,2018_Nov_13_1539,60.0026750081,spanish_cond1,1,1005
images\icecube02 (2).jpg,aloe,x,sounds\greatgatsby_english.wav,,,,,,,,,0,0,0,0,0,159,159,122,436.213201818,9.62184276432E-06,437.068150263,0.854958387325,,,,,x,1,0.833789460245,2018_Nov_13_1539,60.0026750081,spanish_cond1,1,1005
images\handfan01b.jpg,handfan,z,sounds\greatgatsby_english.wav,,,,,,,,,0,0,0,0,0,160,160,69,438.183027526,8.98039434105E-06,439.468786713,1.28576945071,,,,,z,1,1.26723016216,2018_Nov_13_1539,60.0026750081,spanish_cond1,1,1005
images\lettuce.jpg,mushroom,x,sounds\greatgatsby_english.wav,,,,,,,,,0,0,0,0,0,161,161,205,440.645182251,8.33882950246E-06,441.769403888,1.12423125806,,,,,x,1,1.10052506172,2018_Nov_13_1539,60.0026750081,spanish_cond1,1,1005
images\shotglass.jpg,shot glass,z,sounds\greatgatsby_english.wav,,,,,,,,,0,0,0,0,0,162,162,86,442.87940867,9.30100213736E-06,443.969996013,1.09059728612,,,,,z,1,1.06717557448,2018_Nov_13_1539,60.0026750081,spanish_cond1,1,1005
images\ant.jpg,ant,z,sounds\greatgatsby_english.wav,,,,,,,,,0,0,0,0,0,163,163,98,445.064652738,5.22785121575E-05,446.070543847,1.00592991675,,,,,z,1,0.983804261661,2018_Nov_13_1539,60.0026750081,spanish_cond1,1,1005
images\dolphin01.jpg,dolphin,z,sounds\greatgatsby_english.wav,,,,,,,,,0,0,0,0,0,164,164,99,447.170685961,9.621726349E-06,447.737671825,0.566995807108,,,,,z,1,0.550370936515,2018_Nov_13_1539,60.0026750081,spanish_cond1,1,1005
images\drink.jpg,drink,z,sounds\greatgatsby_english.wav,,,,,,,,,0,0,0,0,0,165,165,117,448.837566018,9.30111855268E-06,449.554828076,0.717272000969,,,,,z,1,0.7003276865,2018_Nov_13_1539,60.0026750081,spanish_cond1,1,1005
images\leaf01a.jpg,leaf,z,sounds\greatgatsby_english.wav,,,,,,,,,0,0,0,0,0,166,166,68,450.658538596,9.30111855268E-06,451.23860498,0.580076005892,,,,,z,1,0.567020182381,2018_Nov_13_1539,60.0026750081,spanish_cond1,1,1005
images\mitten01.jpg,mitten,z,sounds\greatgatsby_english.wav,,,,,,,,,0,0,0,0,0,167,167,102,452.359674514,9.30111855268E-06,453.2058235,0.846158607746,,,,,z,1,0.833792346762,2018_Nov_13_1539,60.0026750081,spanish_cond1,1,1005
images\hairband.jpg,hairband,z,sounds\greatgatsby_english.wav,,,,,,,,,0,0,0,0,0,168,168,66,454.315287857,9.62184276432E-06,455.00630228,0.691024365951,,,,,z,1,0.667075700127,2018_Nov_13_1539,60.0026750081,spanish_cond1,1,1005
images\snowman.jpg,globe,x,sounds\greatgatsby_english.wav,,,,,,,,,0,0,0,0,0,169,169,180,456.117092522,9.30111855268E-06,456.806770798,0.689687576843,,,,,x,1,0.667063191766,2018_Nov_13_1539,60.0026750081,spanish_cond1,1,1005
images\magnifyingglass01b.jpg,magnifying glass,z,sounds\greatgatsby_english.wav,,,,,,,,,0,0,0,0,0,170,170,64,457.91500581,8.65967012942E-06,458.724099632,0.809103443753,,,,,z,1,0.800568263629,2018_Nov_13_1539,60.0026750081,spanish_cond1,1,1005
images\hanger02a.jpg,hanger,z,sounds\greatgatsby_english.wav,,,,,,,,,0,0,0,0,0,171,171,88,459.819818924,9.30100213736E-06,461.324664624,1.50485596317,,,,,z,1,1.48396093678,2018_Nov_13_1539,60.0026750081,spanish_cond1,1,1005
images\lock02a.jpg,lock,z,sounds\greatgatsby_english.wav,,,,,,,,,0,0,0,0,0,172,172,65,462.43930936,9.30111855268E-06,463.141822158,0.702523061074,,,,,z,1,0.68365887634,2018_Nov_13_1539,60.0026750081,spanish_cond1,1,1005
images\pineapple01a.jpg,pineapple,z,sounds\greatgatsby_english.wav,,,,,,,,,0,0,0,0,0,173,173,51,464.254947611,9.62184276432E-06,464.875612227,0.620674558915,,,,,z,1,0.600383460871,2018_Nov_13_1539,60.0026750081,spanish_cond1,1,1005
images\cocktailshrimp01.jpg,cocktail shrimp,z,sounds\greatgatsby_english.wav,,,,,,,,,0,0,0,0,0,174,174,30,465.989835528,8.98027792573E-06,466.826131789,0.836306523648,,,,,z,1,0.817107820883,2018_Nov_13_1539,60.0026750081,spanish_cond1,1,1005
images\bandaid01.jpg,door handle,x,sounds\greatgatsby_english.wav,,,,,,,,,0,0,0,0,0,175,175,170,467.933631695,8.98039434105E-06,468.976713314,1.04309092055,,,,,x,1,1.0338424443,2018_Nov_13_1539,60.0026750081,spanish_cond1,1,1005
images\envelope02a.jpg,grand piano,x,sounds\greatgatsby_english.wav,,,,,,,,,0,0,0,0,0,176,176,182,470.099378784,9.62184276432E-06,471.627423291,1.5280554113,,,,,x,1,1.51730048144,2018_Nov_13_1539,60.0026750081,spanish_cond1,1,1005
images\ceilingfan02.jpg,paper clip,x,sounds\greatgatsby_english.wav,,,,,,,,,0,0,0,0,0,177,177,208,472.727538785,8.98039434105E-06,473.544608118,0.817078955588,,,,,x,1,0.8004451046,2018_Nov_13_1539,60.0026750081,spanish_cond1,1,1005
images\ruler02b.jpg,watermelon,x,sounds\greatgatsby_english.wav,,,,,,,,,0,0,0,0,0,178,178,238,474.647413868,9.621726349E-06,475.445114514,0.797710588318,,,,,x,1,0.783760257997,2018_Nov_13_1539,60.0026750081,spanish_cond1,1,1005
images\chameleon.jpg,50 dollar bill,x,sounds\greatgatsby_english.wav,,,,,,,,,0,0,0,0,0,179,179,120,476.557428849,8.98027792573E-06,477.495689914,0.938270686311,,,,,x,1,0.917160131503,2018_Nov_13_1539,60.0026750081,spanish_cond1,1,1005
images\lightswitch02a.jpg,fork,x,sounds\greatgatsby_english.wav,,,,,,,,,0,0,0,0,0,180,180,177,478.608942375,8.98039434105E-06,479.396185084,0.787252972252,,,,,x,1,0.767099786666,2018_Nov_13_1539,60.0026750081,spanish_cond1,1,1005
images\marker01a.jpg,marker,z,sounds\greatgatsby_english.wav,,,,,,,,,0,0,0,0,0,181,181,95,480.494564804,9.621726349E-06,481.246671578,0.75211639551,,,,,z,1,0.733729772968,2018_Nov_13_1539,60.0026750081,spanish_cond1,1,1005
images\bench02.jpg,electric toothbrush,x,sounds\greatgatsby_english.wav,,,,,,,,,0,0,0,0,0,182,182,172,482.357039102,9.621726349E-06,483.3805782,1.0235490402,,,,,x,1,1.00048654247,2018_Nov_13_1539,60.0026750081,spanish_cond1,1,1005
images\hat05.jpg,hat,z,sounds\greatgatsby_english.wav,,,,,,,,,0,0,0,0,0,183,183,15,484.484184804,8.98039434105E-06,485.131056002,0.646881141001,,,,,x,0,0.633730061701,2018_Nov_13_1539,60.0026750081,spanish_cond1,1,1005
images\watermelon01.jpg,orange,x,sounds\greatgatsby_english.wav,,,,,,,,,0,0,0,0,0,184,184,207,486.261473759,9.30111855268E-06,487.515044169,1.25358035287,,,,,x,1,1.23390088067,2018_Nov_13_1539,60.0026750081,spanish_cond1,1,1005
images\cherry01.jpg,highlighter,x,sounds\greatgatsby_english.wav,,,,,,,,,0,0,0,0,0,185,185,187,488.623532234,9.30100213736E-06,489.398866359,0.775343746878,,,,,x,1,0.767088561319,2018_Nov_13_1539,60.0026750081,spanish_cond1,1,1005
images\orange.jpg,bat,x,sounds\greatgatsby_english.wav,,,,,,,,,0,0,0,0,0,186,186,128,490.5239902,8.98039434105E-06,491.3493856,0.825405342504,,,,,x,1,0.817098519881,2018_Nov_13_1539,60.0026750081,spanish_cond1,1,1005
images\puzzle.jpg,puzzle,z,sounds\greatgatsby_english.wav,,,,,,,,,0,0,0,0,0,187,187,57,492.470252114,8.98027792573E-06,493.316587121,0.846344308462,,,,,x,0,0.833767009317,2018_Nov_13_1539,60.0026750081,spanish_cond1,1,1005
images\aloe02.jpg,broad sword,x,sounds\greatgatsby_english.wav,,,,,,,,,0,0,0,0,0,188,188,137,494.4387622,9.62184276432E-06,495.417154198,0.978402261273,,,,,x,1,0.96715116722,2018_Nov_13_1539,60.0026750081,spanish_cond1,1,1005
images\diaper01a.jpg,camera,x,sounds\greatgatsby_english.wav,,,,,,,,,0,0,0,0,0,189,189,143,496.537470986,9.62184276432E-06,497.717775221,1.18031449826,,,,,x,1,1.16720799997,2018_Nov_13_1539,60.0026750081,spanish_cond1,1,1005
images\headphones02b.jpg,headphones,z,sounds\greatgatsby_english.wav,,,,,,,,,0,0,0,0,0,190,190,101,498.825488411,8.98027792573E-06,499.451570743,0.626092275023,,,,,z,1,0.617051629699,2018_Nov_13_1539,60.0026750081,spanish_cond1,1,1005
images\tulip02.jpg,sport shorts,x,sounds\greatgatsby_english.wav,,,,,,,,,0,0,0,0,0,191,191,225,500.546365059,8.65967012942E-06,501.318726689,0.772371251485,,,,,x,1,0.750411412213,2018_Nov_13_1539,60.0026750081,spanish_cond1,1,1005
images\banjo.jpg,knife,x,sounds\greatgatsby_english.wav,,,,,,,,,0,0,0,0,0,192,192,191,502.415302001,9.30100213736E-06,503.702713893,1.28742151416,,,,,x,1,1.2672359352,2018_Nov_13_1539,60.0026750081,spanish_cond1,1,1005
images\flower01.jpg,bus,x,sounds\greatgatsby_english.wav,,,,,,,,,0,0,0,0,0,193,193,140,504.817489165,9.30100213736E-06,505.719920562,0.902441660524,,,,,x,1,0.883788514067,2018_Nov_13_1539,60.0026750081,spanish_cond1,1,1005
images\daisy.jpg,daisy,z,sounds\greatgatsby_english.wav,,,,,,,,,0,0,0,0,0,194,194,6,506.822627207,9.62184276432E-06,507.570416358,0.747799092904,,,,,z,1,0.733754148125,2018_Nov_13_1539,60.0026750081,spanish_cond1,1,1005
images\nailpolish02b.jpg,nail polish,z,sounds\greatgatsby_english.wav,,,,,,,,,0,0,0,0,0,195,195,94,508.680064492,8.98027792573E-06,509.670822109,0.990768201416,,,,,z,1,0.966971880873,2018_Nov_13_1539,60.0026750081,spanish_cond1,1,1005
images\charcoalbarbecue.jpg,charcoal barbecue,z,sounds\greatgatsby_english.wav,,,,,,,,,0,0,0,0,0,196,196,77,510.789543282,9.30100213736E-06,511.654858256,0.865324275568,,,,,z,1,0.850449931575,2018_Nov_13_1539,60.0026750081,spanish_cond1,1,1005
images\pen03c.jpg,pepper,x,sounds\greatgatsby_english.wav,,,,,,,,,0,0,0,0,0,197,197,211,512.750809434,1.02632911876E-05,513.572038594,0.821240064339,,,,,x,1,0.800438689999,2018_Nov_13_1539,60.0026750081,spanish_cond1,1,1005
images\fork01.jpg,cooking pot,x,sounds\greatgatsby_english.wav,,,,,,,,,0,0,0,0,0,198,198,160,514.668167133,8.6595537141E-06,515.789345714,1.12118852348,,,,,x,1,1.10057028418,2018_Nov_13_1539,60.0026750081,spanish_cond1,1,1005
images\parkingmeter.jpg,ear,x,sounds\greatgatsby_english.wav,,,,,,,,,0,0,0,0,0,199,199,171,516.892678739,9.30100213736E-06,517.823200025,0.930530908518,,,,,x,1,0.917161735008,2018_Nov_13_1539,60.0026750081,spanish_cond1,1,1005
images\paintbrush03a.jpg,paint brush,z,sounds\greatgatsby_english.wav,,,,,,,,,0,0,0,0,0,200,200,0,518.923896997,9.621726349E-06,520.057107321,1.13322090788,,,,,z,1,1.11718970246,2018_Nov_13_1539,60.0026750081,spanish_cond1,1,1005
images\plant01.jpg,plant,z,sounds\greatgatsby_english.wav,,,,,,,,,0,0,0,0,0,201,201,47,521.239873133,8.65967012942E-06,521.907589325,0.667725171777,,,,,z,1,0.650382194086,2018_Nov_13_1539,60.0026750081,spanish_cond1,1,1005
images\candy.jpg,candy,z,sounds\greatgatsby_english.wav,,,,,,,,,0,0,0,0,0,202,202,31,523.011381951,9.30111855268E-06,523.958184289,0.946812280919,,,,,z,1,0.933839846402,2018_Nov_13_1539,60.0026750081,spanish_cond1,1,1005
images\mailbox01.jpg,mail box,z,sounds\greatgatsby_english.wav,,,,,,,,,0,0,0,0,0,203,203,73,525.080107277,9.30111855268E-06,526.242110202,1.16201286821,,,,,z,1,1.15050807921,2018_Nov_13_1539,60.0026750081,spanish_cond1,1,1005
images\lion.jpg,lion,z,sounds\greatgatsby_english.wav,,,,,,,,,0,0,0,0,0,204,204,44,527.354936738,9.30111855268E-06,528.242630421,0.887703625485,,,,,z,1,0.867114893044,2018_Nov_13_1539,60.0026750081,spanish_cond1,1,1005
images\dragonfly02.jpg,dragon fly,z,sounds\greatgatsby_english.wav,,,,,,,,,0,0,0,0,0,205,205,29,529.34046651,9.30111855268E-06,530.076460293,0.736004046281,,,,,z,1,0.717077961308,2018_Nov_13_1539,60.0026750081,spanish_cond1,1,1005
images\hand01a.jpg,cupcake,x,sounds\greatgatsby_english.wav,,,,,,,,,0,0,0,0,0,206,206,163,531.189632893,8.98039434105E-06,531.993649931,0.804026980884,,,,,x,1,0.783760578721,2018_Nov_13_1539,60.0026750081,spanish_cond1,1,1005
images\birthdaycandle.jpg,birthday candle,z,sounds\greatgatsby_english.wav,,,,,,,,,0,0,0,0,0,207,207,55,533.092027727,9.30111855268E-06,534.277641594,1.18564433523,,,,,z,1,1.16717945528,2018_Nov_13_1539,60.0026750081,spanish_cond1,1,1005
images\treadmill.jpg,lily,x,sounds\greatgatsby_english.wav,,,,,,,,,0,0,0,0,0,208,208,199,535.385235473,9.30111855268E-06,536.194770294,0.809545084368,,,,,x,1,0.800429709605,2018_Nov_13_1539,60.0026750081,spanish_cond1,1,1005
images\butterfly.jpg,butterfly,z,sounds\greatgatsby_english.wav,,,,,,,,,0,0,0,0,0,209,209,91,537.304480007,9.30111855268E-06,538.878830079,1.57435937237,,,,,z,1,1.55063617753,2018_Nov_13_1539,60.0026750081,spanish_cond1,1,1005
images\cigar.jpg,crocodile,x,sounds\greatgatsby_english.wav,,,,,,,,,0,0,0,0,0,210,210,162,539.978493668,9.62184276432E-06,540.929380782,0.95089737745,,,,,x,1,0.933804245666,2018_Nov_13_1539,60.0026750081,spanish_cond1,1,1005
images\dice05a.jpg,band aid,x,sounds\greatgatsby_english.wav,,,,,,,,,0,0,0,0,0,211,211,126,542.044270233,9.621726349E-06,542.979935656,0.935675365501,,,,,x,1,0.917133190436,2018_Nov_13_1539,60.0026750081,spanish_cond1,1,1005
images\broom02.jpg,broom,z,sounds\greatgatsby_english.wav,,,,,,,,,0,0,0,0,0,212,212,116,544.076022822,9.30100213736E-06,545.163862499,1.08785058232,,,,,z,1,1.06718263042,2018_Nov_13_1539,60.0026750081,spanish_cond1,1,1005
images\crocodile.jpg,triangle ruler,x,sounds\greatgatsby_english.wav,,,,,,,,,0,0,0,0,0,213,213,235,546.263197986,9.30111855268E-06,547.281108329,1.01792028593,,,,,x,1,1.00050546532,2018_Nov_13_1539,60.0026750081,spanish_cond1,1,1005
images\gamecontroller01.jpg,game controller,z,sounds\greatgatsby_english.wav,,,,,,,,,0,0,0,0,0,214,214,112,548.402872878,8.98027792573E-06,550.298565165,1.89570158813,,,,,z,1,1.88405952812,2018_Nov_13_1539,60.0026750081,spanish_cond1,1,1005
images\redfox.jpg,red fox,z,sounds\greatgatsby_english.wav,,,,,,,,,0,0,0,0,0,215,215,1,551.413977079,9.30111855268E-06,552.499169799,1.08520234167,,,,,z,1,1.06718872429,2018_Nov_13_1539,60.0026750081,spanish_cond1,1,1005
images\puma.jpg,puma,z,sounds\greatgatsby_english.wav,,,,,,,,,0,0,0,0,0,216,216,4,553.598968094,8.98027792573E-06,554.366332801,0.767374008079,,,,,z,1,0.750429372885,2018_Nov_13_1539,60.0026750081,spanish_cond1,1,1005
images\computermouse02a.jpg,world map,x,sounds\greatgatsby_english.wav,,,,,,,,,0,0,0,0,0,217,217,239,555.468633726,9.30111855268E-06,556.200179992,0.731555887149,,,,,x,1,0.717109713238,2018_Nov_13_1539,60.0026750081,spanish_cond1,1,1005
images\fireextinguisher02.jpg,fire extinguisher,z,sounds\greatgatsby_english.wav,,,,,,,,,0,0,0,0,0,218,218,175,557.385616175,9.621726349E-06,558.517439035,1.13183248183,,,,,z,1,1.11717526976,2018_Nov_13_1539,60.0026750081,spanish_cond1,1,1005
images\kiwi03.jpg,backpack,x,sounds\greatgatsby_english.wav,,,,,,,,,0,0,0,0,0,219,219,125,559.649501799,8.98039434105E-06,560.567991664,0.918500127853,,,,,x,1,0.900457644952,2018_Nov_13_1539,60.0026750081,spanish_cond1,1,1005
images\lip.jpg,boxing glove,x,sounds\greatgatsby_english.wav,,,,,,,,,0,0,0,0,0,220,220,136,561.673056292,8.98039434105E-06,562.785264787,1.11221811722,,,,,x,1,1.10052442038,2018_Nov_13_1539,60.0026750081,spanish_cond1,1,1005
,,,sounds\greatgatsby_english.wav,,,,,,,,,0,0,0,0,,,,,,,,,,,,,,,,2018_Nov_13_1539,60.0026750081,spanish_cond1,1,1005
images\ear.jpg,bullet,x,sounds\animalfarm_spanish.wav,,,,,,,,,0,1,1,1,0,0,0,139,583.913292808,9.30111855268E-06,584.924552562,1.01127001701,,,,573.788382251,x,1,1.00050482387,2018_Nov_13_1539,60.0026750081,spanish_cond1,1,1005
images\rhinoceros01.jpg,envelope,x,sounds\animalfarm_spanish.wav,,,,,,,,,0,1,1,1,0,1,1,173,586.03457306,9.621726349E-06,586.708365419,0.673802302103,,,,,x,1,0.650397909689,2018_Nov_13_1539,60.0026750081,spanish_cond1,1,1005
images\cake.jpg,cake,z,sounds\animalfarm_spanish.wav,,,,,,,,,0,1,1,1,0,2,2,23,587.821453668,9.30111855268E-06,588.475498562,0.654054515297,,,,,z,1,0.633726854343,2018_Nov_13_1539,60.0026750081,spanish_cond1,1,1005
images\tape01a.jpg,tie,x,sounds\animalfarm_spanish.wav,,,,,,,,,0,1,1,1,0,3,3,232,589.60002136,9.30111855268E-06,590.392680823,0.792669405462,,,,,x,1,0.783754484961,2018_Nov_13_1539,60.0026750081,spanish_cond1,1,1005
images\backpack01b.jpg,swallow,x,sounds\animalfarm_spanish.wav,,,,,,,,,0,1,1,1,0,4,4,228,591.522261162,9.30111855268E-06,592.226504922,0.704253702541,,,,,x,1,0.683739699423,2018_Nov_13_1539,60.0026750081,spanish_cond1,1,1005
images\raisin.jpg,ruler,x,sounds\animalfarm_spanish.wav,,,,,,,,,0,1,1,1,0,5,5,218,593.32955699,9.62184276432E-06,594.660491501,1.3309444536,,,,,x,1,1.3172487804,2018_Nov_13_1539,60.0026750081,spanish_cond1,1,1005
images\50dollarbill.jpg,cherry,x,sounds\animalfarm_spanish.wav,,,,,,,,,0,1,1,1,0,6,6,151,595.77968767,9.62184276432E-06,596.510992749,0.731314379838,,,,,x,1,0.717086300137,2018_Nov_13_1539,60.0026750081,spanish_cond1,1,1005
images\handfan01b.jpg,handfan,z,sounds\animalfarm_spanish.wav,,,,,,,,,0,1,1,1,0,7,7,69,597.623266031,9.30100213736E-06,598.544876246,0.92162111972,,,,,z,1,0.900471115485,2018_Nov_13_1539,60.0026750081,spanish_cond1,1,1005
images\bull.jpg,button,x,sounds\animalfarm_spanish.wav,,,,,,,,,0,1,1,1,0,8,8,141,599.648860025,9.94245056063E-06,600.278676258,0.629826817196,,,,,x,1,0.617063496611,2018_Nov_13_1539,60.0026750081,spanish_cond1,1,1005
images\cocktailshrimp01.jpg,cocktail shrimp,z,sounds\animalfarm_spanish.wav,,,,,,,,,0,1,1,1,0,9,9,30,601.391318055,9.30111855268E-06,602.029138345,0.63783023227,,,,,z,1,0.617056440562,2018_Nov_13_1539,60.0026750081,spanish_cond1,1,1005
images\remotecontrol01c.jpg,remote control,z,sounds\animalfarm_spanish.wav,,,,,,,,,0,1,1,1,0,10,10,85,603.138224566,9.30100213736E-06,604.029669789,0.891455166042,,,,,z,1,0.867118420894,2018_Nov_13_1539,60.0026750081,spanish_cond1,1,1005
images\ashtray02b.jpg,ashtray,z,sounds\animalfarm_spanish.wav,,,,,,,,,0,1,1,1,0,11,11,43,605.141764106,8.98039434105E-06,605.813490023,0.671735539101,,,,,z,1,0.65039951331,2018_Nov_13_1539,60.0026750081,spanish_cond1,1,1005
images\thumbtack02a.jpg,thumb tack,z,sounds\animalfarm_spanish.wav,,,,,,,,,0,1,1,1,0,12,12,60,606.923710013,9.30111855268E-06,607.730676775,0.80697702535,,,,,z,1,0.783670133795,2018_Nov_13_1539,60.0026750081,spanish_cond1,1,1005
images\safe.jpg,safe,z,sounds\animalfarm_spanish.wav,,,,,,,,,0,1,1,1,0,13,13,78,608.839461513,9.62184276432E-06,609.497825312,0.658373742248,,,,,z,1,0.650393740158,2018_Nov_13_1539,60.0026750081,spanish_cond1,1,1005
images\lychee02a.jpg,lychee,z,sounds\animalfarm_spanish.wav,,,,,,,,,0,1,1,1,0,14,14,62,610.61997345,9.30100213736E-06,611.431660348,0.811696840101,,,,,z,1,0.800433558412,2018_Nov_13_1539,60.0026750081,spanish_cond1,1,1005
images\mitten01.jpg,mitten,z,sounds\animalfarm_spanish.wav,,,,,,,,,0,1,1,1,0,15,15,102,612.551309383,8.98039434105E-06,613.282163841,0.730864400277,,,,,z,1,0.717083092895,2018_Nov_13_1539,60.0026750081,spanish_cond1,1,1005
images\ant.jpg,ant,z,sounds\animalfarm_spanish.wav,,,,,,,,,0,1,1,1,0,16,16,98,614.374802553,9.94256697595E-06,614.965941707,0.591149738058,,,,,z,1,0.567033973639,2018_Nov_13_1539,60.0026750081,spanish_cond1,1,1005
images\aloe02.jpg,broad sword,x,sounds\animalfarm_spanish.wav,,,,,,,,,0,1,1,1,0,17,17,137,616.085661943,9.94245056063E-06,616.866466063,0.78081470367,,,,,x,1,0.767096579541,2018_Nov_13_1539,60.0026750081,spanish_cond1,1,1005
images\lily.jpg,kiwi,x,sounds\animalfarm_spanish.wav,,,,,,,,,0,1,1,1,0,18,18,190,617.96602253,9.94256697595E-06,618.816984983,0.850981696509,,,,,x,1,0.833782083471,2018_Nov_13_1539,60.0026750081,spanish_cond1,1,1005
images\coffeepot03b.jpg,coffee pot,z,sounds\animalfarm_spanish.wav,,,,,,,,,0,1,1,1,0,19,19,107,619.936234392,9.30111855268E-06,620.834189727,0.897964956821,,,,,z,1,0.883782420307,2018_Nov_13_1539,60.0026750081,spanish_cond1,1,1005
images\pingpongpaddle01c (1).jpg,ping pong paddle,z,sounds\animalfarm_spanish.wav,,,,,,,,,0,1,1,1,0,20,20,10,621.943460045,9.30111855268E-06,622.651347261,0.707896837615,,,,,z,1,0.683733605663,2018_Nov_13_1539,60.0026750081,spanish_cond1,1,1005
images\elbow.jpg,elbow,z,sounds\animalfarm_spanish.wav,,,,,,,,,0,1,1,1,0,21,21,105,623.761499577,8.98027792573E-06,624.485174246,0.723684290657,,,,,z,1,0.700413320563,2018_Nov_13_1539,60.0026750081,spanish_cond1,1,1005
images\comb02a.jpg,diploma,x,sounds\animalfarm_spanish.wav,,,,,,,,,0,1,1,1,0,22,22,166,625.588044141,9.621726349E-06,626.452373201,0.864339323714,,,,,x,1,0.850454421714,2018_Nov_13_1539,60.0026750081,spanish_cond1,1,1005
images\straw.jpg,straw,z,sounds\animalfarm_spanish.wav,,,,,,,,,0,1,1,1,0,23,23,109,627.544329407,8.98039434105E-06,628.302871242,0.758552098414,,,,,z,1,0.750429373002,2018_Nov_13_1539,60.0026750081,spanish_cond1,1,1005
images\tank.jpg,wallet,x,sounds\animalfarm_spanish.wav,,,,,,,,,0,1,1,1,0,24,24,237,629.40591914,8.98039434105E-06,630.103350344,0.69744082517,,,,,x,1,0.683744510403,2018_Nov_13_1539,60.0026750081,spanish_cond1,1,1005
images\mirror02.jpg,8 ball,x,sounds\animalfarm_spanish.wav,,,,,,,,,0,1,1,1,0,25,25,121,631.203959436,9.94256697595E-06,632.037214886,0.833265713416,,,,,x,1,0.81711134885,2018_Nov_13_1539,60.0026750081,spanish_cond1,1,1005
images\lion.jpg,lion,z,sounds\animalfarm_spanish.wav,,,,,,,,,0,1,1,1,0,26,26,44,633.14754264,9.30111855268E-06,633.837698798,0.690165780485,,,,,z,1,0.667082114727,2018_Nov_13_1539,60.0026750081,spanish_cond1,1,1005
images\chessknight02b (1).jpg,cockroach,x,sounds\animalfarm_spanish.wav,,,,,,,,,0,1,1,1,0,27,27,155,634.94436257,9.94256697595E-06,635.804884283,0.860531655955,,,,,x,1,0.850456666783,2018_Nov_13_1539,60.0026750081,spanish_cond1,1,1005
images\aquarium.jpg,computer mouse,x,sounds\animalfarm_spanish.wav,,,,,,,,,0,1,1,1,0,28,28,159,636.939685412,8.98039434105E-06,637.738736959,0.799060847959,,,,,x,1,0.783762503066,2018_Nov_13_1539,60.0026750081,spanish_cond1,1,1005
images\notebook02b.jpg,notebook,z,sounds\animalfarm_spanish.wav,,,,,,,,,0,1,1,1,0,29,29,7,638.845277251,9.30111855268E-06,639.489204819,0.64393719018,,,,,z,1,0.633730382309,2018_Nov_13_1539,60.0026750081,spanish_cond1,1,1005
images\fryingpan01.jpg,frying pan,z,sounds\animalfarm_spanish.wav,,,,,,,,,0,1,1,1,0,30,30,45,640.591663863,9.30100213736E-06,641.256343734,0.664689493249,,,,,z,1,0.650335688726,2018_Nov_13_1539,60.0026750081,spanish_cond1,1,1005
images\clothespin02a.jpg,clothes pin,z,sounds\animalfarm_spanish.wav,,,,,,,,,0,1,1,1,0,31,31,79,642.361142159,9.30100213736E-06,643.006815764,0.645683226525,,,,,z,1,0.633715949603,2018_Nov_13_1539,60.0026750081,spanish_cond1,1,1005
images\highlighter03b.jpg,coin,x,sounds\animalfarm_spanish.wav,,,,,,,,,0,1,1,1,0,32,32,156,644.108514044,8.98027792573E-06,644.840639863,0.732135119615,,,,,x,1,0.717080527102,2018_Nov_13_1539,60.0026750081,spanish_cond1,1,1005
images\broom02.jpg,broom,z,sounds\animalfarm_spanish.wav,,,,,,,,,0,1,1,1,0,33,33,116,645.934162177,9.30111855268E-06,646.907863867,0.973711311934,,,,,z,1,0.950467924238,2018_Nov_13_1539,60.0026750081,spanish_cond1,1,1005
images\microphone01.jpg,diaper,x,sounds\animalfarm_spanish.wav,,,,,,,,,0,1,1,1,0,34,34,164,648.004638671,8.98027792573E-06,648.858374448,0.853745719418,,,,,x,1,0.833763481351,2018_Nov_13_1539,60.0026750081,spanish_cond1,1,1005
images\charcoalbarbecue.jpg,charcoal barbecue,z,sounds\animalfarm_spanish.wav,,,,,,,,,0,1,1,1,0,35,35,77,649.97389124,8.98027792573E-06,650.67554032,0.70165902318,,,,,z,1,0.683730077697,2018_Nov_13_1539,60.0026750081,spanish_cond1,1,1005
images\cola.jpg,comb,x,sounds\animalfarm_spanish.wav,,,,,,,,,0,1,1,1,0,36,36,157,651.796412286,8.98039434105E-06,652.626076559,0.829674536129,,,,,x,1,0.817115839105,2018_Nov_13_1539,60.0026750081,spanish_cond1,1,1005
images\honeycomb.jpg,honey comb,z,sounds\animalfarm_spanish.wav,,,,,,,,,0,1,1,1,0,37,37,59,653.736863594,9.621726349E-06,654.409888134,0.673034803011,,,,,z,1,0.650398871861,2018_Nov_13_1539,60.0026750081,spanish_cond1,1,1005
images\cigar.jpg,crocodile,x,sounds\animalfarm_spanish.wav,,,,,,,,,0,1,1,1,0,38,38,162,655.506396735,9.30111855268E-06,656.243705818,0.73731902591,,,,,x,1,0.717075395398,2018_Nov_13_1539,60.0026750081,spanish_cond1,1,1005
images\bench02.jpg,electric toothbrush,x,sounds\animalfarm_spanish.wav,,,,,,,,,0,1,1,1,0,39,39,172,657.351041191,8.98039434105E-06,658.227569414,0.876537844655,,,,,x,1,0.867112327134,2018_Nov_13_1539,60.0026750081,spanish_cond1,1,1005
images\nailpolish02b.jpg,nail polish,z,sounds\animalfarm_spanish.wav,,,,,,,,,0,1,1,1,0,40,40,94,659.335595954,8.65967012942E-06,659.994754193,0.659167540958,,,,,z,1,0.650435434654,2018_Nov_13_1539,60.0026750081,spanish_cond1,1,1005
images\sock03.jpg,sock,z,sounds\animalfarm_spanish.wav,,,,,,,,,0,1,1,1,0,41,41,90,661.098680562,9.30100213736E-06,662.261997185,1.16332656494,,,,,z,1,1.15053694474,2018_Nov_13_1539,60.0026750081,spanish_cond1,1,1005
images\basketball01.jpg,basket ball,z,sounds\animalfarm_spanish.wav,,,,,,,,,0,1,1,1,0,42,42,33,663.399803523,8.98027792573E-06,664.079146379,0.679352799081,,,,,z,1,0.667072813609,2018_Nov_13_1539,60.0026750081,spanish_cond1,1,1005
images\pineapple01a.jpg,pineapple,z,sounds\animalfarm_spanish.wav,,,,,,,,,0,1,1,1,0,43,43,51,665.190139,8.98027792573E-06,665.829617447,0.639487748034,,,,,z,1,0.617045215098,2018_Nov_13_1539,60.0026750081,spanish_cond1,1,1005
images\cockroach02.jpg,belt,x,sounds\animalfarm_spanish.wav,,,,,,,,,0,1,1,1,0,44,44,129,666.926747295,8.98027792573E-06,667.863506717,0.936769364402,,,,,x,1,0.917138322024,2018_Nov_13_1539,60.0026750081,spanish_cond1,1,1005
images\diaper01a.jpg,camera,x,sounds\animalfarm_spanish.wav,,,,,,,,,0,1,1,1,0,45,45,143,668.981848791,9.30100213736E-06,669.980736831,0.998897982878,,,,,x,1,0.983812921331,2018_Nov_13_1539,60.0026750081,spanish_cond1,1,1005
images\umbrella01.jpg,umbrella,z,sounds\animalfarm_spanish.wav,,,,,,,,,0,1,1,1,0,46,46,53,671.092072308,9.62184276432E-06,671.764543595,0.672481549438,,,,,z,1,0.650396626792,2018_Nov_13_1539,60.0026750081,spanish_cond1,1,1005
images\handbag02a.jpg,candle,x,sounds\animalfarm_spanish.wav,,,,,,,,,0,1,1,1,0,47,47,144,672.880429864,9.30111855268E-06,673.498363171,0.617942929268,,,,,x,1,0.600399497314,2018_Nov_13_1539,60.0026750081,spanish_cond1,1,1005
images\binder03b.jpg,dj mixer,x,sounds\animalfarm_spanish.wav,,,,,,,,,0,1,1,1,0,48,48,167,674.609214992,9.94256697595E-06,675.582258231,0.973053822061,,,,,x,1,0.950497431098,2018_Nov_13_1539,60.0026750081,spanish_cond1,1,1005
images\panda.jpg,panda,z,sounds\animalfarm_spanish.wav,,,,,,,,,0,1,1,1,0,49,49,83,676.689753646,9.30111855268E-06,677.682801574,0.993057549,,,,,z,1,0.983820939553,2018_Nov_13_1539,60.0026750081,spanish_cond1,1,1005
images\birthdaycandle.jpg,birthday candle,z,sounds\animalfarm_spanish.wav,,,,,,,,,0,1,1,1,0,50,50,55,678.777611285,9.30111855268E-06,679.383118997,0.605517654563,,,,,z,1,0.583559418912,2018_Nov_13_1539,60.0026750081,spanish_cond1,1,1005
images\cheetah.jpg,cheetah,z,sounds\animalfarm_spanish.wav,,,,,,,,,0,1,1,1,0,51,51,82,680.483924053,9.621726349E-06,681.100390036,0.616476566531,,,,,z,1,0.600387309561,2018_Nov_13_1539,60.0026750081,spanish_cond1,1,1005
images\acousticguitar02.jpg,acoustic guitar,z,sounds\animalfarm_spanish.wav,,,,,,,,,0,1,1,1,0,52,52,97,682.213346466,9.30111855268E-06,683.250964505,1.0376283027,,,,,z,1,1.01715984277,2018_Nov_13_1539,60.0026750081,spanish_cond1,1,1005
images\belt02a.jpg,snowman,x,sounds\animalfarm_spanish.wav,,,,,,,,,0,1,1,1,0,53,53,224,684.352469387,9.30111855268E-06,685.118136488,0.765676722163,,,,,x,1,0.750422316953,2018_Nov_13_1539,60.0026750081,spanish_cond1,1,1005
images\snowman.jpg,globe,x,sounds\animalfarm_spanish.wav,,,,,,,,,0,1,1,1,0,54,54,180,686.227856785,9.94256697595E-06,686.985310074,0.757463231101,,,,,x,1,0.733759600553,2018_Nov_13_1539,60.0026750081,spanish_cond1,1,1005
images\radish01.jpg,raisin,x,sounds\animalfarm_spanish.wav,,,,,,,,,0,1,1,1,0,55,55,214,688.094514322,9.30111855268E-06,689.652700728,1.55819602765,,,,,x,1,1.53398180008,2018_Nov_13_1539,60.0026750081,spanish_cond1,1,1005
images\djmixer01.jpg,light bulb,x,sounds\animalfarm_spanish.wav,,,,,,,,,0,1,1,1,0,56,56,196,690.773083586,9.94256697595E-06,691.503218974,0.730145972455,,,,,x,1,0.717111316975,2018_Nov_13_1539,60.0026750081,spanish_cond1,1,1005
images\volleyball.jpg,volley ball,z,sounds\animalfarm_spanish.wav,,,,,,,,,0,1,1,1,0,57,57,2,692.634213076,9.62184276432E-06,693.303677228,0.669474094757,,,,,z,1,0.650404003449,2018_Nov_13_1539,60.0026750081,spanish_cond1,1,1005
images\lantern03.jpg,lantern,z,sounds\animalfarm_spanish.wav,,,,,,,,,0,1,1,1,0,58,58,5,694.40967036,9.30111855268E-06,695.370891611,0.961231513764,,,,,z,1,0.950480753323,2018_Nov_13_1539,60.0026750081,spanish_cond1,1,1005
images\candle08a.jpg,screw driver,x,sounds\animalfarm_spanish.wav,,,,,,,,,0,1,1,1,0,59,59,221,696.482585019,9.62184276432E-06,697.254747477,0.77217208012,,,,,x,1,0.750425524311,2018_Nov_13_1539,60.0026750081,spanish_cond1,1,1005
images\bed.jpg,bed,z,sounds\animalfarm_spanish.wav,,,,,,,,,0,1,1,1,0,60,60,103,698.372417949,9.30100213736E-06,699.121904706,0.749496699544,,,,,z,1,0.733756072586,2018_Nov_13_1539,60.0026750081,spanish_cond1,1,1005
images\dresser02.jpg,dresser,z,sounds\animalfarm_spanish.wav,,,,,,,,,0,1,1,1,0,61,61,87,700.242287885,9.94245056063E-06,701.255809724,1.0135324233,,,,,z,1,1.00049712637,2018_Nov_13_1539,60.0026750081,spanish_cond1,1,1005
images\computermouse02a.jpg,world map,x,sounds\animalfarm_spanish.wav,,,,,,,,,0,1,1,1,0,62,62,239,702.355964988,8.98039434105E-06,703.072961485,0.717005797778,,,,,x,1,0.700408188975,2018_Nov_13_1539,60.0026750081,spanish_cond1,1,1005
images\knife04.jpg,tooth brush,x,sounds\animalfarm_spanish.wav,,,,,,,,,0,1,1,1,0,63,63,233,704.168221176,9.94256697595E-06,705.140187093,0.971975859487,,,,,x,1,0.950480753323,2018_Nov_13_1539,60.0026750081,spanish_cond1,1,1005
images\glasses01b.jpg,calculator,x,sounds\animalfarm_spanish.wav,,,,,,,,,0,1,1,1,0,64,64,142,706.231738862,9.30111855268E-06,707.040691884,0.80896264466,,,,,x,1,0.800434841309,2018_Nov_13_1539,60.0026750081,spanish_cond1,1,1005
images\bus.jpg,microphone,x,sounds\animalfarm_spanish.wav,,,,,,,,,0,1,1,1,0,65,65,203,708.15760031,8.98039434105E-06,709.024558688,0.866968000191,,,,,x,1,0.850442234077,2018_Nov_13_1539,60.0026750081,spanish_cond1,1,1005
images\saltshaker03c.jpg,salt shaker,z,sounds\animalfarm_spanish.wav,,,,,,,,,0,1,1,1,0,66,66,63,710.134455064,8.98039434105E-06,710.775032321,0.640586557915,,,,,z,1,0.617055478273,2018_Nov_13_1539,60.0026750081,spanish_cond1,1,1005
images\sunglasses03a.jpg,sun glasses,z,sounds\animalfarm_spanish.wav,,,,,,,,,0,1,1,1,0,67,67,17,711.881740032,9.94245056063E-06,713.125669717,1.24393994838,,,,,z,1,1.23389735271,2018_Nov_13_1539,60.0026750081,spanish_cond1,1,1005
images\watermelon01.jpg,orange,x,sounds\animalfarm_spanish.wav,,,,,,,,,0,1,1,1,0,68,68,207,714.25305404,8.98039434105E-06,714.926152989,0.67310921161,,,,,x,1,0.650405927794,2018_Nov_13_1539,60.0026750081,spanish_cond1,1,1005
images\rubberglove02a.jpg,lady bug,x,sounds\animalfarm_spanish.wav,,,,,,,,,0,1,1,1,0,69,69,192,716.029944331,9.30111855268E-06,716.826660346,0.796725957305,,,,,x,1,0.783762503183,2018_Nov_13_1539,60.0026750081,spanish_cond1,1,1005
images\lipstick04.jpg,lipstick,z,sounds\animalfarm_spanish.wav,,,,,,,,,0,1,1,1,0,70,70,56,717.924546148,8.98027792573E-06,718.710501139,0.785964612849,,,,,z,1,0.767090806388,2018_Nov_13_1539,60.0026750081,spanish_cond1,1,1005
images\antelope.jpg,antelope,z,sounds\animalfarm_spanish.wav,,,,,,,,,0,1,1,1,0,71,71,12,719.814624434,8.98027792573E-06,720.844425721,1.02981122979,,,,,z,1,1.01718004851,2018_Nov_13_1539,60.0026750081,spanish_cond1,1,1005
images\dreamcatcher.jpg,dream catcher,z,sounds\animalfarm_spanish.wav,,,,,,,,,0,1,1,1,0,72,72,48,721.942238076,9.62184276432E-06,722.761581362,0.819353870349,,,,,z,1,0.800432916963,2018_Nov_13_1539,60.0026750081,spanish_cond1,1,1005
images\candy.jpg,candy,z,sounds\animalfarm_spanish.wav,,,,,,,,,0,1,1,1,0,73,73,31,723.862642038,9.30100213736E-06,724.462257037,0.599624942173,,,,,z,1,0.583919274388,2018_Nov_13_1539,60.0026750081,spanish_cond1,1,1005
images\baseball01a.jpg,baseball,z,sounds\animalfarm_spanish.wav,,,,,,,,,0,1,1,1,0,74,74,74,725.593236386,8.98039434105E-06,726.129146075,0.535919951741,,,,,z,1,0.517015355406,2018_Nov_13_1539,60.0026750081,spanish_cond1,1,1005
images\beermug01b.jpg,beer mug,z,sounds\animalfarm_spanish.wav,,,,,,,,,0,1,1,1,0,75,75,111,727.244803024,9.30111855268E-06,727.929678738,0.684885335388,,,,,z,1,0.667071530712,2018_Nov_13_1539,60.0026750081,spanish_cond1,1,1005
images\flamingo.jpg,flamingo,z,sounds\animalfarm_spanish.wav,,,,,,,,,0,1,1,1,0,76,76,52,729.027259207,8.98039434105E-06,729.796811271,0.769561685272,,,,,z,1,0.750421996228,2018_Nov_13_1539,60.0026750081,spanish_cond1,1,1005
images\pouch01b.jpg,pouch,z,sounds\animalfarm_spanish.wav,,,,,,,,,0,1,1,1,0,77,77,25,730.908117882,9.30100213736E-06,732.430859493,1.52275187394,,,,,z,1,1.50062750187,2018_Nov_13_1539,60.0026750081,spanish_cond1,1,1005
images\bowtie.jpg,bowtie,z,sounds\animalfarm_spanish.wav,,,,,,,,,0,1,1,1,0,78,78,89,733.539954053,8.98027792573E-06,734.231337953,0.691392880864,,,,,z,1,0.667069606367,2018_Nov_13_1539,60.0026750081,spanish_cond1,1,1005
images\computerkeyboard01a.jpg,computer keyboard,z,sounds\animalfarm_spanish.wav,,,,,,,,,0,1,1,1,0,79,79,61,735.346773922,9.62184276432E-06,736.01515081,0.66838651034,,,,,z,1,0.650400475482,2018_Nov_13_1539,60.0026750081,spanish_cond1,1,1005
images\butterfly.jpg,butterfly,z,sounds\animalfarm_spanish.wav,,,,,,,,,0,1,1,1,0,80,80,91,737.120836366,9.30100213736E-06,737.71560775,0.594781006104,,,,,z,1,0.583696369198,2018_Nov_13_1539,60.0026750081,spanish_cond1,1,1005
images\lightswitch02a.jpg,fork,x,sounds\animalfarm_spanish.wav,,,,,,,,,0,1,1,1,0,81,81,177,738.825890923,9.62184276432E-06,739.566098093,0.740217112703,,,,,x,1,0.717076357687,2018_Nov_13_1539,60.0026750081,spanish_cond1,1,1005
images\parkfountain.jpg,park fountain,z,sounds\animalfarm_spanish.wav,,,,,,,,,0,1,1,1,0,82,82,93,740.68452099,9.30100213736E-06,741.516471082,0.831959714065,,,,,z,1,0.816942005185,2018_Nov_13_1539,60.0026750081,spanish_cond1,1,1005
images\flashlight05.jpg,flash light,z,sounds\animalfarm_spanish.wav,,,,,,,,,0,1,1,1,0,83,83,8,742.617817204,9.30100213736E-06,743.500337886,0.882530623698,,,,,z,1,0.866964472109,2018_Nov_13_1539,60.0026750081,spanish_cond1,1,1005
images\egg01b (1).jpg,egg,z,sounds\animalfarm_spanish.wav,,,,,,,,,0,1,1,1,0,84,84,19,744.611698059,9.62184276432E-06,745.250957129,0.639269974665,,,,,z,1,0.617045215098,2018_Nov_13_1539,60.0026750081,spanish_cond1,1,1005
images\button07.jpg,radish,x,sounds\animalfarm_spanish.wav,,,,,,,,,0,1,1,1,0,85,85,215,746.361543709,9.62184276432E-06,747.418216124,1.05668203696,,,,,x,1,1.03383186029,2018_Nov_13_1539,60.0026750081,spanish_cond1,1,1005
images\pepper05a.jpg,lighter,x,sounds\animalfarm_spanish.wav,,,,,,,,,0,1,1,1,0,86,86,198,748.537613068,9.30111855268E-06,749.285377843,0.747774717747,,,,,x,1,0.733737470466,2018_Nov_13_1539,60.0026750081,spanish_cond1,1,1005
images\licenseplate.jpg,license plate,z,sounds\animalfarm_spanish.wav,,,,,,,,,0,1,1,1,0,87,87,40,750.400452032,8.98027792573E-06,751.069188776,0.6687463657,,,,,z,1,0.650394702447,2018_Nov_13_1539,60.0026750081,spanish_cond1,1,1005
images\spoon02b.jpg,spoon,z,sounds\animalfarm_spanish.wav,,,,,,,,,0,1,1,1,0,88,88,38,752.159057692,8.98039434105E-06,753.069765443,0.910717372666,,,,,z,1,0.900483303121,2018_Nov_13_1539,60.0026750081,spanish_cond1,1,1005
images\envelope02a.jpg,grand piano,x,sounds\animalfarm_spanish.wav,,,,,,,,,0,1,1,1,0,89,89,182,754.191172381,8.98027792573E-06,755.253651233,1.06248847384,,,,,x,1,1.05050419841,2018_Nov_13_1539,60.0026750081,spanish_cond1,1,1005
images\leaf01a.jpg,leaf,z,sounds\animalfarm_spanish.wav,,,,,,,,,0,1,1,1,0,90,90,68,756.355279916,9.30100213736E-06,757.20418619,0.848915895447,,,,,z,1,0.83378913952,2018_Nov_13_1539,60.0026750081,spanish_cond1,1,1005
images\hammer02a.jpg,flower,x,sounds\animalfarm_spanish.wav,,,,,,,,,0,1,1,1,0,91,91,176,758.298373049,9.30111855268E-06,759.038194385,0.739837372326,,,,,x,1,0.717224212596,2018_Nov_13_1539,60.0026750081,spanish_cond1,1,1005
images\shotglass.jpg,shot glass,z,sounds\animalfarm_spanish.wav,,,,,,,,,0,1,1,1,0,92,92,86,760.145341813,8.98027792573E-06,761.088567086,0.943235215498,,,,,z,1,0.933817074751,2018_Nov_13_1539,60.0026750081,spanish_cond1,1,1005
images\8ball.jpg,nail clipper,x,sounds\animalfarm_spanish.wav,,,,,,,,,0,1,1,1,0,93,93,206,762.204549252,9.30111855268E-06,762.955817967,0.751278336626,,,,,x,1,0.733843630995,2018_Nov_13_1539,60.0026750081,spanish_cond1,1,1005
images\lightbulb03b.jpg,treadmill,x,sounds\animalfarm_spanish.wav,,,,,,,,,0,1,1,1,0,94,94,234,764.058808455,8.98039434105E-06,765.589774462,1.53097594914,,,,,x,1,1.51730433025,2018_Nov_13_1539,60.0026750081,spanish_cond1,1,1005
images\lip.jpg,boxing glove,x,sounds\animalfarm_spanish.wav,,,,,,,,,0,1,1,1,0,95,95,136,766.69160007,9.30111855268E-06,767.440427413,0.748836964718,,,,,x,1,0.733920284663,2018_Nov_13_1539,60.0026750081,spanish_cond1,1,1005
images\corn01.jpg,corn,z,sounds\animalfarm_spanish.wav,,,,,,,,,0,1,1,1,0,96,96,22,768.538046049,9.30111855268E-06,769.390802327,0.852765899384,,,,,z,1,0.833798119798,2018_Nov_13_1539,60.0026750081,spanish_cond1,1,1005
images\scissors04a.jpg,leek,x,sounds\animalfarm_spanish.wav,,,,,,,,,0,1,1,1,0,97,97,194,770.483361819,9.30100213736E-06,771.107959508,0.624608272337,,,,,x,1,0.600422589574,2018_Nov_13_1539,60.0026750081,spanish_cond1,1,1005
images\hand01a.jpg,cupcake,x,sounds\animalfarm_spanish.wav,,,,,,,,,0,1,1,1,0,98,98,163,772.217737857,8.98039434105E-06,772.908392745,0.690664831316,,,,,x,1,0.667059343075,2018_Nov_13_1539,60.0026750081,spanish_cond1,1,1005
images\dice05a.jpg,band aid,x,sounds\animalfarm_spanish.wav,,,,,,,,,0,1,1,1,0,99,99,126,774.019207362,9.30100213736E-06,774.958944411,0.939746991498,,,,,x,1,0.917137359967,2018_Nov_13_1539,60.0026750081,spanish_cond1,1,1005
images\swan.jpg,swan,z,sounds\animalfarm_spanish.wav,,,,,,,,,0,1,1,1,0,100,100,54,776.049293776,9.30111855268E-06,777.142868689,1.09358485579,,,,,z,1,1.08384791261,2018_Nov_13_1539,60.0026750081,spanish_cond1,1,1005
images\cupcake.jpg,scissors,x,sounds\animalfarm_spanish.wav,,,,,,,,,0,1,1,1,0,101,101,219,778.261892307,8.98027792573E-06,779.060050309,0.798167944653,,,,,x,1,0.783764106687,2018_Nov_13_1539,60.0026750081,spanish_cond1,1,1005
images\seagull.jpg,seagull,z,sounds\animalfarm_spanish.wav,,,,,,,,,0,1,1,1,0,102,102,50,780.166338189,9.30111855268E-06,780.927238007,0.760910722893,,,,,z,1,0.750439956901,2018_Nov_13_1539,60.0026750081,spanish_cond1,1,1005
images\orange.jpg,bat,x,sounds\animalfarm_spanish.wav,,,,,,,,,0,1,1,1,0,103,103,128,782.050319781,9.30111855268E-06,782.761048956,0.710738797323,,,,,x,1,0.700402415823,2018_Nov_13_1539,60.0026750081,spanish_cond1,1,1005
images\broadsword.jpg,teapot,x,sounds\animalfarm_spanish.wav,,,,,,,,,0,1,1,1,0,104,104,231,783.85340158,8.98027792573E-06,785.12834971,1.27495807293,,,,,x,1,1.25055974827,2018_Nov_13_1539,60.0026750081,spanish_cond1,1,1005
images\eyedrops.jpg,bicycle,x,sounds\animalfarm_spanish.wav,,,,,,,,,0,1,1,1,0,105,105,131,786.227341698,9.30111855268E-06,786.928826246,0.701494811103,,,,,x,1,0.68373713363,2018_Nov_13_1539,60.0026750081,spanish_cond1,1,1005
images\headphones02b.jpg,headphones,z,sounds\animalfarm_spanish.wav,,,,,,,,,0,1,1,1,0,106,106,101,788.034932915,9.30111855268E-06,788.74601489,0.711091275909,,,,,x,0,0.700440902961,2018_Nov_13_1539,60.0026750081,spanish_cond1,1,1005
images\calculator02b.jpg,dice,x,sounds\animalfarm_spanish.wav,,,,,,,,,0,1,1,1,0,107,107,165,789.84641102,9.30111855268E-06,790.879895212,1.03349413502,,,,,x,1,1.01715599408,2018_Nov_13_1539,60.0026750081,spanish_cond1,1,1005
images\skateboard.jpg,key,x,sounds\animalfarm_spanish.wav,,,,,,,,,0,1,1,1,0,108,108,189,791.969757072,8.98027792573E-06,792.863761695,0.894014244666,,,,,x,1,0.883771515451,2018_Nov_13_1539,60.0026750081,spanish_cond1,1,1005
images\blackolive.jpg,tank,x,sounds\animalfarm_spanish.wav,,,,,,,,,0,1,1,1,0,109,109,229,793.97663634,9.30100213736E-06,794.730929187,0.754303110414,,,,,x,1,0.733755431022,2018_Nov_13_1539,60.0026750081,spanish_cond1,1,1005
images\hat05.jpg,hat,z,sounds\animalfarm_spanish.wav,,,,,,,,,0,1,1,1,0,110,110,15,795.833139668,8.98039434105E-06,796.498096968,0.664966921904,,,,,z,1,0.650426454376,2018_Nov_13_1539,60.0026750081,spanish_cond1,1,1005
images\marker01a.jpg,marker,z,sounds\animalfarm_spanish.wav,,,,,,,,,0,1,1,1,0,111,111,95,797.595596935,9.62184276432E-06,798.331896371,0.736309378175,,,,,z,1,0.717075716238,2018_Nov_13_1539,60.0026750081,spanish_cond1,1,1005
images\dryingmachine01.jpg,drying machine,z,sounds\animalfarm_spanish.wav,,,,,,,,,0,1,1,1,0,112,112,18,799.451208643,9.62184276432E-06,800.065701514,0.614503134973,,,,,z,1,0.600395007059,2018_Nov_13_1539,60.0026750081,spanish_cond1,1,1005
images\carrot02.jpg,corkscrew,x,sounds\animalfarm_spanish.wav,,,,,,,,,0,1,1,1,0,113,113,161,801.16696072,9.30111855268E-06,801.949572134,0.782621036749,,,,,x,1,0.767127369298,2018_Nov_13_1539,60.0026750081,spanish_cond1,1,1005
images\daisy.jpg,daisy,z,sounds\animalfarm_spanish.wav,,,,,,,,,0,1,1,1,0,114,114,6,803.050082122,8.98039434105E-06,803.866714305,0.816641804995,,,,,z,1,0.800429068157,2018_Nov_13_1539,60.0026750081,spanish_cond1,1,1005
images\apricot.jpg,apricot,z,sounds\animalfarm_spanish.wav,,,,,,,,,0,1,1,1,0,115,115,32,804.981871562,9.30111855268E-06,805.700545781,0.718684160849,,,,,z,1,0.700407868135,2018_Nov_13_1539,60.0026750081,spanish_cond1,1,1005
images\boxingglove02a.jpg,bracelet,x,sounds\animalfarm_spanish.wav,,,,,,,,,0,1,1,1,0,116,116,135,806.810202574,9.30111855268E-06,808.051162009,1.24096905661,,,,,x,1,1.21719839412,2018_Nov_13_1539,60.0026750081,spanish_cond1,1,1005
images\magnifyingglass01b.jpg,magnifying glass,z,sounds\animalfarm_spanish.wav,,,,,,,,,0,1,1,1,0,117,117,64,809.157137822,9.30111855268E-06,809.985028476,0.827900275821,,,,,z,1,0.81711166969,2018_Nov_13_1539,60.0026750081,spanish_cond1,1,1005
images\coin01b.jpg,arrow,x,sounds\animalfarm_spanish.wav,,,,,,,,,0,1,1,1,0,118,118,124,811.086617067,9.62184276432E-06,811.935557017,0.848949892563,,,,,x,1,0.833785290713,2018_Nov_13_1539,60.0026750081,spanish_cond1,1,1005
images\table02.jpg,table,z,sounds\animalfarm_spanish.wav,,,,,,,,,0,1,1,1,0,119,119,49,813.04870428,8.98039434105E-06,813.752707816,0.70401315752,,,,,z,1,0.683739057975,2018_Nov_13_1539,60.0026750081,spanish_cond1,1,1005
images\doll.jpg,carrot,x,sounds\animalfarm_spanish.wav,,,,,,,,,0,1,1,1,0,120,120,146,814.862491296,8.98027792573E-06,816.019988973,1.15750729886,,,,,x,1,1.13385466393,2018_Nov_13_1539,60.0026750081,spanish_cond1,1,1005
images\lemon02.jpg,lemon,z,sounds\animalfarm_spanish.wav,,,,,,,,,0,1,1,1,0,121,121,14,817.130571705,9.62184276432E-06,817.770463889,0.639902447816,,,,,z,1,0.617068307474,2018_Nov_13_1539,60.0026750081,spanish_cond1,1,1005
images\toucan.jpg,toucan,z,sounds\animalfarm_spanish.wav,,,,,,,,,0,1,1,1,0,122,122,81,818.869613033,9.30111855268E-06,819.704310792,0.834708021604,,,,,z,1,0.817109745345,2018_Nov_13_1539,60.0026750081,spanish_cond1,1,1005
images\radio03a.jpg,radio,z,sounds\animalfarm_spanish.wav,,,,,,,,,0,1,1,1,0,123,123,37,820.817223924,9.621726349E-06,821.704851216,0.887637234991,,,,,z,1,0.867126439232,2018_Nov_13_1539,60.0026750081,spanish_cond1,1,1005
images\hairband.jpg,hairband,z,sounds\animalfarm_spanish.wav,,,,,,,,,0,1,1,1,0,124,124,66,822.81280014,9.94256697595E-06,823.421976645,0.609186447808,,,,,z,1,0.600385385333,2018_Nov_13_1539,60.0026750081,spanish_cond1,1,1005
images\sportshorts02.jpg,tape,x,sounds\animalfarm_spanish.wav,,,,,,,,,0,1,1,1,0,125,125,230,824.528081711,9.62184276432E-06,825.20578854,0.677717092796,,,,,x,1,0.667054852936,2018_Nov_13_1539,60.0026750081,spanish_cond1,1,1005
images\bracelet02a.jpg,chess knight,x,sounds\animalfarm_spanish.wav,,,,,,,,,0,1,1,1,0,126,126,152,826.31348858,9.30111855268E-06,827.306391539,0.99291322194,,,,,x,1,0.983854936552,2018_Nov_13_1539,60.0026750081,spanish_cond1,1,1005
images\squirrel.jpg,binder,x,sounds\animalfarm_spanish.wav,,,,,,,,,0,1,1,1,0,127,127,132,828.408647883,9.62184276432E-06,829.573636454,1.16499851341,,,,,x,1,1.15054079331,2018_Nov_13_1539,60.0026750081,spanish_cond1,1,1005
images\candycane01a.jpg,lip,x,sounds\animalfarm_spanish.wav,,,,,,,,,0,1,1,1,0,128,128,200,830.666090107,9.30111855268E-06,831.657525741,0.991445576306,,,,,x,1,0.967157581705,2018_Nov_13_1539,60.0026750081,spanish_cond1,1,1005
images\worldmap.jpg,scooter,x,sounds\animalfarm_spanish.wav,,,,,,,,,0,1,1,1,0,129,129,220,832.788639153,9.30111855268E-06,833.608060697,0.81943148619,,,,,x,1,0.800441897241,2018_Nov_13_1539,60.0026750081,spanish_cond1,1,1005
images\chameleon.jpg,50 dollar bill,x,sounds\animalfarm_spanish.wav,,,,,,,,,0,1,1,1,0,130,130,120,834.716868206,9.30111855268E-06,835.591912426,0.875053521246,,,,,x,1,0.850446403492,2018_Nov_13_1539,60.0026750081,spanish_cond1,1,1005
images\puzzle.jpg,puzzle,z,sounds\animalfarm_spanish.wav,,,,,,,,,0,1,1,1,0,131,131,57,836.710681066,8.98039434105E-06,837.959215425,1.24854366004,,,,,z,1,1.23386367632,2018_Nov_13_1539,60.0026750081,spanish_cond1,1,1005
images\axe01.jpg,axe,z,sounds\animalfarm_spanish.wav,,,,,,,,,0,1,1,1,0,132,132,104,839.061689223,8.98027792573E-06,839.77636462,0.714685339713,,,,,z,1,0.700406585354,2018_Nov_13_1539,60.0026750081,spanish_cond1,1,1005
images\wallet01.jpg,lamp,x,sounds\animalfarm_spanish.wav,,,,,,,,,0,1,1,1,0,133,133,193,840.880090214,9.30100213736E-06,841.593524078,0.713443806628,,,,,x,1,0.700411716942,2018_Nov_13_1539,60.0026750081,spanish_cond1,1,1005
images\bandaid01.jpg,door handle,x,sounds\animalfarm_spanish.wav,,,,,,,,,0,1,1,1,0,134,134,170,842.699470705,9.94256697595E-06,843.477361663,0.777900901274,,,,,x,1,0.767098183162,2018_Nov_13_1539,60.0026750081,spanish_cond1,1,1005
images\desktopcomputer.jpg,desktop computer,z,sounds\animalfarm_spanish.wav,,,,,,,,,0,1,1,1,0,135,135,16,844.611843989,9.62184276432E-06,845.878028583,1.26619421481,,,,,z,1,1.25057225674,2018_Nov_13_1539,60.0026750081,spanish_cond1,1,1005
images\medal01.jpg,medal,z,sounds\animalfarm_spanish.wav,,,,,,,,,0,1,1,1,0,136,136,115,846.977338731,9.62184276432E-06,847.945224683,0.967896536109,,,,,z,1,0.950467603514,2018_Nov_13_1539,60.0026750081,spanish_cond1,1,1005
images\bullet (2).jpg,rubber glove,x,sounds\animalfarm_spanish.wav,,,,,,,,,0,1,1,1,0,137,137,217,849.048508957,9.94245056063E-06,849.745716293,0.697217278532,,,,,x,1,0.683743868838,2018_Nov_13_1539,60.0026750081,spanish_cond1,1,1005
images\bowlingball.jpg,bowling ball,z,sounds\animalfarm_spanish.wav,,,,,,,,,0,1,1,1,0,138,138,20,850.877589187,9.94256697595E-06,851.779598187,0.902018942754,,,,,z,1,0.883797815186,2018_Nov_13_1539,60.0026750081,spanish_cond1,1,1005
images\razor04a.jpg,razor,z,sounds\animalfarm_spanish.wav,,,,,,,,,0,1,1,1,0,139,139,36,852.87833648,9.30111855268E-06,853.480051278,0.601724419394,,,,,z,1,0.583714650711,2018_Nov_13_1539,60.0026750081,spanish_cond1,1,1005
images\globe.jpg,cloud,x,sounds\animalfarm_spanish.wav,,,,,,,,,0,1,1,1,0,140,140,154,854.606282267,8.98039434105E-06,855.43058463,0.824312626501,,,,,x,1,0.800447028945,2018_Nov_13_1539,60.0026750081,spanish_cond1,1,1005
images\drink.jpg,drink,z,sounds\animalfarm_spanish.wav,,,,,,,,,0,1,1,1,0,141,141,117,856.528912714,8.98027792573E-06,857.297758216,0.76885512413,,,,,z,1,0.750430976506,2018_Nov_13_1539,60.0026750081,spanish_cond1,1,1005
images\flipflop01b.jpg,flip flop,z,sounds\animalfarm_spanish.wav,,,,,,,,,0,1,1,1,0,142,142,27,858.414445981,8.98027792573E-06,859.41497486,1.00053882087,,,,,z,1,0.983812279883,2018_Nov_13_1539,60.0026750081,spanish_cond1,1,1005
images\redfox.jpg,red fox,z,sounds\animalfarm_spanish.wav,,,,,,,,,0,1,1,1,0,143,143,1,860.52593669,8.98039434105E-06,861.198806961,0.672879892052,,,,,z,1,0.650401758379,2018_Nov_13_1539,60.0026750081,spanish_cond1,1,1005
images\doorhandle.jpg,doll,x,sounds\animalfarm_spanish.wav,,,,,,,,,0,1,1,1,0,144,144,168,862.300450396,9.30111855268E-06,863.032628493,0.732188039576,,,,,x,1,0.717093997635,2018_Nov_13_1539,60.0026750081,spanish_cond1,1,1005
images\screwdriver02b.jpg,cola,x,sounds\animalfarm_spanish.wav,,,,,,,,,0,1,1,1,0,145,145,158,864.12482813,9.30111855268E-06,865.283231219,1.15841335198,,,,,x,1,1.15054207633,2018_Nov_13_1539,60.0026750081,spanish_cond1,1,1005
images\puma.jpg,puma,z,sounds\animalfarm_spanish.wav,,,,,,,,,0,1,1,1,0,146,146,4,866.381043253,9.30111855268E-06,867.050376549,0.669342917507,,,,,z,1,0.650409135036,2018_Nov_13_1539,60.0026750081,spanish_cond1,1,1005
images\nametag01a.jpg,name tag,z,sounds\animalfarm_spanish.wav,,,,,,,,,0,1,1,1,0,147,147,108,868.17035914,9.30100213736E-06,868.967551755,0.797202557209,,,,,z,1,0.783747749752,2018_Nov_13_1539,60.0026750081,spanish_cond1,1,1005
images\lettuce.jpg,mushroom,x,sounds\animalfarm_spanish.wav,,,,,,,,,0,1,1,1,0,148,148,205,870.089233235,8.98027792573E-06,870.968083199,0.878859906225,,,,,z,0,0.867124194046,2018_Nov_13_1539,60.0026750081,spanish_cond1,1,1005
images\grandpiano.jpg,tulip,x,sounds\animalfarm_spanish.wav,,,,,,,,,0,1,1,1,0,149,149,236,872.0809912,9.30111855268E-06,872.801913392,0.720931813819,,,,,z,0,0.700409471756,2018_Nov_13_1539,60.0026750081,spanish_cond1,1,1005
images\showerhead01.jpg,skateboard,x,sounds\animalfarm_spanish.wav,,,,,,,,,0,1,1,1,0,150,150,223,873.908306791,8.98039434105E-06,875.035944487,1.12767393899,,,,,x,1,1.11726026237,2018_Nov_13_1539,60.0026750081,spanish_cond1,1,1005
images\bottleofredwine02.jpg,pipe,x,sounds\animalfarm_spanish.wav,,,,,,,,,0,1,1,1,0,151,151,213,876.132660598,8.98027792573E-06,877.153096023,1.02044536755,,,,,x,1,1.00050738966,2018_Nov_13_1539,60.0026750081,spanish_cond1,1,1005
images\crocodile.jpg,triangle ruler,x,sounds\animalfarm_spanish.wav,,,,,,,,,0,1,1,1,0,152,152,235,878.249282294,9.30111855268E-06,879.236979857,0.987707185559,,,,,x,1,0.967152770841,2018_Nov_13_1539,60.0026750081,spanish_cond1,1,1005
images\screw03c.jpg,screw,z,sounds\animalfarm_spanish.wav,,,,,,,,,0,1,1,1,0,153,153,84,880.329359101,9.30111855268E-06,881.28753024,0.958181081689,,,,,z,1,0.933808094356,2018_Nov_13_1539,60.0026750081,spanish_cond1,1,1005
images\highheelshoe02a.jpg,high heel shoe,z,sounds\animalfarm_spanish.wav,,,,,,,,,0,1,1,1,0,154,154,75,882.392201978,1.02632911876E-05,882.971313238,0.579121843795,,,,,z,1,0.567043595482,2018_Nov_13_1539,60.0026750081,spanish_cond1,1,1005
images\cloud.jpg,ceiling fan,x,sounds\animalfarm_spanish.wav,,,,,,,,,0,1,1,1,0,155,155,149,884.075607801,9.30100213736E-06,885.388634856,1.31303699675,,,,,x,1,1.30058253603,2018_Nov_13_1539,60.0026750081,spanish_cond1,1,1005
images\key03b.jpg,cigar,x,sounds\animalfarm_spanish.wav,,,,,,,,,0,1,1,1,0,156,156,153,886.488863245,8.65967012942E-06,888.389438276,1.90058529424,,,,,x,1,1.88406081102,2018_Nov_13_1539,60.0026750081,spanish_cond1,1,1005
images\electricguitar02.jpg,electric guitar,z,sounds\animalfarm_spanish.wav,,,,,,,,,0,1,1,1,0,157,157,100,889.489984185,9.30111855268E-06,890.106563063,0.616588820936,,,,,z,1,0.600370311178,2018_Nov_13_1539,60.0026750081,spanish_cond1,1,1005
images\apple06.jpg,apple,z,sounds\animalfarm_spanish.wav,,,,,,,,,0,1,1,1,0,158,158,13,891.232029761,9.621726349E-06,891.773683024,0.54166288476,,,,,z,1,0.533703729976,2018_Nov_13_1539,60.0026750081,spanish_cond1,1,1005
images\toothbrush03a.jpg,parrot,x,sounds\animalfarm_spanish.wav,,,,,,,,,0,1,1,1,0,159,159,210,892.864518931,9.30111855268E-06,893.507478225,0.642968916101,,,,,x,1,0.633736796794,2018_Nov_13_1539,60.0026750081,spanish_cond1,1,1005
images\mushroom01.jpg,shower head,x,sounds\animalfarm_spanish.wav,,,,,,,,,0,1,1,1,0,160,160,222,894.622656971,8.98027792573E-06,895.591371681,0.968724011094,,,,,x,1,0.950476583908,2018_Nov_13_1539,60.0026750081,spanish_cond1,1,1005
images\treadmill.jpg,lily,x,sounds\animalfarm_spanish.wav,,,,,,,,,0,1,1,1,0,161,161,199,896.695503315,8.98027792573E-06,897.575412318,0.879918945837,,,,,x,1,0.867299310863,2018_Nov_13_1539,60.0026750081,spanish_cond1,1,1005
images\ladder.jpg,ladder,z,sounds\animalfarm_spanish.wav,,,,,,,,,0,1,1,1,0,162,162,113,898.666530785,9.30100213736E-06,899.692486559,1.02596571622,,,,,z,1,1.01715791842,2018_Nov_13_1539,60.0026750081,spanish_cond1,1,1005
images\paperclip04.jpg,eye drops,x,sounds\animalfarm_spanish.wav,,,,,,,,,0,1,1,1,0,163,163,174,900.797924834,9.30111855268E-06,901.659671723,0.861756511382,,,,,x,1,0.850452818093,2018_Nov_13_1539,60.0026750081,spanish_cond1,1,1005
images\kiwi03.jpg,backpack,x,sounds\animalfarm_spanish.wav,,,,,,,,,0,1,1,1,0,164,164,125,902.786905304,9.621726349E-06,903.710225314,0.923330913996,,,,,x,1,0.900466304622,2018_Nov_13_1539,60.0026750081,spanish_cond1,1,1005
images\gamecontroller01.jpg,game controller,z,sounds\animalfarm_spanish.wav,,,,,,,,,0,1,1,1,0,165,165,112,904.828678038,9.621726349E-06,905.694088268,0.865420172806,,,,,z,1,0.850456987508,2018_Nov_13_1539,60.0026750081,spanish_cond1,1,1005
images\leek.jpg,donut,x,sounds\animalfarm_spanish.wav,,,,,,,,,0,1,1,1,0,166,166,169,906.793300275,9.30111855268E-06,907.477908502,0.684618490748,,,,,x,1,0.667071530712,2018_Nov_13_1539,60.0026750081,spanish_cond1,1,1005
images\lollipop03b.jpg,lollipop,z,sounds\animalfarm_spanish.wav,,,,,,,,,0,1,1,1,0,167,167,42,908.569132168,8.98039434105E-06,909.42845276,0.859330213512,,,,,z,1,0.850482645677,2018_Nov_13_1539,60.0026750081,spanish_cond1,1,1005
images\ostrich.jpg,ostrich,z,sounds\animalfarm_spanish.wav,,,,,,,,,0,1,1,1,0,168,168,76,910.527367132,9.30111855268E-06,911.228913901,0.701557032065,,,,,z,1,0.683747717529,2018_Nov_13_1539,60.0026750081,spanish_cond1,1,1005
images\gluestick.jpg,squirrel,x,sounds\animalfarm_spanish.wav,,,,,,,,,0,1,1,1,0,169,169,226,912.335239947,8.98027792573E-06,912.946033877,0.610803551972,,,,,x,1,0.600382498698,2018_Nov_13_1539,60.0026750081,spanish_cond1,1,1005
images\giraffe.jpg,lettuce,x,sounds\animalfarm_spanish.wav,,,,,,,,,0,1,1,1,0,170,170,195,914.04581357,9.30111855268E-06,915.696771468,1.65096816176,,,,,x,1,1.63399626478,2018_Nov_13_1539,60.0026750081,spanish_cond1,1,1005
images\teapot.jpg,light switch,x,sounds\animalfarm_spanish.wav,,,,,,,,,0,1,1,1,0,171,171,197,916.812406929,9.94256697595E-06,917.630622219,0.818225553725,,,,,x,1,0.800431954791,2018_Nov_13_1539,60.0026750081,spanish_cond1,1,1005
images\gorilla.jpg,gorilla,z,sounds\animalfarm_spanish.wav,,,,,,,,,0,1,1,1,0,172,172,80,918.74020717,8.65967012942E-06,919.414445661,0.674248112249,,,,,z,1,0.650394381722,2018_Nov_13_1539,60.0026750081,spanish_cond1,1,1005
images\atm.jpg,atm,z,sounds\animalfarm_spanish.wav,,,,,,,,,0,1,1,1,0,173,173,96,920.554548082,8.98039434105E-06,921.631693768,1.07715530775,,,,,z,1,1.06716242479,2018_Nov_13_1539,60.0026750081,spanish_cond1,1,1005
images\scooter.jpg,pen,x,sounds\animalfarm_spanish.wav,,,,,,,,,0,1,1,1,0,174,174,212,922.722863872,9.30111855268E-06,923.532218444,0.809364835965,,,,,x,1,0.800440614345,2018_Nov_13_1539,60.0026750081,spanish_cond1,1,1005
images\cherry01.jpg,highlighter,x,sounds\animalfarm_spanish.wav,,,,,,,,,0,1,1,1,0,175,175,187,924.639542913,9.30111855268E-06,925.582772676,0.943240347202,,,,,x,1,0.933812905336,2018_Nov_13_1539,60.0026750081,spanish_cond1,1,1005
images\printer03a.jpg,printer,z,sounds\animalfarm_spanish.wav,,,,,,,,,0,1,1,1,0,176,176,72,926.690663869,9.621726349E-06,927.616640458,0.925987172872,,,,,z,1,0.917128379573,2018_Nov_13_1539,60.0026750081,spanish_cond1,1,1005
images\fireextinguisher02.jpg,fire extinguisher,z,sounds\animalfarm_spanish.wav,,,,,,,,,0,1,1,1,0,177,177,175,928.725307809,9.30100213736E-06,929.667194048,0.941896502045,,,,,z,1,0.933803283609,2018_Nov_13_1539,60.0026750081,spanish_cond1,1,1005
images\ruler02b.jpg,watermelon,x,sounds\animalfarm_spanish.wav,,,,,,,,,0,1,1,1,0,178,178,238,930.76802348,8.6595537141E-06,931.484216877,0.716203339398,,,,,x,1,0.700268031331,2018_Nov_13_1539,60.0026750081,spanish_cond1,1,1005
images\plant01.jpg,plant,z,sounds\animalfarm_spanish.wav,,,,,,,,,0,1,1,1,0,179,179,47,932.594935917,9.30111855268E-06,933.634932466,1.04000649159,,,,,z,1,1.01716882316,2018_Nov_13_1539,60.0026750081,spanish_cond1,1,1005
images\weight01.jpg,weight,z,sounds\animalfarm_spanish.wav,,,,,,,,,0,1,1,1,0,180,180,67,934.73829596,8.98027792573E-06,935.585487628,0.847201290308,,,,,z,1,0.833818646381,2018_Nov_13_1539,60.0026750081,spanish_cond1,1,1005
images\feather03b.jpg,feather,z,sounds\animalfarm_spanish.wav,,,,,,,,,0,1,1,1,0,181,181,114,936.684947556,8.98027792573E-06,937.435948464,0.751010529697,,,,,z,1,0.733753827401,2018_Nov_13_1539,60.0026750081,spanish_cond1,1,1005
images\ladybug03.jpg,giraffe,x,sounds\animalfarm_spanish.wav,,,,,,,,,0,1,1,1,0,182,182,178,938.538865506,9.30111855268E-06,939.219607373,0.680752129876,,,,,x,1,0.666904432117,2018_Nov_13_1539,60.0026750081,spanish_cond1,1,1005
images\nailclipper03a.jpg,aquarium,x,sounds\animalfarm_spanish.wav,,,,,,,,,0,1,1,1,0,183,183,123,940.317792412,9.62184276432E-06,941.703769726,1.38598725619,,,,,x,1,1.36726290837,2018_Nov_13_1539,60.0026750081,spanish_cond1,1,1005
images\croissant02b.jpg,croissant,z,sounds\animalfarm_spanish.wav,,,,,,,,,0,1,1,1,0,184,184,39,942.813067305,8.65967012942E-06,943.604278687,0.79122068279,,,,,z,1,0.767102352576,2018_Nov_13_1539,60.0026750081,spanish_cond1,1,1005
images\tie01.jpg,bench,x,sounds\animalfarm_spanish.wav,,,,,,,,,0,1,1,1,0,185,185,130,944.701424572,9.621726349E-06,945.571484699,0.870070389821,,,,,x,1,0.850424594013,2018_Nov_13_1539,60.0026750081,spanish_cond1,1,1005
images\camera01a.jpg,bull,x,sounds\animalfarm_spanish.wav,,,,,,,,,0,1,1,1,0,186,186,138,946.680729358,9.621726349E-06,948.172180868,1.49146177305,,,,,x,1,1.46729661676,2018_Nov_13_1539,60.0026750081,spanish_cond1,1,1005
images\parkbench03.jpg,park bench,z,sounds\animalfarm_spanish.wav,,,,,,,,,0,1,1,1,0,187,187,71,949.276298711,9.621726349E-06,950.139370522,0.863081433461,,,,,z,1,0.850461156922,2018_Nov_13_1539,60.0026750081,spanish_cond1,1,1005
images\pictureframe04.jpg,picture frame,z,sounds\animalfarm_spanish.wav,,,,,,,,,0,1,1,1,0,188,188,41,951.259906367,9.30111855268E-06,951.956526132,0.69663002796,,,,,z,1,0.683740661596,2018_Nov_13_1539,60.0026750081,spanish_cond1,1,1005
images\gps.jpg,gps,z,sounds\animalfarm_spanish.wav,,,,,,,,,0,1,1,1,0,189,189,21,953.073384523,9.94256697595E-06,953.773677251,0.700302990503,,,,,z,1,0.683731039753,2018_Nov_13_1539,60.0026750081,spanish_cond1,1,1005
images\cookingpot.jpg,grasshopper,x,sounds\animalfarm_spanish.wav,,,,,,,,,0,1,1,1,0,190,190,183,954.886555424,9.30100213736E-06,955.824232765,0.937686963589,,,,,x,1,0.917142491438,2018_Nov_13_1539,60.0026750081,spanish_cond1,1,1005
images\parrot01.jpg,chameleon,x,sounds\animalfarm_spanish.wav,,,,,,,,,0,1,1,1,0,191,191,150,956.93595087,9.62184276432E-06,957.808094758,0.872154151555,,,,,x,1,0.850448327838,2018_Nov_13_1539,60.0026750081,spanish_cond1,1,1005
images\hairdryer03a.jpg,hairdryer,z,sounds\animalfarm_spanish.wav,,,,,,,,,0,1,1,1,0,192,192,119,958.905943355,8.98039434105E-06,959.975342528,1.06940879487,,,,,z,1,1.05050355708,2018_Nov_13_1539,60.0026750081,spanish_cond1,1,1005
images\bat.jpg,hand,x,sounds\animalfarm_spanish.wav,,,,,,,,,0,1,1,1,0,193,193,185,961.073415634,9.30111855268E-06,962.025891949,0.952485616202,,,,,x,1,0.933797831181,2018_Nov_13_1539,60.0026750081,spanish_cond1,1,1005
images\parkingmeter.jpg,ear,x,sounds\animalfarm_spanish.wav,,,,,,,,,0,1,1,1,0,194,194,171,963.126251837,8.6595537141E-06,964.309851539,1.18360900332,,,,,x,1,1.16721377312,2018_Nov_13_1539,60.0026750081,spanish_cond1,1,1005
images\barrel01.jpg,barrel,z,sounds\animalfarm_spanish.wav,,,,,,,,,0,1,1,1,0,195,195,9,965.438341407,9.30100213736E-06,966.060315229,0.621983765392,,,,,z,1,0.600385064492,2018_Nov_13_1539,60.0026750081,spanish_cond1,1,1005
images\paintbrush03a.jpg,paint brush,z,sounds\animalfarm_spanish.wav,,,,,,,,,0,1,1,1,0,196,196,0,967.159737953,9.30111855268E-06,967.877467631,0.717739620595,,,,,z,1,0.700408830424,2018_Nov_13_1539,60.0026750081,spanish_cond1,1,1005
images\eraser.jpg,eraser,z,sounds\animalfarm_spanish.wav,,,,,,,,,0,1,1,1,0,197,197,110,968.983373205,8.65967012942E-06,969.761304575,0.777940671309,,,,,z,1,0.767093372182,2018_Nov_13_1539,60.0026750081,spanish_cond1,1,1005
images\cauliflower01.jpg,glue stick,x,sounds\animalfarm_spanish.wav,,,,,,,,,0,1,1,1,0,198,198,181,970.876172858,9.62184276432E-06,971.71183023,0.83566667384,,,,,x,1,0.817110707518,2018_Nov_13_1539,60.0026750081,spanish_cond1,1,1005
images\electrictoothbrush01a.jpg,banjo,x,sounds\animalfarm_spanish.wav,,,,,,,,,0,1,1,1,0,199,199,127,972.80509885,9.30111855268E-06,973.829107812,1.02401858428,,,,,x,1,1.00053497229,2018_Nov_13_1539,60.0026750081,spanish_cond1,1,1005
images\icecube02 (2).jpg,aloe,x,sounds\animalfarm_spanish.wav,,,,,,,,,0,1,1,1,0,200,200,122,974.938032066,8.65967012942E-06,975.912960535,0.974937770981,,,,,x,1,0.950481715496,2018_Nov_13_1539,60.0026750081,spanish_cond1,1,1005
images\battery03b.jpg,battery,z,sounds\animalfarm_spanish.wav,,,,,,,,,0,1,1,1,0,201,201,34,977.020254856,9.621726349E-06,978.080210551,1.059965958,,,,,z,1,1.0505064436,2018_Nov_13_1539,60.0026750081,spanish_cond1,1,1005
images\dolphin01.jpg,dolphin,z,sounds\animalfarm_spanish.wav,,,,,,,,,0,1,1,1,0,202,202,99,979.179055004,9.30100213736E-06,979.997395057,0.818349674926,,,,,z,1,0.800441255909,2018_Nov_13_1539,60.0026750081,spanish_cond1,1,1005
images\donut.jpg,rhinoceros,x,sounds\animalfarm_spanish.wav,,,,,,,,,0,1,1,1,0,203,203,216,981.121465952,9.30111855268E-06,981.914582771,0.793127403245,,,,,x,1,0.783772766357,2018_Nov_13_1539,60.0026750081,spanish_cond1,1,1005
images\ceilingfan02.jpg,paper clip,x,sounds\animalfarm_spanish.wav,,,,,,,,,0,1,1,1,0,204,204,208,983.011366556,9.94256697595E-06,984.415242987,1.40388669504,,,,,x,1,1.38392722839,2018_Nov_13_1539,60.0026750081,spanish_cond1,1,1005
images\lighter02b.jpg,stapler,x,sounds\animalfarm_spanish.wav,,,,,,,,,0,1,1,1,0,205,205,227,985.516508928,9.30111855268E-06,986.415784374,0.899285068037,,,,,x,1,0.883781778743,2018_Nov_13_1539,60.0026750081,spanish_cond1,1,1005
images\stapler03a.jpg,candy cane,x,sounds\animalfarm_spanish.wav,,,,,,,,,0,1,1,1,0,206,206,145,987.52556561,9.62184276432E-06,988.266287546,0.740731558413,,,,,x,1,0.71708726231,2018_Nov_13_1539,60.0026750081,spanish_cond1,1,1005
images\tissuebox03.jpg,tissue box,z,sounds\animalfarm_spanish.wav,,,,,,,,,0,1,1,1,0,207,207,58,989.390248432,9.621726349E-06,990.233476238,0.843238069909,,,,,z,1,0.833788177348,2018_Nov_13_1539,60.0026750081,spanish_cond1,1,1005
images\peach01.jpg,peach,z,sounds\animalfarm_spanish.wav,,,,,,,,,0,1,1,1,0,208,208,106,991.360787115,8.98027792573E-06,992.384054878,1.02327674325,,,,,z,1,1.00049231562,2018_Nov_13_1539,60.0026750081,spanish_cond1,1,1005
images\graduationcap.jpg,graduation cap,z,sounds\animalfarm_spanish.wav,,,,,,,,,0,1,1,1,0,209,209,35,993.484857047,9.30111855268E-06,994.467959559,0.983112133457,,,,,z,1,0.967163034016,2018_Nov_13_1539,60.0026750081,spanish_cond1,1,1005
images\lock02a.jpg,lock,z,sounds\animalfarm_spanish.wav,,,,,,,,,0,1,1,1,0,210,210,65,995.576872908,8.98027792573E-06,996.385176459,0.808313493733,,,,,z,1,0.783812857233,2018_Nov_13_1539,60.0026750081,spanish_cond1,1,1005
images\triangleruler02.jpg,bottle of red wine,x,sounds\animalfarm_spanish.wav,,,,,,,,,0,1,1,1,0,211,211,134,997.494301488,9.94245056063E-06,998.185472426,0.691181521979,,,,,x,1,0.666904432117,2018_Nov_13_1539,60.0026750081,spanish_cond1,1,1005
images\cat.jpg,black olive,x,sounds\animalfarm_spanish.wav,,,,,,,,,0,1,1,1,0,212,212,133,999.31487893,9.30111855268E-06,1000.15282854,0.837959870114,,,,,x,1,0.81713347917,2018_Nov_13_1539,60.0026750081,spanish_cond1,1,1005
images\mattress.jpg,cat,x,sounds\animalfarm_spanish.wav,,,,,,,,,0,1,1,1,0,213,213,147,1001.2554534,9.621726349E-06,1002.50346722,1.2480237619,,,,,x,1,1.233916917,2018_Nov_13_1539,60.0026750081,spanish_cond1,1,1005
images\banana04a.jpg,banana,z,sounds\animalfarm_spanish.wav,,,,,,,,,0,1,1,1,0,214,214,118,1003.60908157,9.30100213736E-06,1004.22076327,0.611691644299,,,,,z,1,0.600571086048,2018_Nov_13_1539,60.0026750081,spanish_cond1,1,1005
images\tulip02.jpg,sport shorts,x,sounds\animalfarm_spanish.wav,,,,,,,,,0,1,1,1,0,215,215,225,1005.31384555,9.30111855268E-06,1006.25444664,0.940610387945,,,,,x,1,0.917136397678,2018_Nov_13_1539,60.0026750081,spanish_cond1,1,1005
images\beachumbrella01.jpg,beach umbrella,z,sounds\animalfarm_spanish.wav,,,,,,,,,0,1,1,1,0,216,216,92,1007.35846602,9.30111855268E-06,1008.10478528,0.746329523041,,,,,z,1,0.733591539785,2018_Nov_13_1539,60.0026750081,spanish_cond1,1,1005
