images,name,corrAns,sounds,trials_3.thisRepN,trials_3.thisTrialN,trials_3.thisN,trials_3.thisIndex,trials_4.thisRepN,trials_4.thisTrialN,trials_4.thisN,trials_4.thisIndex,trials_2.thisRepN,trials_2.thisTrialN,trials_2.thisN,trials_2.thisIndex,trials.thisRepN,trials.thisTrialN,trials.thisN,trials.thisIndex,begin_global,begin_routine,end_global,end_routine,key_resp_2.keys,key_resp_2.corr,key_resp_2.rt,begin_book,key_resp_1.keys,key_resp_1.corr,key_resp_1.rt,date,frameRate,expName,session,participant,
images/volleyball.jpg,volley ball,z,,0,0,0,0,,,,,,,,,,,,,,,,,,,,,,,,2018_Nov_13_1539,59.9898221289,spanish_cond2,001,1008,
images/puma.jpg,puma,z,,,,,,0,0,0,0,,,,,,,,,48.2415190217,9.62149351835e-06,49.7633953356,1.5218865769,z,1,1.50061497616,,,,,2018_Nov_13_1539,59.9898221289,spanish_cond2,001,1008,
images/kiwi03.jpg,backpack,x,sounds/animalfarm_english.wav,,,,,,,,,0,0,0,1,0,0,0,125,92.0598497695,9.62149351835e-06,93.2905391168,1.23069961031,,,,81.7596955363,x,1,1.2172259395,2018_Nov_13_1539,59.9898221289,spanish_cond2,001,1008,
images/honeycomb.jpg,honey comb,z,sounds/animalfarm_english.wav,,,,,,,,,0,0,0,1,0,1,1,59,94.4944049196,8.98016151041e-06,95.2910003089,0.796604690142,,,,,z,1,0.783769247471,2018_Nov_13_1539,59.9898221289,spanish_cond2,001,1008,
images/bracelet02a.jpg,chess knight,x,sounds/animalfarm_english.wav,,,,,,,,,0,0,0,1,0,2,2,152,96.4712433296,8.65943729877e-06,97.4415095926,0.970276526059,,,,,x,1,0.950470925891,2018_Nov_13_1539,59.9898221289,spanish_cond2,001,1008,
images/dolphin01.jpg,dolphin,z,sounds/animalfarm_english.wav,,,,,,,,,0,0,0,1,0,3,3,99,98.6209973231,9.30088572204e-06,99.2753034231,0.654316042317,,,,,z,1,0.633744568331,2018_Nov_13_1539,59.9898221289,spanish_cond2,001,1008,
images/apricot.jpg,apricot,z,sounds/animalfarm_english.wav,,,,,,,,,0,0,0,1,0,4,4,32,100.479781797,8.98004509509e-06,101.375835269,0.896063735592,,,,,z,1,0.883836052963,2018_Nov_13_1539,59.9898221289,spanish_cond2,001,1008,
images/medal01.jpg,medal,z,sounds/animalfarm_english.wav,,,,,,,,,0,0,0,1,0,5,5,115,102.54616651,9.30076930672e-06,103.476303293,0.930147045874,,,,,z,1,0.917123341933,2018_Nov_13_1539,59.9898221289,spanish_cond2,001,1008,
images/banana04a.jpg,banana,z,sounds/animalfarm_english.wav,,,,,,,,,0,0,0,1,0,6,6,118,104.646086426,9.30076930672e-06,105.276735428,0.630659264047,,,,,z,1,0.617064041318,2018_Nov_13_1539,59.9898221289,spanish_cond2,001,1008,
images/icecube02 (2).jpg,aloe,x,sounds/animalfarm_english.wav,,,,,,,,,0,0,0,1,0,7,7,122,106.457700704,8.98016151041e-06,107.377244182,0.919553740649,,,,,x,1,0.900465585873,2018_Nov_13_1539,59.9898221289,spanish_cond2,001,1008,
images/bus.jpg,microphone,x,sounds/animalfarm_english.wav,,,,,,,,,0,0,0,1,0,8,8,203,108.580279326,9.62149351835e-06,109.744473954,1.16420457035,,,,,x,1,1.15051409439,2018_Nov_13_1539,59.9898221289,spanish_cond2,001,1008,
images/lychee02a.jpg,lychee,z,sounds/animalfarm_english.wav,,,,,,,,,0,0,0,1,0,9,9,62,110.888925843,8.98016151041e-06,111.828321745,0.939405203448,,,,,z,1,0.917147716507,2018_Nov_13_1539,59.9898221289,spanish_cond2,001,1008,
images/straw.jpg,straw,z,sounds/animalfarm_english.wav,,,,,,,,,0,0,0,1,0,10,10,109,113.031438351,8.98016151041e-06,113.812109787,0.780681056902,,,,,z,1,0.767093531205,2018_Nov_13_1539,59.9898221289,spanish_cond2,001,1008,
images/cauliflower01.jpg,glue stick,x,sounds/animalfarm_english.wav,,,,,,,,,0,0,0,1,0,11,11,181,114.968201162,8.98016151041e-06,115.812604013,0.844412793173,,,,,x,1,0.833782605361,2018_Nov_13_1539,59.9898221289,spanish_cond2,001,1008,
images/cupcake.jpg,scissors,x,sounds/animalfarm_english.wav,,,,,,,,,0,0,0,1,0,12,12,219,117.00642173,9.30088572204e-06,118.079832727,1.07342093845,,,,,x,1,1.05051752611,2018_Nov_13_1539,59.9898221289,spanish_cond2,001,1008,
images/broadsword.jpg,teapot,x,sounds/animalfarm_english.wav,,,,,,,,,0,0,0,1,0,13,13,231,119.194837279,8.98004509509e-06,120.130301824,0.935474166647,,,,,x,1,0.917118531186,2018_Nov_13_1539,59.9898221289,spanish_cond2,001,1008,
images/umbrella01.jpg,umbrella,z,sounds/animalfarm_english.wav,,,,,,,,,0,0,0,1,0,14,14,53,121.369263122,9.30076930672e-06,122.380850652,1.01159715164,,,,,z,1,1.00048749079,2018_Nov_13_1539,59.9898221289,spanish_cond2,001,1008,
images/showerhead01.jpg,skateboard,x,sounds/animalfarm_english.wav,,,,,,,,,0,0,0,1,0,15,15,223,123.558722286,8.98016151041e-06,124.531361219,0.97264887474,,,,,x,1,0.950471246499,2018_Nov_13_1539,59.9898221289,spanish_cond2,001,1008,
images/gorilla.jpg,gorilla,z,sounds/animalfarm_english.wav,,,,,,,,,0,0,0,1,0,16,16,80,125.731604515,9.30076930672e-06,126.865253349,1.13365909702,,,,,z,1,1.11717484926,2018_Nov_13_1539,59.9898221289,spanish_cond2,001,1008,
images/triangleruler02.jpg,bottle of red wine,x,sounds/animalfarm_english.wav,,,,,,,,,0,0,0,1,0,17,17,134,128.054142277,9.30076930672e-06,128.89907752,0.844945184537,,,,,x,1,0.833775549661,2018_Nov_13_1539,59.9898221289,spanish_cond2,001,1008,
images/bottleofredwine02.jpg,pipe,x,sounds/animalfarm_english.wav,,,,,,,,,0,0,0,1,0,18,18,213,130.073321837,9.94221772999e-06,131.533058136,1.45974688313,,,,,x,1,1.45059969404,2018_Nov_13_1539,59.9898221289,spanish_cond2,001,1008,
images/mushroom01.jpg,shower head,x,sounds/animalfarm_english.wav,,,,,,,,,0,0,0,1,0,19,19,222,132.729852114,8.98016151041e-06,133.666888496,0.937046645558,,,,,x,1,0.917125907727,2018_Nov_13_1539,59.9898221289,spanish_cond2,001,1008,
images/mirror02.jpg,8 ball,x,sounds/animalfarm_english.wav,,,,,,,,,0,0,0,1,0,20,20,121,134.793452677,8.65932088345e-06,136.100818568,1.30737551255,,,,,x,1,1.28389512911,2018_Nov_13_1539,59.9898221289,spanish_cond2,001,1008,
images/cola.jpg,comb,x,sounds/animalfarm_english.wav,,,,,,,,,0,0,0,1,0,21,21,157,137.308901167,9.30088572204e-06,138.284696923,0.975806019735,,,,,x,1,0.967167809489,2018_Nov_13_1539,59.9898221289,spanish_cond2,001,1008,
images/cloud.jpg,ceiling fan,x,sounds/animalfarm_english.wav,,,,,,,,,0,0,0,1,0,22,22,149,139.462413009,9.30076930672e-06,140.351997927,0.889594859793,,,,,x,1,0.867268097936,2018_Nov_13_1539,59.9898221289,spanish_cond2,001,1008,
images/key03b.jpg,cigar,x,sounds/animalfarm_english.wav,,,,,,,,,0,0,0,1,0,23,23,153,141.516510066,8.98004509509e-06,142.252299305,0.735798540525,,,,,x,1,0.717039121431,2018_Nov_13_1539,59.9898221289,spanish_cond2,001,1008,
images/banjo.jpg,knife,x,sounds/animalfarm_english.wav,,,,,,,,,0,0,0,1,0,24,24,191,143.412521524,9.30076930672e-06,144.136080195,0.723568612826,,,,,x,1,0.700406060671,2018_Nov_13_1539,59.9898221289,spanish_cond2,001,1008,
images/headphones02b.jpg,headphones,z,sounds/animalfarm_english.wav,,,,,,,,,0,0,0,1,0,25,25,101,145.338059215,9.30076930672e-06,146.169903082,0.83185348846,,,,,z,1,0.817109454772,2018_Nov_13_1539,59.9898221289,spanish_cond2,001,1008,
images/computerkeyboard01a.jpg,computer keyboard,z,sounds/animalfarm_english.wav,,,,,,,,,0,0,0,1,0,26,26,61,147.35950689,8.98004509509e-06,148.58714974,1.22765279235,,,,,z,1,1.21720765857,2018_Nov_13_1539,59.9898221289,spanish_cond2,001,1008,
images/shotglass.jpg,shot glass,z,sounds/animalfarm_english.wav,,,,,,,,,0,0,0,1,0,27,27,86,149.728127615,9.94221772999e-06,150.504292967,0.776175293955,,,,,z,1,0.767105718493,2018_Nov_13_1539,59.9898221289,spanish_cond2,001,1008,
images/handfan01b.jpg,handfan,z,sounds/animalfarm_english.wav,,,,,,,,,0,0,0,1,0,28,28,69,151.70314082,8.98004509509e-06,152.538097253,0.834966053604,,,,,z,1,0.817107530544,2018_Nov_13_1539,59.9898221289,spanish_cond2,001,1008,
images/desktopcomputer.jpg,desktop computer,z,sounds/animalfarm_english.wav,,,,,,,,,0,0,0,1,0,29,29,16,153.710282241,9.30076930672e-06,154.438556424,0.728284445824,,,,,z,1,0.717079852708,2018_Nov_13_1539,59.9898221289,spanish_cond2,001,1008,
images/mailbox01.jpg,mail box,z,sounds/animalfarm_english.wav,,,,,,,,,0,0,0,1,0,30,30,73,155.632196143,9.62149351835e-06,156.472386047,0.84019984561,,,,,z,1,0.817104964866,2018_Nov_13_1539,59.9898221289,spanish_cond2,001,1008,
images/diaper01a.jpg,camera,x,sounds/animalfarm_english.wav,,,,,,,,,0,0,0,1,0,31,31,143,157.656704427,8.98004509509e-06,158.456194935,0.799500450143,,,,,x,1,0.783766360953,2018_Nov_13_1539,59.9898221289,spanish_cond2,001,1008,
images/dryingmachine01.jpg,drying machine,z,sounds/animalfarm_english.wav,,,,,,,,,0,0,0,1,0,32,32,18,159.646040243,9.30076930672e-06,160.490011408,0.843980786391,,,,,z,1,0.833776832442,2018_Nov_13_1539,59.9898221289,spanish_cond2,001,1008,
images/cockroach02.jpg,belt,x,sounds/animalfarm_english.wav,,,,,,,,,0,0,0,1,0,33,33,129,161.659034441,9.30076930672e-06,162.507163711,0.848139212001,,,,,x,1,0.833765286603,2018_Nov_13_1539,59.9898221289,spanish_cond2,001,1008,
images/remotecontrol01c.jpg,remote control,z,sounds/animalfarm_english.wav,,,,,,,,,0,0,0,1,0,34,34,85,163.691827825,9.62149351835e-06,164.424301806,0.732483923202,,,,,z,1,0.717095567845,2018_Nov_13_1539,59.9898221289,spanish_cond2,001,1008,
images/weight01.jpg,weight,z,sounds/animalfarm_english.wav,,,,,,,,,0,0,0,1,0,35,35,67,165.603528472,2.53366306424e-05,166.358093167,0.754590993514,,,,,z,1,0.733738570823,2018_Nov_13_1539,59.9898221289,spanish_cond2,001,1008,
images/belt02a.jpg,snowman,x,sounds/animalfarm_english.wav,,,,,,,,,0,0,0,1,0,36,36,224,167.531136075,8.65943729877e-06,168.525278487,0.994152033702,,,,,x,1,0.983812416089,2018_Nov_13_1539,59.9898221289,spanish_cond2,001,1008,
images/battery03b.jpg,battery,z,sounds/animalfarm_english.wav,,,,,,,,,0,0,0,1,0,37,37,34,169.74635785,9.30076930672e-06,170.409083431,0.662735523074,,,,,z,1,0.65041868086,2018_Nov_13_1539,59.9898221289,spanish_cond2,001,1008,
images/8ball.jpg,nail clipper,x,sounds/animalfarm_english.wav,,,,,,,,,0,0,0,1,0,38,38,206,171.598573384,9.30076930672e-06,172.443069563,0.844506121939,,,,,x,1,0.833955151378,2018_Nov_13_1539,59.9898221289,spanish_cond2,001,1008,
images/binder03b.jpg,dj mixer,x,sounds/animalfarm_english.wav,,,,,,,,,0,0,0,1,0,39,39,167,173.625723419,8.98004509509e-06,174.31000187,0.684288393124,,,,,x,1,0.667058155988,2018_Nov_13_1539,59.9898221289,spanish_cond2,001,1008,
images/notebook02b.jpg,notebook,z,sounds/animalfarm_english.wav,,,,,,,,,0,0,0,1,0,40,40,7,175.513011677,8.98004509509e-06,176.310490644,0.797488908749,,,,,z,1,0.783775020391,2018_Nov_13_1539,59.9898221289,spanish_cond2,001,1008,
images/tank.jpg,wallet,x,sounds/animalfarm_english.wav,,,,,,,,,0,0,0,1,0,41,41,237,177.48889082,1.02629419416e-05,178.727743395,1.23886283766,,,,,x,1,1.21721535583,2018_Nov_13_1539,59.9898221289,spanish_cond2,001,1008,
images/lollipop03b.jpg,lollipop,z,sounds/animalfarm_english.wav,,,,,,,,,0,0,0,1,0,42,42,42,179.850656205,9.62149351835e-06,180.594863321,0.744217379834,,,,,z,1,0.733771604719,2018_Nov_13_1539,59.9898221289,spanish_cond2,001,1008,
images/razor04a.jpg,razor,z,sounds/animalfarm_english.wav,,,,,,,,,0,0,0,1,0,43,43,36,181.773789796,9.62149351835e-06,182.578671247,0.804891393753,,,,,z,1,0.783777906909,2018_Nov_13_1539,59.9898221289,spanish_cond2,001,1008,
images/basketball01.jpg,basket ball,z,sounds/animalfarm_english.wav,,,,,,,,,0,0,0,1,0,44,44,33,183.783228197,9.30076930672e-06,184.545793515,0.762574939639,,,,,z,1,0.750413966365,2018_Nov_13_1539,59.9898221289,spanish_cond2,001,1008,
images/nailclipper03a.jpg,aquarium,x,sounds/animalfarm_english.wav,,,,,,,,,0,0,0,1,0,45,45,123,185.716867858,8.98016151041e-06,186.696308571,0.979450014071,,,,,x,1,0.967131247628,2018_Nov_13_1539,59.9898221289,spanish_cond2,001,1008,
images/printer03a.jpg,printer,z,sounds/animalfarm_english.wav,,,,,,,,,0,0,0,1,0,46,46,72,187.928648011,8.98004509509e-06,189.063550531,1.13491214102,,,,,z,1,1.11717773566,2018_Nov_13_1539,59.9898221289,spanish_cond2,001,1008,
images/apple06.jpg,apple,z,sounds/animalfarm_english.wav,,,,,,,,,0,0,0,1,0,47,47,13,190.235403256,9.62149351835e-06,190.99735889,0.761965576094,,,,,z,1,0.750434492365,2018_Nov_13_1539,59.9898221289,spanish_cond2,001,1008,
images/toucan.jpg,toucan,z,sounds/animalfarm_english.wav,,,,,,,,,0,0,0,1,0,48,48,81,192.177480038,8.98004509509e-06,193.564639528,1.38716911152,,,,,z,1,1.36724612874,2018_Nov_13_1539,59.9898221289,spanish_cond2,001,1008,
images/scissors04a.jpg,leek,x,sounds/animalfarm_english.wav,,,,,,,,,0,0,0,1,0,49,49,194,194.74040982,8.98004509509e-06,195.498455584,0.75805634819,,,,,x,1,0.733778019086,2018_Nov_13_1539,59.9898221289,spanish_cond2,001,1008,
images/ladder.jpg,ladder,z,sounds/animalfarm_english.wav,,,,,,,,,0,0,0,1,0,50,50,113,196.655322775,9.62149351835e-06,197.632282096,0.97696990415,,,,,z,1,0.967149849283,2018_Nov_13_1539,59.9898221289,spanish_cond2,001,1008,
images/cactus.jpg,cactus,z,sounds/animalfarm_english.wav,,,,,,,,,0,0,0,1,0,51,51,70,198.850356013,9.30076930672e-06,199.916166641,1.06582024996,,,,,z,1,1.05050533882,2018_Nov_13_1539,59.9898221289,spanish_cond2,001,1008,
images/lion.jpg,lion,z,sounds/animalfarm_english.wav,,,,,,,,,0,0,0,1,0,52,52,44,201.05807588,9.30076930672e-06,201.816629982,0.758564685704,,,,,z,1,0.750440586009,2018_Nov_13_1539,59.9898221289,spanish_cond2,001,1008,
images/hammer02a.jpg,flower,x,sounds/animalfarm_english.wav,,,,,,,,,0,0,0,1,0,53,53,176,202.985073157,9.30076930672e-06,203.800696406,0.815633191378,,,,,x,1,0.800706027891,2018_Nov_13_1539,59.9898221289,spanish_cond2,001,1008,
images/knife04.jpg,tooth brush,x,sounds/animalfarm_english.wav,,,,,,,,,0,0,0,1,0,54,54,233,204.968144395,9.62160993367e-06,205.650885325,0.682751193293,,,,,x,1,0.66708156839,2018_Nov_13_1539,59.9898221289,spanish_cond2,001,1008,
images/candle08a.jpg,screw driver,x,sounds/animalfarm_english.wav,,,,,,,,,0,0,0,1,0,55,55,221,207.038572075,9.30076930672e-06,208.884986788,1.84642465529,,,,,x,1,1.83400967345,2018_Nov_13_1539,59.9898221289,spanish_cond2,001,1008,
images/cat.jpg,black olive,x,sounds/animalfarm_english.wav,,,,,,,,,0,0,0,1,0,56,56,133,210.08548281,1.05836661533e-05,211.08551841,1.00004554191,,,,,x,1,0.983817226836,2018_Nov_13_1539,59.9898221289,spanish_cond2,001,1008,
images/pingpongpaddle01c (1).jpg,ping pong paddle,z,sounds/animalfarm_english.wav,,,,,,,,,0,0,0,1,0,57,57,10,212.27746506,9.30076930672e-06,213.269402538,0.991947099566,,,,,z,1,0.983840318513,2018_Nov_13_1539,59.9898221289,spanish_cond2,001,1008,
images/blackolive.jpg,tank,x,sounds/animalfarm_english.wav,,,,,,,,,0,0,0,1,0,58,58,229,214.452376791,8.65943729877e-06,215.803313463,1.35094629356,,,,,x,1,1.33385524794,2018_Nov_13_1539,59.9898221289,spanish_cond2,001,1008,
images/ruler02b.jpg,watermelon,x,sounds/animalfarm_english.wav,,,,,,,,,0,0,0,1,0,59,59,238,216.938978328,8.98016151041e-06,217.937171725,0.998203339521,,,,,x,1,0.983825244824,2018_Nov_13_1539,59.9898221289,spanish_cond2,001,1008,
images/birthdaycandle.jpg,birthday candle,z,sounds/animalfarm_english.wav,,,,,,,,,0,0,0,1,0,60,60,55,219.107525095,8.98016151041e-06,220.087669463,0.980153668672,,,,,z,1,0.967133813421,2018_Nov_13_1539,59.9898221289,spanish_cond2,001,1008,
images/parkfountain.jpg,park fountain,z,sounds/animalfarm_english.wav,,,,,,,,,0,0,0,1,0,61,61,93,221.317554451,9.30076930672e-06,222.654959723,1.337415535,,,,,z,1,1.31721609342,2018_Nov_13_1539,59.9898221289,spanish_cond2,001,1008,
images/barrel01.jpg,barrel,z,sounds/animalfarm_english.wav,,,,,,,,,0,0,0,1,0,62,62,9,223.816567763,9.62149351835e-06,224.472072385,0.655515205697,,,,,z,1,0.633731098147,2018_Nov_13_1539,59.9898221289,spanish_cond2,001,1008,
images/electricguitar02.jpg,electric guitar,z,sounds/animalfarm_english.wav,,,,,,,,,0,0,0,1,0,63,63,100,225.65119129,9.30076930672e-06,226.405872405,0.754691057489,,,,,z,1,0.733747871593,2018_Nov_13_1539,59.9898221289,spanish_cond2,001,1008,
images/lipstick04.jpg,lipstick,z,sounds/animalfarm_english.wav,,,,,,,,,0,0,0,1,0,64,64,56,227.50891515,9.30088572204e-06,228.356339482,0.847433953895,,,,,z,1,0.83378100174,2018_Nov_13_1539,59.9898221289,spanish_cond2,001,1008,
images/rhinoceros01.jpg,envelope,x,sounds/animalfarm_english.wav,,,,,,,,,0,0,0,1,0,65,65,173,229.55069344,9.62149351835e-06,230.290134692,0.739451194298,,,,,x,1,0.717081456212,2018_Nov_13_1539,59.9898221289,spanish_cond2,001,1008,
images/hand01a.jpg,cupcake,x,sounds/animalfarm_english.wav,,,,,,,,,0,0,0,1,0,66,66,163,231.503680717,9.30076930672e-06,232.373977352,0.870306577184,,,,,x,1,0.850455435109,2018_Nov_13_1539,59.9898221289,spanish_cond2,001,1008,
images/lightbulb03b.jpg,treadmill,x,sounds/animalfarm_english.wav,,,,,,,,,0,0,0,1,0,67,67,234,233.539509373,8.98004509509e-06,234.474486427,0.93498667574,,,,,x,1,0.917138415622,2018_Nov_13_1539,59.9898221289,spanish_cond2,001,1008,
images/floorlamp.jpg,floor lamp,z,sounds/animalfarm_english.wav,,,,,,,,,0,0,0,1,0,68,68,26,235.640319602,8.98004509509e-06,236.575003841,0.934694501921,,,,,z,1,0.917142264196,2018_Nov_13_1539,59.9898221289,spanish_cond2,001,1008,
images/bowlingball.jpg,bowling ball,z,sounds/animalfarm_english.wav,,,,,,,,,0,0,0,1,0,69,69,20,237.82743015,9.30076930672e-06,238.642147372,0.814727163874,,,,,z,1,0.800431172829,2018_Nov_13_1539,59.9898221289,spanish_cond2,001,1008,
images/electrictoothbrush01a.jpg,banjo,x,sounds/animalfarm_english.wav,,,,,,,,,0,0,0,1,0,70,70,127,239.811280732,8.98016151041e-06,240.67598854,0.864718071534,,,,,x,1,0.850461208029,2018_Nov_13_1539,59.9898221289,spanish_cond2,001,1008,
images/pouch01b.jpg,pouch,z,sounds/animalfarm_english.wav,,,,,,,,,0,0,0,1,0,71,71,25,241.870151991,8.65932088345e-06,242.709790902,0.839648211142,,,,,z,1,0.817098229774,2018_Nov_13_1539,59.9898221289,spanish_cond2,001,1008,
images/graduationcap.jpg,graduation cap,z,sounds/animalfarm_english.wav,,,,,,,,,0,0,0,1,0,72,72,35,243.890153229,8.98004509509e-06,244.610249111,0.720105182496,,,,,z,1,0.700414720108,2018_Nov_13_1539,59.9898221289,spanish_cond2,001,1008,
images/globe.jpg,cloud,x,sounds/animalfarm_english.wav,,,,,,,,,0,0,0,1,0,73,73,154,245.809452962,9.30076930672e-06,246.694098506,0.884655807284,,,,,x,1,0.867126982077,2018_Nov_13_1539,59.9898221289,spanish_cond2,001,1008,
images/calculator02b.jpg,dice,x,sounds/animalfarm_english.wav,,,,,,,,,0,0,0,1,0,74,74,165,247.876945433,8.65943729877e-06,248.711232848,0.834297036519,,,,,x,1,0.817101757624,2018_Nov_13_1539,59.9898221289,spanish_cond2,001,1008,
images/magnifyingglass01b.jpg,magnifying glass,z,sounds/animalfarm_english.wav,,,,,,,,,0,0,0,1,0,75,75,64,249.900583289,9.30076930672e-06,250.611692661,0.711118993582,,,,,z,1,0.700418568682,2018_Nov_13_1539,59.9898221289,spanish_cond2,001,1008,
images/pictureframe04.jpg,picture frame,z,sounds/animalfarm_english.wav,,,,,,,,,0,0,0,1,0,76,76,41,251.804132896,9.62149351835e-06,252.54549653,0.741373896832,,,,,z,1,0.717078569694,2018_Nov_13_1539,59.9898221289,spanish_cond2,001,1008,
images/sock03.jpg,sock,z,sounds/animalfarm_english.wav,,,,,,,,,0,0,0,1,0,77,77,90,253.738599368,9.30088572204e-06,254.812700549,1.07411112287,,,,,z,1,1.05049924518,2018_Nov_13_1539,59.9898221289,spanish_cond2,001,1008,
images/atm.jpg,atm,z,sounds/animalfarm_english.wav,,,,,,,,,0,0,0,1,0,78,78,96,256.013825498,8.98016151041e-06,257.563378145,1.54956258915,,,,,z,1,1.53395935288,2018_Nov_13_1539,59.9898221289,spanish_cond2,001,1008,
images/lily.jpg,kiwi,x,sounds/animalfarm_english.wav,,,,,,,,,0,0,0,1,0,79,79,190,258.742990955,9.62149351835e-06,259.963954218,1.22097288433,,,,,x,1,1.20053258375,2018_Nov_13_1539,59.9898221289,spanish_cond2,001,1008,
images/coffeepot03b.jpg,coffee pot,z,sounds/animalfarm_english.wav,,,,,,,,,0,0,0,1,0,80,80,107,261.18769201,9.30076930672e-06,262.364354217,1.17667247052,,,,,z,1,1.16700058733,2018_Nov_13_1539,59.9898221289,spanish_cond2,001,1008,
images/bullet (2).jpg,rubber glove,x,sounds/animalfarm_english.wav,,,,,,,,,0,0,0,1,0,81,81,217,263.502537358,9.30076930672e-06,264.298306899,0.795779162785,,,,,x,1,0.783758984529,2018_Nov_13_1539,59.9898221289,spanish_cond2,001,1008,
images/screw03c.jpg,screw,z,sounds/animalfarm_english.wav,,,,,,,,,0,0,0,1,0,82,82,84,265.463690107,9.62149351835e-06,266.932282064,1.4686015778,,,,,z,1,1.45058686519,2018_Nov_13_1539,59.9898221289,spanish_cond2,001,1008,
images/antelope.jpg,antelope,z,sounds/animalfarm_english.wav,,,,,,,,,0,0,0,1,0,83,83,12,268.104162691,8.98004509509e-06,269.14948876,1.0453360111,,,,,z,1,1.03382096323,2018_Nov_13_1539,59.9898221289,spanish_cond2,001,1008,
images/camera01a.jpg,bull,x,sounds/animalfarm_english.wav,,,,,,,,,0,0,0,1,0,84,84,138,270.347564967,9.30088572204e-06,271.149965988,0.8024106425,,,,,x,1,0.783751607989,2018_Nov_13_1539,59.9898221289,spanish_cond2,001,1008,
images/treadmill.jpg,lily,x,sounds/animalfarm_english.wav,,,,,,,,,0,0,0,1,0,85,85,199,272.322149052,8.98016151041e-06,273.317152912,0.995013481355,,,,,x,1,0.983798945905,2018_Nov_13_1539,59.9898221289,spanish_cond2,001,1008,
images/raisin.jpg,ruler,x,sounds/animalfarm_english.wav,,,,,,,,,0,0,0,1,0,86,86,218,274.424569284,1.02629419416e-05,275.31763463,0.893075608881,,,,,x,1,0.883687239955,2018_Nov_13_1539,59.9898221289,spanish_cond2,001,1008,
images/plant01.jpg,plant,z,sounds/animalfarm_english.wav,,,,,,,,,0,0,0,1,0,87,87,47,276.51446517,8.98004509509e-06,277.184759367,0.670304781175,,,,,z,1,0.650411304436,2018_Nov_13_1539,59.9898221289,spanish_cond2,001,1008,
images/teapot.jpg,light switch,x,sounds/animalfarm_english.wav,,,,,,,,,0,0,0,1,0,88,88,197,278.36503895,9.30076930672e-06,279.7687061,1.40367677168,,,,,z,0,1.38390196045,2018_Nov_13_1539,59.9898221289,spanish_cond2,001,1008,
images/flashlight05.jpg,flash light,z,sounds/animalfarm_english.wav,,,,,,,,,0,0,0,1,0,89,89,8,280.949604347,9.30076930672e-06,282.019083665,1.06948926032,,,,,z,1,1.05033343413,2018_Nov_13_1539,59.9898221289,spanish_cond2,001,1008,
images/elbow.jpg,elbow,z,sounds/animalfarm_english.wav,,,,,,,,,0,0,0,1,0,90,90,105,283.167198791,8.98004509509e-06,284.086411608,0.919222759898,,,,,z,1,0.900422289036,2018_Nov_13_1539,59.9898221289,spanish_cond2,001,1008,
images/acousticguitar02.jpg,acoustic guitar,z,sounds/animalfarm_english.wav,,,,,,,,,0,0,0,1,0,91,91,97,285.262304414,9.94221772999e-06,286.236926665,0.974632513593,,,,,x,0,0.950465473579,2018_Nov_13_1539,59.9898221289,spanish_cond2,001,1008,
images/tie01.jpg,bench,x,sounds/animalfarm_english.wav,,,,,,,,,0,0,0,1,0,92,92,130,287.422211047,9.62149351835e-06,289.020929395,1.59872829018,,,,,x,1,1.58395571273,2018_Nov_13_1539,59.9898221289,spanish_cond2,001,1008,
images/diploma01.jpg,glasses,x,sounds/animalfarm_english.wav,,,,,,,,,0,0,0,1,0,93,93,179,290.241541151,8.98004509509e-06,291.321491902,1.07996037207,,,,,x,1,1.06715347338,2018_Nov_13_1539,59.9898221289,spanish_cond2,001,1008,
images/panda.jpg,panda,z,sounds/animalfarm_english.wav,,,,,,,,,0,0,0,1,0,94,94,83,292.514240667,9.62149351835e-06,293.321972337,0.807741932571,,,,,z,1,0.783772775321,2018_Nov_13_1539,59.9898221289,spanish_cond2,001,1008,
images/blueberry02.jpg,blueberry,z,sounds/animalfarm_english.wav,,,,,,,,,0,0,0,1,0,95,95,46,294.511521943,9.30076930672e-06,295.439144941,0.92763326061,,,,,z,1,0.917132642819,2018_Nov_13_1539,59.9898221289,spanish_cond2,001,1008,
images/ant.jpg,ant,z,sounds/animalfarm_english.wav,,,,,,,,,0,0,0,1,0,96,96,98,296.536470252,9.30076930672e-06,297.42294966,0.886489350349,,,,,z,1,0.867120888433,2018_Nov_13_1539,59.9898221289,spanish_cond2,001,1008,
images/plate01b.jpg,plate,z,sounds/animalfarm_english.wav,,,,,,,,,0,0,0,1,0,97,97,3,298.595858829,9.30076930672e-06,300.957171681,2.36132311437,,,,,z,1,2.35084141896,2018_Nov_13_1539,59.9898221289,spanish_cond2,001,1008,
images/tape01a.jpg,tie,x,sounds/animalfarm_english.wav,,,,,,,,,0,0,0,1,0,98,98,232,302.156475595,8.98004509509e-06,303.174344381,1.01787872834,,,,,x,1,1.00046022993,2018_Nov_13_1539,59.9898221289,spanish_cond2,001,1008,
images/doorhandle.jpg,doll,x,sounds/animalfarm_english.wav,,,,,,,,,0,0,0,1,0,99,99,168,304.339678198,8.65932088345e-06,305.658273378,1.31860544253,,,,,x,1,1.30055513023,2018_Nov_13_1539,59.9898221289,spanish_cond2,001,1008,
images/eraser.jpg,eraser,z,sounds/animalfarm_english.wav,,,,,,,,,0,0,0,1,0,100,100,110,306.836216853,9.30088572204e-06,308.042185922,1.20597933233,,,,,z,1,1.18387097912,2018_Nov_13_1539,59.9898221289,spanish_cond2,001,1008,
images/ostrich.jpg,ostrich,z,sounds/animalfarm_english.wav,,,,,,,,,0,0,0,1,0,101,101,76,309.176807172,9.30088572204e-06,310.476099316,1.29930240696,,,,,z,1,1.28389128053,2018_Nov_13_1539,59.9898221289,spanish_cond2,001,1008,
images/ladybug03.jpg,giraffe,x,sounds/animalfarm_english.wav,,,,,,,,,0,0,0,1,0,102,102,178,311.680614251,9.62149351835e-06,312.69330505,1.01270074118,,,,,x,1,1.00049326383,2018_Nov_13_1539,59.9898221289,spanish_cond2,001,1008,
images/beachumbrella01.jpg,beach umbrella,z,sounds/animalfarm_english.wav,,,,,,,,,0,0,0,1,0,103,103,92,313.869064758,9.62149351835e-06,315.043861993,1.17480749718,,,,,z,1,1.15050896292,2018_Nov_13_1539,59.9898221289,spanish_cond2,001,1008,
images/paperclip04.jpg,eye drops,x,sounds/animalfarm_english.wav,,,,,,,,,0,0,0,1,0,104,104,174,316.177989658,9.30076930672e-06,317.31108782,1.13310842472,,,,,x,1,1.11719633732,2018_Nov_13_1539,59.9898221289,spanish_cond2,001,1008,
images/redfox.jpg,red fox,z,sounds/animalfarm_english.wav,,,,,,,,,0,0,0,1,0,105,105,1,318.464224744,9.30088572204e-06,319.778335007,1.31411988498,,,,,z,1,1.3005599411,2018_Nov_13_1539,59.9898221289,spanish_cond2,001,1008,
images/lock02a.jpg,lock,z,sounds/animalfarm_english.wav,,,,,,,,,0,0,0,1,0,106,106,65,320.923412616,8.98004509509e-06,323.295871369,2.37246869551,,,,,z,1,2.35083821171,2018_Nov_13_1539,59.9898221289,spanish_cond2,001,1008,
images/toothbrush03a.jpg,parrot,x,sounds/animalfarm_english.wav,,,,,,,,,0,0,0,1,0,107,107,210,324.480296869,8.98004509509e-06,325.363011693,0.88272444543,,,,,x,1,0.867121209158,2018_Nov_13_1539,59.9898221289,spanish_cond2,001,1008,
images/masquerademask02b.jpg,mirror,x,sounds/animalfarm_english.wav,,,,,,,,,0,0,0,1,0,108,108,204,326.543703718,9.62149351835e-06,327.630226295,1.08653283969,,,,,x,1,1.06717464072,2018_Nov_13_1539,59.9898221289,spanish_cond2,001,1008,
images/dresser02.jpg,dresser,z,sounds/animalfarm_english.wav,,,,,,,,,0,0,0,1,0,109,109,87,328.82019091,9.62149351835e-06,330.247521895,1.42734092637,,,,,z,1,1.4172604488,2018_Nov_13_1539,59.9898221289,spanish_cond2,001,1008,
images/grasshopper.jpg,cauliflower,x,sounds/animalfarm_english.wav,,,,,,,,,0,0,0,1,0,110,110,148,331.437491321,8.65932088345e-06,332.481404949,1.04392357031,,,,,x,1,1.03384629986,2018_Nov_13_1539,59.9898221289,spanish_cond2,001,1008,
images/skateboard.jpg,key,x,sounds/animalfarm_english.wav,,,,,,,,,0,0,0,1,0,111,111,189,333.597497055,9.62149351835e-06,334.698587912,1.10110112,,,,,x,1,1.08383945259,2018_Nov_13_1539,59.9898221289,spanish_cond2,001,1008,
images/cocktailshrimp01.jpg,cocktail shrimp,z,sounds/animalfarm_english.wav,,,,,,,,,0,0,0,1,0,112,112,30,335.850369804,9.94221772999e-06,336.932462628,1.08210340771,,,,,z,1,1.06717271649,2018_Nov_13_1539,59.9898221289,spanish_cond2,001,1008,
images/parkbench03.jpg,park bench,z,sounds/animalfarm_english.wav,,,,,,,,,0,0,0,1,0,113,113,71,338.075738444,9.30088572204e-06,338.882924253,0.80719542969,,,,,z,1,0.783761229599,2018_Nov_13_1539,59.9898221289,spanish_cond2,001,1008,
images/flipflop01b.jpg,flip flop,z,sounds/animalfarm_english.wav,,,,,,,,,0,0,0,1,0,114,114,27,340.064173044,9.30076930672e-06,340.866736989,0.802573567024,,,,,z,1,0.783741986379,2018_Nov_13_1539,59.9898221289,spanish_cond2,001,1008,
images/50dollarbill.jpg,cherry,x,sounds/animalfarm_english.wav,,,,,,,,,0,0,0,1,0,115,115,151,342.062796844,9.30088572204e-06,342.883880633,0.821093410021,,,,,x,1,0.800430531381,2018_Nov_13_1539,59.9898221289,spanish_cond2,001,1008,
images/table02.jpg,table,z,sounds/animalfarm_english.wav,,,,,,,,,0,0,0,1,0,116,116,49,344.080119127,9.30076930672e-06,345.134443572,1.0543343873,,,,,z,1,1.03383475402,2018_Nov_13_1539,59.9898221289,spanish_cond2,001,1008,
images/wallet01.jpg,lamp,x,sounds/animalfarm_english.wav,,,,,,,,,0,0,0,1,0,117,117,193,346.278438118,9.62149351835e-06,347.018216765,0.739788589301,,,,,x,1,0.717084022006,2018_Nov_13_1539,59.9898221289,spanish_cond2,001,1008,
images/seagull.jpg,seagull,z,sounds/animalfarm_english.wav,,,,,,,,,0,0,0,1,0,118,118,50,348.195862614,9.30076930672e-06,350.118975038,1.92312300764,,,,,z,1,1.90071350068,2018_Nov_13_1539,59.9898221289,spanish_cond2,001,1008,
images/glasses01b.jpg,calculator,x,sounds/animalfarm_english.wav,,,,,,,,,0,0,0,1,0,119,119,142,351.284504813,8.98016151041e-06,352.386179377,1.10168418486,,,,,x,1,1.08384201827,2018_Nov_13_1539,59.9898221289,spanish_cond2,001,1008,
images/charcoalbarbecue.jpg,charcoal barbecue,z,sounds/animalfarm_english.wav,,,,,,,,,0,0,0,1,0,120,120,77,353.539005525,9.62149351835e-06,354.520035715,0.981040453073,,,,,z,1,0.967157546547,2018_Nov_13_1539,59.9898221289,spanish_cond2,001,1008,
images/gps.jpg,gps,z,sounds/animalfarm_english.wav,,,,,,,,,0,0,0,1,0,121,121,21,355.704786744,9.30076930672e-06,356.720551942,1.01577546168,,,,,z,1,1.00048300088,2018_Nov_13_1539,59.9898221289,spanish_cond2,001,1008,
images/puzzle.jpg,puzzle,z,sounds/animalfarm_english.wav,,,,,,,,,0,0,0,1,0,122,122,57,357.912007895,9.30076930672e-06,358.871079186,0.959081233595,,,,,z,1,0.950457455707,2018_Nov_13_1539,59.9898221289,spanish_cond2,001,1008,
images/fireextinguisher02.jpg,fire extinguisher,z,sounds/animalfarm_english.wav,,,,,,,,,0,0,0,1,0,123,123,175,360.052253571,9.30076930672e-06,360.838205302,0.785962315043,,,,,z,1,0.767083588988,2018_Nov_13_1539,59.9898221289,spanish_cond2,001,1008,
images/corn01.jpg,corn,z,sounds/animalfarm_english.wav,,,,,,,,,0,0,0,1,0,124,124,22,361.938740356,9.30076930672e-06,362.838684455,0.899954041117,,,,,z,1,0.883786662482,2018_Nov_13_1539,59.9898221289,spanish_cond2,001,1008,
images/gamecontroller01.jpg,game controller,z,sounds/animalfarm_english.wav,,,,,,,,,0,0,0,1,0,125,125,112,364.037227306,9.30076930672e-06,364.989223244,0.952005880652,,,,,z,1,0.933812848991,2018_Nov_13_1539,59.9898221289,spanish_cond2,001,1008,
images/cake.jpg,cake,z,sounds/animalfarm_english.wav,,,,,,,,,0,0,0,1,0,126,126,23,366.177512751,8.98004509509e-06,366.939689359,0.762186229811,,,,,z,1,0.750429040054,2018_Nov_13_1539,59.9898221289,spanish_cond2,001,1008,
images/tissuebox03.jpg,tissue box,z,sounds/animalfarm_english.wav,,,,,,,,,0,0,0,1,0,127,127,58,368.128008372,8.65943729877e-06,369.023511493,0.895512421848,,,,,z,1,0.883771588677,2018_Nov_13_1539,59.9898221289,spanish_cond2,001,1008,
images/saltshaker03c.jpg,salt shaker,z,sounds/animalfarm_english.wav,,,,,,,,,0,0,0,1,0,128,128,63,370.221367367,9.30076930672e-06,371.874199769,1.65284202376,,,,,z,1,1.63397805078,2018_Nov_13_1539,59.9898221289,spanish_cond2,001,1008,
images/lemon02.jpg,lemon,z,sounds/animalfarm_english.wav,,,,,,,,,0,0,0,1,0,129,129,14,373.067722106,9.62149351835e-06,374.541503916,1.47379175224,,,,,z,1,1.45059167594,2018_Nov_13_1539,59.9898221289,spanish_cond2,001,1008,
images/ceilingfan02.jpg,paper clip,x,sounds/animalfarm_english.wav,,,,,,,,,0,0,0,1,0,130,130,208,375.70930758,9.62160993367e-06,376.625344651,0.916047013365,,,,,x,1,0.900472000241,2018_Nov_13_1539,59.9898221289,spanish_cond2,001,1008,
images/fork01.jpg,cooking pot,x,sounds/animalfarm_english.wav,,,,,,,,,0,0,0,1,0,131,131,160,377.783450775,8.98004509509e-06,378.809199274,1.02575844119,,,,,x,1,1.01716577297,2018_Nov_13_1539,59.9898221289,spanish_cond2,001,1008,
images/parrot01.jpg,chameleon,x,sounds/animalfarm_english.wav,,,,,,,,,0,0,0,1,0,132,132,150,380.018845371,8.65943729877e-06,381.626554719,1.60771896923,,,,,x,1,1.5839621271,2018_Nov_13_1539,59.9898221289,spanish_cond2,001,1008,
images/daisy.jpg,daisy,z,sounds/animalfarm_english.wav,,,,,,,,,0,0,0,1,0,133,133,6,382.758738515,9.62149351835e-06,384.193826698,1.43509844586,,,,,z,1,1.41725211008,2018_Nov_13_1539,59.9898221289,spanish_cond2,001,1008,
images/bed.jpg,bed,z,sounds/animalfarm_english.wav,,,,,,,,,0,0,0,1,0,134,134,103,385.374235209,8.98004509509e-06,386.210979,0.836753413314,,,,,z,1,0.817049159901,2018_Nov_13_1539,59.9898221289,spanish_cond2,001,1008,
images/watermelon01.jpg,orange,x,sounds/animalfarm_english.wav,,,,,,,,,0,0,0,1,0,135,135,207,387.41135347,9.30076930672e-06,388.11143304,0.700089512276,,,,,x,1,0.683731948026,2018_Nov_13_1539,59.9898221289,spanish_cond2,001,1008,
images/scooter.jpg,pen,x,sounds/animalfarm_english.wav,,,,,,,,,0,0,0,1,0,136,136,212,389.272869176,9.30076930672e-06,390.34531866,1.07245974755,,,,,x,1,1.05047358782,2018_Nov_13_1539,59.9898221289,spanish_cond2,001,1008,
images/eyedrops.jpg,bicycle,x,sounds/animalfarm_english.wav,,,,,,,,,0,0,0,1,0,137,137,131,391.507205725,8.98004509509e-06,392.479165377,0.971969915438,,,,,x,1,0.95048599958,2018_Nov_13_1539,59.9898221289,spanish_cond2,001,1008,
images/cheetah.jpg,cheetah,z,sounds/animalfarm_english.wav,,,,,,,,,0,0,0,1,0,138,138,82,393.61032897,8.98016151041e-06,394.929744866,1.31942583842,,,,,z,1,1.30056090315,2018_Nov_13_1539,59.9898221289,spanish_cond2,001,1008,
images/envelope02a.jpg,grand piano,x,sounds/animalfarm_english.wav,,,,,,,,,0,0,0,1,0,139,139,182,396.127795415,9.30088572204e-06,397.130271035,1.00248588284,,,,,x,1,0.983807284618,2018_Nov_13_1539,59.9898221289,spanish_cond2,001,1008,
images/licenseplate.jpg,license plate,z,sounds/animalfarm_english.wav,,,,,,,,,0,0,0,1,0,140,140,40,398.34614098,9.30076930672e-06,399.330797846,0.984666487318,,,,,z,1,0.967130926903,2018_Nov_13_1539,59.9898221289,spanish_cond2,001,1008,
images/corkscrew02a.jpg,masquerade mask,x,sounds/animalfarm_english.wav,,,,,,,,,0,0,0,1,0,141,141,201,400.520852583,9.62149351835e-06,401.598009241,1.07716627966,,,,,x,1,1.06716694345,2018_Nov_13_1539,59.9898221289,spanish_cond2,001,1008,
images/hanger02a.jpg,hanger,z,sounds/animalfarm_english.wav,,,,,,,,,0,0,0,1,0,142,142,88,402.731813623,8.98004509509e-06,403.648517146,0.916712823207,,,,,z,1,0.900469755172,2018_Nov_13_1539,59.9898221289,spanish_cond2,001,1008,
images/feather03b.jpg,feather,z,sounds/animalfarm_english.wav,,,,,,,,,0,0,0,1,0,143,143,114,404.819601431,9.30076930672e-06,406.932631646,2.11304015666,,,,,z,1,2.10075891425,2018_Nov_13_1539,59.9898221289,spanish_cond2,001,1008,
images/hairband.jpg,hairband,z,sounds/animalfarm_english.wav,,,,,,,,,0,0,0,1,0,144,144,66,408.114076396,9.30076930672e-06,410.016711316,1.90264518326,,,,,z,1,1.88403746369,2018_Nov_13_1539,59.9898221289,spanish_cond2,001,1008,
images/tulip02.jpg,sport shorts,x,sounds/animalfarm_english.wav,,,,,,,,,0,0,0,1,0,145,145,225,411.190078149,9.30076930672e-06,412.033861374,0.843793808017,,,,,x,1,0.833785171155,2018_Nov_13_1539,59.9898221289,spanish_cond2,001,1008,
images/flower01.jpg,bus,x,sounds/animalfarm_english.wav,,,,,,,,,0,0,0,1,0,146,146,140,413.224003346,9.30076930672e-06,415.834778113,2.61078503029,,,,,x,1,2.60085625213,2018_Nov_13_1539,59.9898221289,spanish_cond2,001,1008,
images/chameleon.jpg,50 dollar bill,x,sounds/animalfarm_english.wav,,,,,,,,,0,0,0,1,0,147,147,120,417.015183096,8.98004509509e-06,418.068655715,1.05348256114,,,,,x,1,1.03383122617,2018_Nov_13_1539,59.9898221289,spanish_cond2,001,1008,
images/candycane01a.jpg,lip,x,sounds/animalfarm_english.wav,,,,,,,,,0,0,0,1,0,148,148,200,419.223444656,8.98016151041e-06,420.168978133,0.94554341922,,,,,x,1,0.933610796928,2018_Nov_13_1539,59.9898221289,spanish_cond2,001,1008,
images/backpack01b.jpg,swallow,x,sounds/animalfarm_english.wav,,,,,,,,,0,0,0,1,0,149,149,228,421.374150539,9.62149351835e-06,423.636648025,2.26250710792,,,,,x,1,2.25075889821,2018_Nov_13_1539,59.9898221289,spanish_cond2,001,1008,
images/screwdriver02b.jpg,cola,x,sounds/animalfarm_english.wav,,,,,,,,,0,0,0,1,0,150,150,158,424.809785546,8.98016151041e-06,425.553774575,0.743998971186,,,,,x,1,0.733749475214,2018_Nov_13_1539,59.9898221289,spanish_cond2,001,1008,
images/swallow.jpg,mattress,x,sounds/animalfarm_english.wav,,,,,,,,,0,0,0,1,0,151,151,202,426.724198823,6.76714116707e-05,427.404217502,0.680069993483,,,,,x,1,0.667069060495,2018_Nov_13_1539,59.9898221289,spanish_cond2,001,1008,
images/handbag02a.jpg,candle,x,sounds/animalfarm_english.wav,,,,,,,,,0,0,0,1,0,152,152,144,428.583104528,9.62149351835e-06,429.488063369,0.90496878291,,,,,x,1,0.883780889562,2018_Nov_13_1539,59.9898221289,spanish_cond2,001,1008,
images/squirrel.jpg,binder,x,sounds/animalfarm_english.wav,,,,,,,,,0,0,0,1,0,153,153,132,430.659572605,1.12251145765e-05,431.488543483,0.828982102918,,,,,x,1,0.817103040521,2018_Nov_13_1539,59.9898221289,spanish_cond2,001,1008,
images/ashtray02b.jpg,ashtray,z,sounds/animalfarm_english.wav,,,,,,,,,0,0,0,1,0,154,154,43,432.683022521,8.98004509509e-06,433.639050522,0.956037302036,,,,,z,1,0.933795530349,2018_Nov_13_1539,59.9898221289,spanish_cond2,001,1008,
images/pepper05a.jpg,lighter,x,sounds/animalfarm_english.wav,,,,,,,,,0,0,0,1,0,155,155,198,434.844153333,9.30076930672e-06,436.239684196,1.3955408053,,,,,x,1,1.38391190267,2018_Nov_13_1539,59.9898221289,spanish_cond2,001,1008,
images/dreamcatcher.jpg,dream catcher,z,sounds/animalfarm_english.wav,,,,,,,,,0,0,0,1,0,156,156,48,437.408020251,9.30076930672e-06,438.390210798,0.982200488914,,,,,z,1,0.967127078213,2018_Nov_13_1539,59.9898221289,spanish_cond2,001,1008,
images/gluestick.jpg,squirrel,x,sounds/animalfarm_english.wav,,,,,,,,,0,0,0,1,0,157,157,226,439.597448627,9.30088572204e-06,440.52405527,0.926617547753,,,,,x,1,0.917125907727,2018_Nov_13_1539,59.9898221289,spanish_cond2,001,1008,
images/bowl02b (1).jpg,bowl,z,sounds/animalfarm_english.wav,,,,,,,,,0,0,0,1,0,158,158,24,441.711744714,8.98016151041e-06,443.274717151,1.56298205873,,,,,z,1,1.55061582604,2018_Nov_13_1539,59.9898221289,spanish_cond2,001,1008,
images/carrot02.jpg,corkscrew,x,sounds/animalfarm_english.wav,,,,,,,,,0,0,0,1,0,159,159,161,444.515420908,8.65932088345e-06,445.641957507,1.12654622004,,,,,x,1,1.11718415003,2018_Nov_13_1539,59.9898221289,spanish_cond2,001,1008,
images/marker01a.jpg,marker,z,sounds/animalfarm_english.wav,,,,,,,,,0,0,0,1,0,160,160,95,446.811890416,8.98004509509e-06,447.792450434,0.980569318752,,,,,z,1,0.967128040502,2018_Nov_13_1539,59.9898221289,spanish_cond2,001,1008,
images/highlighter03b.jpg,coin,x,sounds/animalfarm_english.wav,,,,,,,,,0,0,0,1,0,161,161,156,448.994787696,9.62149351835e-06,450.043012091,1.04823465762,,,,,x,1,1.03383122617,2018_Nov_13_1539,59.9898221289,spanish_cond2,001,1008,
images/highheelshoe02a.jpg,high heel shoe,z,sounds/animalfarm_english.wav,,,,,,,,,0,0,0,1,0,162,162,75,451.204647392,9.30076930672e-06,452.393573523,1.18893671501,,,,,z,1,1.16718884849,2018_Nov_13_1539,59.9898221289,spanish_cond2,001,1008,
images/nametag01a.jpg,name tag,z,sounds/animalfarm_english.wav,,,,,,,,,0,0,0,1,0,163,163,108,453.546463815,8.98004509509e-06,454.510750297,0.964296423947,,,,,z,1,0.950475095189,2018_Nov_13_1539,59.9898221289,spanish_cond2,001,1008,
images/bicycle.jpg,hand bag,x,sounds/animalfarm_english.wav,,,,,,,,,0,0,0,1,0,164,164,186,455.723261365,8.65932088345e-06,456.794623296,1.07137123169,,,,,x,1,1.05048064352,2018_Nov_13_1539,59.9898221289,spanish_cond2,001,1008,
images/grandpiano.jpg,tulip,x,sounds/animalfarm_english.wav,,,,,,,,,0,0,0,1,0,165,165,236,457.984775852,9.62149351835e-06,458.978477919,0.993712008931,,,,,x,1,0.983798945905,2018_Nov_13_1539,59.9898221289,spanish_cond2,001,1008,
images/aloe02.jpg,broad sword,x,sounds/animalfarm_english.wav,,,,,,,,,0,0,0,1,0,166,166,137,460.194041899,9.62149351835e-06,461.712508022,1.51847574417,,,,,x,1,1.50053511746,2018_Nov_13_1539,59.9898221289,spanish_cond2,001,1008,
images/rubberglove02a.jpg,lady bug,x,sounds/animalfarm_english.wav,,,,,,,,,0,0,0,1,0,167,167,192,462.907038374,9.62149351835e-06,463.76296846,0.855940028327,,,,,x,1,0.833771380247,2018_Nov_13_1539,59.9898221289,spanish_cond2,001,1008,
images/volleyball.jpg,volley ball,z,sounds/animalfarm_english.wav,,,,,,,,,0,0,0,1,0,168,168,2,464.895117939,9.30076930672e-06,465.880147479,0.985040123342,,,,,z,1,0.967141510686,2018_Nov_13_1539,59.9898221289,spanish_cond2,001,1008,
images/broom02.jpg,broom,z,sounds/animalfarm_english.wav,,,,,,,,,0,0,0,1,0,169,169,116,467.048120482,9.30076930672e-06,467.830606538,0.782495998195,,,,,z,1,0.767074608826,2018_Nov_13_1539,59.9898221289,spanish_cond2,001,1008,
images/lantern03.jpg,lantern,z,sounds/animalfarm_english.wav,,,,,,,,,0,0,0,1,0,170,170,5,469.016680848,9.30088572204e-06,469.847767179,0.83109627408,,,,,z,1,0.817102398956,2018_Nov_13_1539,59.9898221289,spanish_cond2,001,1008,
images/worldmap.jpg,scooter,x,sounds/animalfarm_english.wav,,,,,,,,,0,0,0,1,0,171,171,220,471.043708369,9.30076930672e-06,472.215006573,1.17130910861,,,,,x,1,1.15051505656,2018_Nov_13_1539,59.9898221289,spanish_cond2,001,1008,
images/bowtie.jpg,bowtie,z,sounds/animalfarm_english.wav,,,,,,,,,0,0,0,1,0,172,172,89,473.361225296,9.62149351835e-06,474.415529856,1.05431418202,,,,,z,1,1.03378921212,2018_Nov_13_1539,59.9898221289,spanish_cond2,001,1008,
images/boxingglove02a.jpg,bracelet,x,sounds/animalfarm_english.wav,,,,,,,,,0,0,0,1,0,173,173,135,475.602158366,8.98016151041e-06,477.132865962,1.53071721783,,,,,x,1,1.51724643342,2018_Nov_13_1539,59.9898221289,spanish_cond2,001,1008,
images/mitten01.jpg,mitten,z,sounds/animalfarm_english.wav,,,,,,,,,0,0,0,1,0,174,174,102,478.317768369,8.98016151041e-06,479.28337268,0.965614252957,,,,,z,1,0.95046354935,2018_Nov_13_1539,59.9898221289,spanish_cond2,001,1008,
images/lettuce.jpg,mushroom,x,sounds/animalfarm_english.wav,,,,,,,,,0,0,0,1,0,175,175,205,480.532203744,9.30076930672e-06,481.767301998,1.23510819569,,,,,x,1,1.21719162271,2018_Nov_13_1539,59.9898221289,spanish_cond2,001,1008,
images/sportshorts02.jpg,tape,x,sounds/animalfarm_english.wav,,,,,,,,,0,0,0,1,0,176,176,230,482.914871583,9.62149351835e-06,484.017842808,1.10298116715,,,,,x,1,1.08383432101,2018_Nov_13_1539,59.9898221289,spanish_cond2,001,1008,
images/croissant02b.jpg,croissant,z,sounds/animalfarm_english.wav,,,,,,,,,0,0,0,1,0,177,177,39,485.169980055,9.62149351835e-06,485.984978225,0.815008433303,,,,,z,1,0.800425720634,2018_Nov_13_1539,59.9898221289,spanish_cond2,001,1008,
images/hairpin.jpg,hair pin,z,sounds/animalfarm_english.wav,,,,,,,,,0,0,0,1,0,178,178,28,487.143372353,9.62149351835e-06,488.802322445,1.65895971376,,,,,z,1,1.65061431867,2018_Nov_13_1539,59.9898221289,spanish_cond2,001,1008,
images/leek.jpg,donut,x,sounds/animalfarm_english.wav,,,,,,,,,0,0,0,1,0,179,179,169,489.991546844,9.30076930672e-06,491.369602762,1.37806586071,,,,,x,1,1.36722047126,2018_Nov_13_1539,59.9898221289,spanish_cond2,001,1008,
images/candy.jpg,candy,z,sounds/animalfarm_english.wav,,,,,,,,,0,0,0,1,0,180,180,31,492.572591081,9.30076930672e-06,494.470378354,1.89779689396,,,,,z,1,1.88404451939,2018_Nov_13_1539,59.9898221289,spanish_cond2,001,1008,
images/lightswitch02a.jpg,fork,x,sounds/animalfarm_english.wav,,,,,,,,,0,0,0,1,0,181,181,177,495.666216272,9.62149351835e-06,496.520851942,0.854645611718,,,,,x,1,0.833776190993,2018_Nov_13_1539,59.9898221289,spanish_cond2,001,1008,
images/paintbrush03a.jpg,paint brush,z,sounds/animalfarm_english.wav,,,,,,,,,0,0,0,1,0,182,182,0,497.694571885,9.62149351835e-06,498.704708489,1.01014654548,,,,,z,1,1.00048235944,2018_Nov_13_1539,59.9898221289,spanish_cond2,001,1008,
images/sunglasses03a.jpg,sun glasses,z,sounds/animalfarm_english.wav,,,,,,,,,0,0,0,1,0,183,183,17,499.887500573,8.98016151041e-06,500.93859026,1.05109930795,,,,,z,1,1.03382609459,2018_Nov_13_1539,59.9898221289,spanish_cond2,001,1008,
images/giraffe.jpg,lettuce,x,sounds/animalfarm_english.wav,,,,,,,,,0,0,0,1,0,184,184,195,502.098187079,8.98004509509e-06,504.239382721,2.14120590489,,,,,x,1,2.11742789543,2018_Nov_13_1539,59.9898221289,spanish_cond2,001,1008,
images/orange.jpg,bat,x,sounds/animalfarm_english.wav,,,,,,,,,0,0,0,1,0,185,185,128,505.432431678,9.30076930672e-06,506.773318341,1.3408966047,,,,,x,1,1.31722154573,2018_Nov_13_1539,59.9898221289,spanish_cond2,001,1008,
images/swan.jpg,swan,z,sounds/animalfarm_english.wav,,,,,,,,,0,0,0,1,0,186,186,54,507.899436403,8.98004509509e-06,509.657349711,1.75792325032,,,,,x,0,1.73398905131,2018_Nov_13_1539,59.9898221289,spanish_cond2,001,1008,
images/parkingmeter.jpg,ear,x,sounds/animalfarm_english.wav,,,,,,,,,0,0,0,1,0,187,187,171,510.834005504,8.98016151041e-06,512.758085854,1.92408997158,,,,,x,1,1.90069297468,2018_Nov_13_1539,59.9898221289,spanish_cond2,001,1008,
images/microphone01.jpg,diaper,x,sounds/animalfarm_english.wav,,,,,,,,,0,0,0,1,0,188,188,164,513.933278213,9.30088572204e-06,515.392051397,1.45878312655,,,,,x,1,1.45058365806,2018_Nov_13_1539,59.9898221289,spanish_cond2,001,1008,
images/radish01.jpg,raisin,x,sounds/animalfarm_english.wav,,,,,,,,,0,0,0,1,0,189,189,214,516.580182469,8.98016151041e-06,518.126047825,1.54587497725,,,,,x,1,1.53394010977,2018_Nov_13_1539,59.9898221289,spanish_cond2,001,1008,
images/chessknight02b (1).jpg,cockroach,x,sounds/animalfarm_english.wav,,,,,,,,,0,0,0,1,0,190,190,155,519.310767102,8.98016151041e-06,520.409760466,1.09900266421,,,,,x,1,1.08365407772,2018_Nov_13_1539,59.9898221289,spanish_cond2,001,1008,
images/dice05a.jpg,band aid,x,sounds/animalfarm_english.wav,,,,,,,,,0,0,0,1,0,191,191,126,521.560787388,9.30076930672e-06,522.677224907,1.11646253511,,,,,x,1,1.10051837598,2018_Nov_13_1539,59.9898221289,spanish_cond2,001,1008,
images/bench02.jpg,electric toothbrush,x,sounds/animalfarm_english.wav,,,,,,,,,0,0,0,1,0,192,192,172,523.788526774,9.30088572204e-06,524.627622068,0.83910587756,,,,,x,1,0.817113944911,2018_Nov_13_1539,59.9898221289,spanish_cond2,001,1008,
images/tent.jpg,tent,z,sounds/animalfarm_english.wav,,,,,,,,,0,0,0,1,0,193,193,11,525.828105582,9.30076930672e-06,526.728127294,0.900031334138,,,,,z,1,0.883794039022,2018_Nov_13_1539,59.9898221289,spanish_cond2,001,1008,
images/bull.jpg,button,x,sounds/animalfarm_english.wav,,,,,,,,,0,0,0,1,0,194,194,141,527.901316129,8.65932088345e-06,528.911973899,1.010667391,,,,,x,1,1.00048941525,2018_Nov_13_1539,59.9898221289,spanish_cond2,001,1008,
images/hat05.jpg,hat,z,sounds/animalfarm_english.wav,,,,,,,,,0,0,0,1,0,195,195,15,530.081910015,8.65943729877e-06,531.04594313,0.964043057058,,,,,z,1,0.950597930001,2018_Nov_13_1539,59.9898221289,spanish_cond2,001,1008,
images/pen03c.jpg,pepper,x,sounds/animalfarm_english.wav,,,,,,,,,0,0,0,1,0,196,196,211,532.212621396,8.98004509509e-06,533.429723218,1.21711144329,,,,,x,1,1.20053258387,2018_Nov_13_1539,59.9898221289,spanish_cond2,001,1008,
images/coin01b.jpg,arrow,x,sounds/animalfarm_english.wav,,,,,,,,,0,0,0,1,0,197,197,124,534.568405716,9.62149351835e-06,535.880313931,1.31191847869,,,,,x,1,1.30056571402,2018_Nov_13_1539,59.9898221289,spanish_cond2,001,1008,
images/aquarium.jpg,computer mouse,x,sounds/animalfarm_english.wav,,,,,,,,,0,0,0,1,0,198,198,159,537.058138099,9.62149351835e-06,538.297578229,1.23945039255,,,,,x,1,1.21722209093,2018_Nov_13_1539,59.9898221289,spanish_cond2,001,1008,
images/djmixer01.jpg,light bulb,x,sounds/animalfarm_english.wav,,,,,,,,,0,0,0,1,0,199,199,196,539.484882811,9.94221772999e-06,540.698137945,1.21326603822,,,,,x,1,1.20053354593,2018_Nov_13_1539,59.9898221289,spanish_cond2,001,1008,
images/flamingo.jpg,flamingo,z,sounds/animalfarm_english.wav,,,,,,,,,0,0,0,1,0,200,200,52,541.832265611,8.98016151041e-06,542.831984983,0.999729635078,,,,,z,1,0.983814981766,2018_Nov_13_1539,59.9898221289,spanish_cond2,001,1008,
images/cookingpot.jpg,grasshopper,x,sounds/animalfarm_english.wav,,,,,,,,,0,0,0,1,0,201,201,183,544.025026563,9.62160993367e-06,544.849144662,0.824128682259,,,,,x,1,0.800429569324,2018_Nov_13_1539,59.9898221289,spanish_cond2,001,1008,
images/axe01.jpg,axe,z,sounds/animalfarm_english.wav,,,,,,,,,0,0,0,1,0,202,202,104,546.024261973,9.62149351835e-06,546.899641983,0.87539059401,,,,,z,1,0.86712217133,2018_Nov_13_1539,59.9898221289,spanish_cond2,001,1008,
images/pipe.jpg,icecube,x,sounds/animalfarm_english.wav,,,,,,,,,0,0,0,1,0,203,203,188,548.066308062,9.62149351835e-06,549.450247546,1.38394974731,,,,,x,1,1.36722945131,2018_Nov_13_1539,59.9898221289,spanish_cond2,001,1008,
images/thumbtack02a.jpg,thumb tack,z,sounds/animalfarm_english.wav,,,,,,,,,0,0,0,1,0,204,204,60,550.641876686,9.30076930672e-06,551.71745862,1.07559187652,,,,,z,1,1.06715700123,2018_Nov_13_1539,59.9898221289,spanish_cond2,001,1008,
images/donut.jpg,rhinoceros,x,sounds/animalfarm_english.wav,,,,,,,,,0,0,0,1,0,205,205,216,552.868402797,9.30088572204e-06,553.701270716,0.832877860754,,,,,x,1,0.817092777463,2018_Nov_13_1539,59.9898221289,spanish_cond2,001,1008,
images/egg01b (1).jpg,egg,z,sounds/animalfarm_english.wav,,,,,,,,,0,0,0,1,0,206,206,19,554.895813576,9.62149351835e-06,556.651999178,1.75619586487,,,,,z,1,1.73400316294,2018_Nov_13_1539,59.9898221289,spanish_cond2,001,1008,
images/dragonfly02.jpg,dragon fly,z,sounds/animalfarm_english.wav,,,,,,,,,0,0,0,1,0,207,207,29,557.828720397,9.30076930672e-06,558.919198706,1.09048857167,,,,,z,1,1.06716501922,2018_Nov_13_1539,59.9898221289,spanish_cond2,001,1008,
images/pineapple01a.jpg,pineapple,z,sounds/animalfarm_english.wav,,,,,,,,,0,0,0,1,0,208,208,51,560.110464794,9.62149351835e-06,561.019699122,0.909244911862,,,,,z,1,0.900456605712,2018_Nov_13_1539,59.9898221289,spanish_cond2,001,1008,
,,,sounds/animalfarm_english.wav,,,,,,,,,0,0,0,1,,,,,,,,,,,,,,,,2018_Nov_13_1539,59.9898221289,spanish_cond2,001,1008,
images/mirror02.jpg,8 ball,x,sounds/greatgatsby_spanish.wav,,,,,,,,,0,1,1,0,0,0,0,121,582.146737964,9.94233414531e-06,583.45843611,1.31170872936,,,,572.022532021,x,1,1.3005698832,2018_Nov_13_1539,59.9898221289,spanish_cond2,001,1008,
images/computermouse02a.jpg,world map,x,sounds/greatgatsby_spanish.wav,,,,,,,,,0,1,1,0,0,1,1,239,584.637504021,8.98004509509e-06,585.625633297,0.988138897694,,,,,x,1,0.967160112225,2018_Nov_13_1539,59.9898221289,spanish_cond2,001,1008,
images/nametag01a.jpg,name tag,z,sounds/greatgatsby_spanish.wav,,,,,,,,,0,1,1,0,0,2,2,108,586.744559265,9.30076930672e-06,587.576094281,0.831544637331,,,,,z,1,0.817123245797,2018_Nov_13_1539,59.9898221289,spanish_cond2,001,1008,
images/rubberglove02a.jpg,lady bug,x,sounds/greatgatsby_spanish.wav,,,,,,,,,0,1,1,0,0,3,3,192,588.678439144,9.30076930672e-06,589.593247866,0.914818343823,,,,,x,1,0.900469113723,2018_Nov_13_1539,59.9898221289,spanish_cond2,001,1008,
images/toucan.jpg,toucan,z,sounds/greatgatsby_spanish.wav,,,,,,,,,0,1,1,0,0,4,4,81,590.692109736,9.62149351835e-06,591.410438142,0.718349894625,,,,,z,1,0.700424982933,2018_Nov_13_1539,59.9898221289,spanish_cond2,001,1008,
images/crocodile.jpg,triangle ruler,x,sounds/greatgatsby_spanish.wav,,,,,,,,,0,1,1,0,0,5,5,235,592.580120571,9.30088572204e-06,593.960958074,1.38084808667,,,,,x,1,1.36722624418,2018_Nov_13_1539,59.9898221289,spanish_cond2,001,1008,
images/icecube02 (2).jpg,aloe,x,sounds/greatgatsby_spanish.wav,,,,,,,,,0,1,1,0,0,6,6,122,595.071707023,9.30076930672e-06,596.078128753,1.00643295539,,,,,x,1,0.983815623214,2018_Nov_13_1539,59.9898221289,spanish_cond2,001,1008,
images/bowl02b (1).jpg,bowl,z,sounds/greatgatsby_spanish.wav,,,,,,,,,0,1,1,0,0,7,7,24,597.194996997,9.30076930672e-06,598.462054126,1.26706803415,,,,,z,1,1.25056935416,2018_Nov_13_1539,59.9898221289,spanish_cond2,001,1008,
images/mitten01.jpg,mitten,z,sounds/greatgatsby_spanish.wav,,,,,,,,,0,1,1,0,0,8,8,102,599.582229931,9.30076930672e-06,601.062664388,1.48044375784,,,,,z,1,1.46727380657,2018_Nov_13_1539,59.9898221289,spanish_cond2,001,1008,
images/eyedrops.jpg,bicycle,x,sounds/greatgatsby_spanish.wav,,,,,,,,,0,1,1,0,0,9,9,131,602.162869743,9.30088572204e-06,602.896450842,0.733591361437,,,,,x,1,0.717102302937,2018_Nov_13_1539,59.9898221289,spanish_cond2,001,1008,
images/safe.jpg,safe,z,sounds/greatgatsby_spanish.wav,,,,,,,,,0,1,1,0,0,10,10,78,604.091060091,1.02629419416e-05,605.580435515,1.48938632908,,,,,z,1,1.46728374879,2018_Nov_13_1539,59.9898221289,spanish_cond2,001,1008,
images/cola.jpg,comb,x,sounds/greatgatsby_spanish.wav,,,,,,,,,0,1,1,0,0,11,11,157,606.700458658,9.30076930672e-06,607.514211482,0.813762765727,,,,,x,1,0.800437907921,2018_Nov_13_1539,59.9898221289,spanish_cond2,001,1008,
images/handfan01b.jpg,handfan,z,sounds/greatgatsby_spanish.wav,,,,,,,,,0,1,1,0,0,12,12,69,608.628255164,9.30076930672e-06,610.198191665,1.56994580186,,,,,z,1,1.55061678821,2018_Nov_13_1539,59.9898221289,spanish_cond2,001,1008,
images/parrot01.jpg,chameleon,x,sounds/greatgatsby_spanish.wav,,,,,,,,,0,1,1,0,0,13,13,150,611.311478133,6.60679070279e-05,612.332051211,1.0206237511,,,,,x,1,1.00049454661,2018_Nov_13_1539,59.9898221289,spanish_cond2,001,1008,
images/paintbrush03a.jpg,paint brush,z,sounds/greatgatsby_spanish.wav,,,,,,,,,0,1,1,0,0,14,14,0,613.431858877,8.98004509509e-06,614.649283982,1.2174353681,,,,,z,1,1.20056176907,2018_Nov_13_1539,59.9898221289,spanish_cond2,001,1008,
images/doorhandle.jpg,doll,x,sounds/greatgatsby_spanish.wav,,,,,,,,,0,1,1,0,0,15,15,168,615.751961109,9.30076930672e-06,616.733098098,0.981147252023,,,,,x,1,0.967145679868,2018_Nov_13_1539,59.9898221289,spanish_cond2,001,1008,
images/table02.jpg,table,z,sounds/greatgatsby_spanish.wav,,,,,,,,,0,1,1,0,0,16,16,49,617.847649797,9.30076930672e-06,618.81692857,0.969288394786,,,,,z,1,0.950470605167,2018_Nov_13_1539,59.9898221289,spanish_cond2,001,1008,
images/electricguitar02.jpg,electric guitar,z,sounds/greatgatsby_spanish.wav,,,,,,,,,0,1,1,0,0,17,17,100,619.916441817,8.98016151041e-06,620.700948074,0.784515557578,,,,,z,1,0.767324127257,2018_Nov_13_1539,59.9898221289,spanish_cond2,001,1008,
images/panda.jpg,panda,z,sounds/greatgatsby_spanish.wav,,,,,,,,,0,1,1,0,0,18,18,83,621.808927947,8.98016151041e-06,623.651444015,1.84252569033,,,,,z,1,1.83404366963,2018_Nov_13_1539,59.9898221289,spanish_cond2,001,1008,
images/lion.jpg,lion,z,sounds/greatgatsby_spanish.wav,,,,,,,,,0,1,1,0,0,19,19,44,624.76376384,9.62149351835e-06,625.551890358,0.78813678096,,,,,z,1,0.76710122847,2018_Nov_13_1539,59.9898221289,spanish_cond2,001,1008,
images/stapler03a.jpg,candy cane,x,sounds/greatgatsby_spanish.wav,,,,,,,,,0,1,1,0,0,20,20,145,626.729555129,9.62160993367e-06,627.452339908,0.722794721136,,,,,x,1,0.700416003005,2018_Nov_13_1539,59.9898221289,spanish_cond2,001,1008,
images/ladder.jpg,ladder,z,sounds/greatgatsby_spanish.wav,,,,,,,,,0,1,1,0,0,21,21,113,628.544372736,9.62160993367e-06,629.202759648,0.658397174906,,,,,z,1,0.650407135137,2018_Nov_13_1539,59.9898221289,spanish_cond2,001,1008,
images/razor04a.jpg,razor,z,sounds/greatgatsby_spanish.wav,,,,,,,,,0,1,1,0,0,22,22,36,630.300501891,9.30076930672e-06,631.26992627,0.969433679827,,,,,z,1,0.950468680821,2018_Nov_13_1539,59.9898221289,spanish_cond2,001,1008,
images/notebook02b.jpg,notebook,z,sounds/greatgatsby_spanish.wav,,,,,,,,,0,1,1,0,0,23,23,7,632.37708254,8.98004509509e-06,633.287067989,0.909995070542,,,,,z,1,0.900458530057,2018_Nov_13_1539,59.9898221289,spanish_cond2,001,1008,
images/nailclipper03a.jpg,aquarium,x,sounds/greatgatsby_spanish.wav,,,,,,,,,0,1,1,0,0,24,24,123,634.386309588,9.62149351835e-06,635.187538065,0.801238419255,,,,,x,1,0.783770530368,2018_Nov_13_1539,59.9898221289,spanish_cond2,001,1008,
images/charcoalbarbecue.jpg,charcoal barbecue,z,sounds/greatgatsby_spanish.wav,,,,,,,,,0,1,1,0,0,25,25,77,636.302828698,9.30088572204e-06,637.154672199,0.851853443542,,,,,z,1,0.833772663143,2018_Nov_13_1539,59.9898221289,spanish_cond2,001,1008,
images/gluestick.jpg,squirrel,x,sounds/greatgatsby_spanish.wav,,,,,,,,,0,1,1,0,0,26,26,226,638.262055858,9.30076930672e-06,639.705289629,1.443243713,,,,,x,1,1.4339284678,2018_Nov_13_1539,59.9898221289,spanish_cond2,001,1008,
images/blackolive.jpg,tank,x,sounds/greatgatsby_spanish.wav,,,,,,,,,0,1,1,0,0,27,27,229,640.81980188,8.98004509509e-06,642.222563323,1.40277170634,,,,,x,1,1.38390356407,2018_Nov_13_1539,59.9898221289,spanish_cond2,001,1008,
images/pictureframe04.jpg,picture frame,z,sounds/greatgatsby_spanish.wav,,,,,,,,,0,1,1,0,0,28,28,41,643.344615968,9.30088572204e-06,644.173031363,0.828425337095,,,,,z,1,0.817109134165,2018_Nov_13_1539,59.9898221289,spanish_cond2,001,1008,
images/swan.jpg,swan,z,sounds/greatgatsby_spanish.wav,,,,,,,,,0,1,1,0,0,29,29,54,645.264658161,9.62160993367e-06,646.656792945,1.3921450465,,,,,z,1,1.38374833658,2018_Nov_13_1539,59.9898221289,spanish_cond2,001,1008,
images/sunglasses03a.jpg,sun glasses,z,sounds/greatgatsby_spanish.wav,,,,,,,,,0,1,1,0,0,30,30,17,647.765361656,9.62149351835e-06,649.240921845,1.47557109396,,,,,z,1,1.46727508947,2018_Nov_13_1539,59.9898221289,spanish_cond2,001,1008,
images/dice05a.jpg,band aid,x,sounds/greatgatsby_spanish.wav,,,,,,,,,0,1,1,0,0,31,31,126,650.353401708,9.30076930672e-06,651.241413506,0.888021418708,,,,,x,1,0.867141735042,2018_Nov_13_1539,59.9898221289,spanish_cond2,001,1008,
images/bicycle.jpg,hand bag,x,sounds/greatgatsby_spanish.wav,,,,,,,,,0,1,1,0,0,32,32,186,652.349475162,9.30088572204e-06,653.341902055,0.992437156267,,,,,x,1,0.983741858159,2018_Nov_13_1539,59.9898221289,spanish_cond2,001,1008,
images/peach01.jpg,peach,z,sounds/greatgatsby_spanish.wav,,,,,,,,,0,1,1,0,0,33,33,106,654.53948147,8.65932088345e-06,655.325708056,0.786236528656,,,,,z,1,0.767066270229,2018_Nov_13_1539,59.9898221289,spanish_cond2,001,1008,
images/cloud.jpg,ceiling fan,x,sounds/greatgatsby_spanish.wav,,,,,,,,,0,1,1,0,0,34,34,149,656.431631808,8.98016151041e-06,657.426232205,0.994610339287,,,,,x,1,0.983833904145,2018_Nov_13_1539,59.9898221289,spanish_cond2,001,1008,
images/tulip02.jpg,sport shorts,x,sounds/greatgatsby_spanish.wav,,,,,,,,,0,1,1,0,0,35,35,225,658.521265988,9.62149351835e-06,660.126876559,1.60562115477,,,,,x,1,1.58397399366,2018_Nov_13_1539,59.9898221289,spanish_cond2,001,1008,
images/lightbulb03b.jpg,treadmill,x,sounds/greatgatsby_spanish.wav,,,,,,,,,0,1,1,0,0,36,36,234,661.229261512,8.98004509509e-06,662.094005562,0.864753991831,,,,,x,1,0.85044966219,2018_Nov_13_1539,59.9898221289,spanish_cond2,001,1008,
images/clothespin02a.jpg,clothes pin,z,sounds/greatgatsby_spanish.wav,,,,,,,,,0,1,1,0,0,37,37,79,663.20100917,8.98016151041e-06,664.194514316,0.993514767615,,,,,z,1,0.983821396134,2018_Nov_13_1539,59.9898221289,spanish_cond2,001,1008,
images/ladybug03.jpg,giraffe,x,sounds/greatgatsby_spanish.wav,,,,,,,,,0,1,1,0,0,38,38,178,665.297446735,9.30076930672e-06,666.044971355,0.747535204282,,,,,x,1,0.733766152523,2018_Nov_13_1539,59.9898221289,spanish_cond2,001,1008,
images/carrot02.jpg,corkscrew,x,sounds/greatgatsby_spanish.wav,,,,,,,,,0,1,1,0,0,39,39,161,667.147674781,8.98004509509e-06,668.078780773,0.931115613203,,,,,x,1,0.917130077025,2018_Nov_13_1539,59.9898221289,spanish_cond2,001,1008,
images/lantern03.jpg,lantern,z,sounds/greatgatsby_spanish.wav,,,,,,,,,0,1,1,0,0,40,40,5,669.185347884,8.98016151041e-06,669.862554831,0.677216888871,,,,,z,1,0.667080926942,2018_Nov_13_1539,59.9898221289,spanish_cond2,001,1008,
images/pen03c.jpg,pepper,x,sounds/greatgatsby_spanish.wav,,,,,,,,,0,1,1,0,0,41,41,211,670.956687076,9.94221772999e-06,672.096440451,1.13976395817,,,,,x,1,1.11721044884,2018_Nov_13_1539,59.9898221289,spanish_cond2,001,1008,
images/cactus.jpg,cactus,z,sounds/greatgatsby_spanish.wav,,,,,,,,,0,1,1,0,0,42,42,70,673.208092541,8.65932088345e-06,674.046933506,0.83885090705,,,,,z,1,0.817119076382,2018_Nov_13_1539,59.9898221289,spanish_cond2,001,1008,
images/lamp04b.jpg,parking meter,x,sounds/greatgatsby_spanish.wav,,,,,,,,,0,1,1,0,0,43,43,209,675.25069732,9.62160993367e-06,676.9975959,1.74690916343,,,,,x,1,1.73400348355,2018_Nov_13_1539,59.9898221289,spanish_cond2,001,1008,
images/ostrich.jpg,ostrich,z,sounds/greatgatsby_spanish.wav,,,,,,,,,0,1,1,0,0,44,44,76,678.098173288,9.94221772999e-06,679.381506841,1.2833441362,,,,,z,1,1.26722197875,2018_Nov_13_1539,59.9898221289,spanish_cond2,001,1008,
images/bracelet02a.jpg,chess knight,x,sounds/greatgatsby_spanish.wav,,,,,,,,,0,1,1,0,0,45,45,152,680.490496333,9.94221772999e-06,681.315301088,0.824815018103,,,,,x,1,0.800438869977,2018_Nov_13_1539,59.9898221289,spanish_cond2,001,1008,
images/dreamcatcher.jpg,dream catcher,z,sounds/greatgatsby_spanish.wav,,,,,,,,,0,1,1,0,0,46,46,48,682.413952887,9.30076930672e-06,683.599186917,1.18524429225,,,,,z,1,1.16719846998,2018_Nov_13_1539,59.9898221289,spanish_cond2,001,1008,
images/worldmap.jpg,scooter,x,sounds/greatgatsby_spanish.wav,,,,,,,,,0,1,1,0,0,47,47,220,684.730095539,8.98004509509e-06,686.383185477,1.65309956006,,,,,z,0,1.63397548499,2018_Nov_13_1539,59.9898221289,spanish_cond2,001,1008,
images/barrel01.jpg,barrel,z,sounds/greatgatsby_spanish.wav,,,,,,,,,0,1,1,0,0,48,48,9,687.51153381,9.30076930672e-06,688.433898,0.922374452697,,,,,z,1,0.900680787512,2018_Nov_13_1539,59.9898221289,spanish_cond2,001,1008,
images/broom02.jpg,broom,z,sounds/greatgatsby_spanish.wav,,,,,,,,,0,1,1,0,0,49,49,116,689.525115242,9.30088572204e-06,690.917454323,1.39234902302,,,,,z,1,1.38375346817,2018_Nov_13_1539,59.9898221289,spanish_cond2,001,1008,
images/puma.jpg,puma,z,sounds/greatgatsby_spanish.wav,,,,,,,,,0,1,1,0,0,50,50,4,692.014663534,8.65932088345e-06,692.901422928,0.886768695433,,,,,z,1,0.867069573607,2018_Nov_13_1539,59.9898221289,spanish_cond2,001,1008,
images/raisin.jpg,ruler,x,sounds/greatgatsby_spanish.wav,,,,,,,,,0,1,1,0,0,51,51,218,694.004312049,9.62149351835e-06,694.701866609,0.697564501897,,,,,x,1,0.683759209001,2018_Nov_13_1539,59.9898221289,spanish_cond2,001,1008,
images/50dollarbill.jpg,cherry,x,sounds/greatgatsby_spanish.wav,,,,,,,,,0,1,1,0,0,52,52,151,695.8209013,9.62149351835e-06,696.719012818,0.898121460225,,,,,x,1,0.883744006976,2018_Nov_13_1539,59.9898221289,spanish_cond2,001,1008,
images/plant01.jpg,plant,z,sounds/greatgatsby_spanish.wav,,,,,,,,,0,1,1,0,0,53,53,47,697.828706927,9.30076930672e-06,698.75307464,0.924377976102,,,,,z,1,0.900713821407,2018_Nov_13_1539,59.9898221289,spanish_cond2,001,1008,
images/mailbox01.jpg,mail box,z,sounds/greatgatsby_spanish.wav,,,,,,,,,0,1,1,0,0,54,54,73,699.870050003,9.30076930672e-06,701.38679291,1.51675252814,,,,,z,1,1.50060503394,2018_Nov_13_1539,59.9898221289,spanish_cond2,001,1008,
images/giraffe.jpg,lettuce,x,sounds/greatgatsby_spanish.wav,,,,,,,,,0,1,1,0,0,55,55,195,702.487998263,9.30088572204e-06,703.337260949,0.849273269763,,,,,x,1,0.833776190993,2018_Nov_13_1539,59.9898221289,spanish_cond2,001,1008,
images/ashtray02b.jpg,ashtray,z,sounds/greatgatsby_spanish.wav,,,,,,,,,0,1,1,0,0,56,56,43,704.449752679,9.30076930672e-06,705.28772514,0.837982403464,,,,,z,1,0.8171014369,2018_Nov_13_1539,59.9898221289,spanish_cond2,001,1008,
images/tissuebox03.jpg,tissue box,z,sounds/greatgatsby_spanish.wav,,,,,,,,,0,1,1,0,0,57,57,58,706.411097217,9.30076930672e-06,707.504935364,1.09384808945,,,,,z,1,1.08385292278,2018_Nov_13_1539,59.9898221289,spanish_cond2,001,1008,
images/cherry01.jpg,highlighter,x,sounds/greatgatsby_spanish.wav,,,,,,,,,0,1,1,0,0,58,58,187,708.692774904,8.98016151041e-06,709.672139286,0.979374324786,,,,,x,1,0.967161074281,2018_Nov_13_1539,59.9898221289,spanish_cond2,001,1008,
images/graduationcap.jpg,graduation cap,z,sounds/greatgatsby_spanish.wav,,,,,,,,,0,1,1,0,0,59,59,35,710.772390825,9.30076930672e-06,711.539246063,0.766865500947,,,,,z,1,0.750433850917,2018_Nov_13_1539,59.9898221289,spanish_cond2,001,1008,
images/snowman.jpg,globe,x,sounds/greatgatsby_spanish.wav,,,,,,,,,0,1,1,0,0,60,60,180,712.732986488,9.62149351835e-06,713.539714953,0.806739048334,,,,,x,1,0.783766040346,2018_Nov_13_1539,59.9898221289,spanish_cond2,001,1008,
images/triangleruler02.jpg,bottle of red wine,x,sounds/greatgatsby_spanish.wav,,,,,,,,,0,1,1,0,0,61,61,134,714.649451076,8.98004509509e-06,715.773592234,1.12415110029,,,,,x,1,1.10051837598,2018_Nov_13_1539,59.9898221289,spanish_cond2,001,1008,
images/showerhead01.jpg,skateboard,x,sounds/greatgatsby_spanish.wav,,,,,,,,,0,1,1,0,0,62,62,223,716.879742092,9.62149351835e-06,718.707647545,1.82791571657,,,,,x,1,1.81737308472,2018_Nov_13_1539,59.9898221289,spanish_cond2,001,1008,
images/comb02a.jpg,diploma,x,sounds/greatgatsby_spanish.wav,,,,,,,,,0,1,1,0,0,63,63,166,719.900810037,9.62149351835e-06,720.808137057,0.907337283134,,,,,x,1,0.883794039022,2018_Nov_13_1539,59.9898221289,spanish_cond2,001,1008,
images/desktopcomputer.jpg,desktop computer,z,sounds/greatgatsby_spanish.wav,,,,,,,,,0,1,1,0,0,64,64,16,721.941981208,9.30076930672e-06,722.875289889,0.933318623109,,,,,z,1,0.917123983381,2018_Nov_13_1539,59.9898221289,spanish_cond2,001,1008,
images/diaper01a.jpg,camera,x,sounds/greatgatsby_spanish.wav,,,,,,,,,0,1,1,0,0,65,65,143,723.994279679,8.98004509509e-06,725.10917615,1.11490737507,,,,,x,1,1.10051837598,2018_Nov_13_1539,59.9898221289,spanish_cond2,001,1008,
images/atm.jpg,atm,z,sounds/greatgatsby_spanish.wav,,,,,,,,,0,1,1,0,0,66,66,96,726.246316638,9.62149351835e-06,727.076300021,0.829993646475,,,,,z,1,0.817105926923,2018_Nov_13_1539,59.9898221289,spanish_cond2,001,1008,
images/ear.jpg,bullet,x,sounds/greatgatsby_spanish.wav,,,,,,,,,0,1,1,0,0,67,67,139,728.253529899,9.62160993367e-06,729.04350311,0.789982832037,,,,,x,1,0.767146449653,2018_Nov_13_1539,59.9898221289,spanish_cond2,001,1008,
images/daisy.jpg,daisy,z,sounds/greatgatsby_spanish.wav,,,,,,,,,0,1,1,0,0,68,68,6,730.144037201,8.98004509509e-06,731.660737131,1.51671083481,,,,,z,1,1.50060503394,2018_Nov_13_1539,59.9898221289,spanish_cond2,001,1008,
images/tie01.jpg,bench,x,sounds/greatgatsby_spanish.wav,,,,,,,,,0,1,1,0,0,69,69,130,732.757498299,9.62149351835e-06,733.57786817,0.820380775258,,,,,x,1,0.800434380071,2018_Nov_13_1539,59.9898221289,spanish_cond2,001,1008,
images/scissors04a.jpg,leek,x,sounds/greatgatsby_spanish.wav,,,,,,,,,0,1,1,0,0,70,70,194,734.67034006,9.62149351835e-06,736.061813845,1.39148340584,,,,,x,1,1.36724837369,2018_Nov_13_1539,59.9898221289,spanish_cond2,001,1008,
images/banjo.jpg,knife,x,sounds/greatgatsby_spanish.wav,,,,,,,,,0,1,1,0,0,71,71,191,737.157046152,9.62160993367e-06,738.012386438,0.855349907884,,,,,x,1,0.833893253002,2018_Nov_13_1539,59.9898221289,spanish_cond2,001,1008,
images/dresser02.jpg,dresser,z,sounds/greatgatsby_spanish.wav,,,,,,,,,0,1,1,0,0,72,72,87,739.132938444,9.30076930672e-06,740.37950877,1.24658026744,,,,,z,1,1.23388048843,2018_Nov_13_1539,59.9898221289,spanish_cond2,001,1008,
images/shotglass.jpg,shot glass,z,sounds/greatgatsby_spanish.wav,,,,,,,,,0,1,1,0,0,73,73,86,741.486159268,9.62149351835e-06,742.296639809,0.810490803909,,,,,z,1,0.800450736657,2018_Nov_13_1539,59.9898221289,spanish_cond2,001,1008,
images/scooter.jpg,pen,x,sounds/greatgatsby_spanish.wav,,,,,,,,,0,1,1,0,0,74,74,212,743.388024145,8.98016151041e-06,744.197093528,0.809079004684,,,,,x,1,0.800447850139,2018_Nov_13_1539,59.9898221289,spanish_cond2,001,1008,
images/gorilla.jpg,gorilla,z,sounds/greatgatsby_spanish.wav,,,,,,,,,0,1,1,0,0,75,75,80,745.305989371,9.30076930672e-06,747.297841217,1.99186146795,,,,,z,1,1.96738718043,2018_Nov_13_1539,59.9898221289,spanish_cond2,001,1008,
images/tape01a.jpg,tie,x,sounds/greatgatsby_spanish.wav,,,,,,,,,0,1,1,0,0,76,76,232,748.421479169,9.30076930672e-06,749.148279013,0.726809465094,,,,,x,1,0.717070872546,2018_Nov_13_1539,59.9898221289,spanish_cond2,001,1008,
images/bowtie.jpg,bowtie,z,sounds/greatgatsby_spanish.wav,,,,,,,,,0,1,1,0,0,77,77,89,750.25656004,9.62149351835e-06,751.065417108,0.808867651736,,,,,z,1,0.800447529415,2018_Nov_13_1539,59.9898221289,spanish_cond2,001,1008,
images/lemon02.jpg,lemon,z,sounds/greatgatsby_spanish.wav,,,,,,,,,0,1,1,0,0,78,78,14,752.176116025,9.30076930672e-06,753.165905336,0.989798611728,,,,,z,1,0.967140227789,2018_Nov_13_1539,59.9898221289,spanish_cond2,001,1008,
images/lollipop03b.jpg,lollipop,z,sounds/greatgatsby_spanish.wav,,,,,,,,,0,1,1,0,0,79,79,42,754.257241244,9.62149351835e-06,755.78321184,1.52598053822,,,,,z,1,1.51728042949,2018_Nov_13_1539,59.9898221289,spanish_cond2,001,1008,
images/plate01b.jpg,plate,z,sounds/greatgatsby_spanish.wav,,,,,,,,,0,1,1,0,0,80,80,3,756.880485195,9.62149351835e-06,758.167118291,1.28664303827,,,,,z,1,1.26721428148,2018_Nov_13_1539,59.9898221289,spanish_cond2,001,1008,
images/microphone01.jpg,diaper,x,sounds/greatgatsby_spanish.wav,,,,,,,,,0,1,1,0,0,81,81,164,759.264109093,9.30088572204e-06,760.117585047,0.853486217326,,,,,x,1,0.833779077511,2018_Nov_13_1539,59.9898221289,spanish_cond2,001,1008,
images/camera01a.jpg,bull,x,sounds/greatgatsby_spanish.wav,,,,,,,,,0,1,1,0,0,82,82,138,761.226232334,9.94221772999e-06,762.584858212,1.35863678309,,,,,x,1,1.33390912856,2018_Nov_13_1539,59.9898221289,spanish_cond2,001,1008,
images/aloe02.jpg,broad sword,x,sounds/greatgatsby_spanish.wav,,,,,,,,,0,1,1,0,0,83,83,137,763.704755634,9.30088572204e-06,764.702021836,0.997276144684,,,,,x,1,0.98381754756,2018_Nov_13_1539,59.9898221289,spanish_cond2,001,1008,
images/globe.jpg,cloud,x,sounds/greatgatsby_spanish.wav,,,,,,,,,0,1,1,0,0,84,84,154,765.828306351,9.30076930672e-06,766.619161214,0.79086448485,,,,,x,1,0.767098021228,2018_Nov_13_1539,59.9898221289,spanish_cond2,001,1008,
images/8ball.jpg,nail clipper,x,sounds/greatgatsby_spanish.wav,,,,,,,,,0,1,1,0,0,85,85,206,767.734754605,9.30076930672e-06,768.419604254,0.684859912144,,,,,x,1,0.667089586379,2018_Nov_13_1539,59.9898221289,spanish_cond2,001,1008,
images/hammer02a.jpg,flower,x,sounds/greatgatsby_spanish.wav,,,,,,,,,0,1,1,0,0,86,86,176,769.512884352,8.65932088345e-06,770.319894728,0.807020638487,,,,,x,1,0.783624603762,2018_Nov_13_1539,59.9898221289,spanish_cond2,001,1008,
images/medal01.jpg,medal,z,sounds/greatgatsby_spanish.wav,,,,,,,,,0,1,1,0,0,87,87,115,771.419497134,9.30076930672e-06,772.10364377,0.684156898991,,,,,z,1,0.666906135855,2018_Nov_13_1539,59.9898221289,spanish_cond2,001,1008,
images/bullet (2).jpg,rubber glove,x,sounds/greatgatsby_spanish.wav,,,,,,,,,0,1,1,0,0,88,88,217,773.206783372,9.30076930672e-06,774.02093164,0.814158852096,,,,,x,1,0.800416419865,2018_Nov_13_1539,59.9898221289,spanish_cond2,001,1008,
images/knife04.jpg,tooth brush,x,sounds/greatgatsby_spanish.wav,,,,,,,,,0,1,1,0,0,89,89,233,775.116384922,9.62149351835e-06,775.888060867,0.771686208434,,,,,x,1,0.750435133697,2018_Nov_13_1539,59.9898221289,spanish_cond2,001,1008,
images/beachumbrella01.jpg,beach umbrella,z,sounds/greatgatsby_spanish.wav,,,,,,,,,0,1,1,0,0,90,90,92,776.99222452,9.62149351835e-06,778.488686523,1.49647226569,,,,,z,1,1.48395208863,2018_Nov_13_1539,59.9898221289,spanish_cond2,001,1008,
images/envelope02a.jpg,grand piano,x,sounds/greatgatsby_spanish.wav,,,,,,,,,0,1,1,0,0,91,91,182,779.610337308,9.30076930672e-06,781.205989916,1.59566287056,,,,,x,1,1.58395667491,2018_Nov_13_1539,59.9898221289,spanish_cond2,001,1008,
images/bench02.jpg,electric toothbrush,x,sounds/greatgatsby_spanish.wav,,,,,,,,,0,1,1,0,0,92,92,172,782.3131077,9.30076930672e-06,783.739952155,1.42685471836,,,,,x,1,1.41726237303,2018_Nov_13_1539,59.9898221289,spanish_cond2,001,1008,
images/mushroom01.jpg,shower head,x,sounds/greatgatsby_spanish.wav,,,,,,,,,0,1,1,0,0,93,93,222,784.854578902,9.30088572204e-06,786.073835947,1.21926666622,,,,,x,1,1.20053963957,2018_Nov_13_1539,59.9898221289,spanish_cond2,001,1008,
images/redfox.jpg,red fox,z,sounds/greatgatsby_spanish.wav,,,,,,,,,0,1,1,0,0,94,94,1,787.185025563,9.30076930672e-06,788.324381568,1.13936594746,,,,,z,1,1.11719537515,2018_Nov_13_1539,59.9898221289,spanish_cond2,001,1008,
images/flower01.jpg,bus,x,sounds/greatgatsby_spanish.wav,,,,,,,,,0,1,1,0,0,95,95,140,789.437697221,9.62149351835e-06,790.441569887,1.00388324971,,,,,x,1,0.983834224869,2018_Nov_13_1539,59.9898221289,spanish_cond2,001,1008,
images/gamecontroller01.jpg,game controller,z,sounds/greatgatsby_spanish.wav,,,,,,,,,0,1,1,0,0,96,96,112,791.560101373,9.30076930672e-06,792.558743775,0.998652664945,,,,,z,1,0.983839035616,2018_Nov_13_1539,59.9898221289,spanish_cond2,001,1008,
images/bull.jpg,button,x,sounds/greatgatsby_spanish.wav,,,,,,,,,0,1,1,0,0,97,97,141,793.662653099,9.62149351835e-06,795.626132975,1.96349013969,,,,,x,1,1.95072365133,2018_Nov_13_1539,59.9898221289,spanish_cond2,001,1008,
images/battery03b.jpg,battery,z,sounds/greatgatsby_spanish.wav,,,,,,,,,0,1,1,0,0,98,98,34,796.733343126,9.62160993367e-06,797.960021257,1.22668871505,,,,,z,1,1.2172025271,2018_Nov_13_1539,59.9898221289,spanish_cond2,001,1008,
images/remotecontrol01c.jpg,remote control,z,sounds/greatgatsby_spanish.wav,,,,,,,,,0,1,1,0,0,99,99,85,799.068591251,9.30076930672e-06,800.043865521,0.975284212036,,,,,z,1,0.967153377132,2018_Nov_13_1539,59.9898221289,spanish_cond2,001,1008,
images/bowlingball.jpg,bowling ball,z,sounds/greatgatsby_spanish.wav,,,,,,,,,0,1,1,0,0,100,100,20,801.174233733,8.98004509509e-06,802.194382181,1.02015871031,,,,,z,1,1.00049198093,2018_Nov_13_1539,59.9898221289,spanish_cond2,001,1008,
images/hairband.jpg,hairband,z,sounds/greatgatsby_spanish.wav,,,,,,,,,0,1,1,0,0,101,101,66,803.302423632,9.30076930672e-06,803.878139786,0.575726096868,,,,,z,1,0.567076661391,2018_Nov_13_1539,59.9898221289,spanish_cond2,001,1008,
images/handbag02a.jpg,candle,x,sounds/greatgatsby_spanish.wav,,,,,,,,,0,1,1,0,0,102,102,144,804.992136323,9.30076930672e-06,805.67854017,0.686413789284,,,,,x,1,0.667069701944,2018_Nov_13_1539,59.9898221289,spanish_cond2,001,1008,
images/broadsword.jpg,teapot,x,sounds/greatgatsby_spanish.wav,,,,,,,,,0,1,1,0,0,103,103,231,806.769565303,9.62149351835e-06,808.495898502,1.72634378308,,,,,x,1,1.71732840873,2018_Nov_13_1539,59.9898221289,spanish_cond2,001,1008,
images/umbrella01.jpg,umbrella,z,sounds/greatgatsby_spanish.wav,,,,,,,,,0,1,1,0,0,104,104,53,809.60756727,9.30076930672e-06,810.879801104,1.27224345552,,,,,z,1,1.25055171456,2018_Nov_13_1539,59.9898221289,spanish_cond2,001,1008,
images/lock02a.jpg,lock,z,sounds/greatgatsby_spanish.wav,,,,,,,,,0,1,1,0,0,105,105,65,811.988380719,8.98016151041e-06,813.68047506,1.69210460398,,,,,z,1,1.6839712034,2018_Nov_13_1539,59.9898221289,spanish_cond2,001,1008,
images/spoon02b.jpg,spoon,z,sounds/greatgatsby_spanish.wav,,,,,,,,,0,1,1,0,0,106,106,38,814.850078913,9.62149351835e-06,816.997954463,2.14788581291,,,,,z,1,2.13410938461,2018_Nov_13_1539,59.9898221289,spanish_cond2,001,1008,
images/saltshaker03c.jpg,salt shaker,z,sounds/greatgatsby_spanish.wav,,,,,,,,,0,1,1,0,0,107,107,63,818.107273332,9.30088572204e-06,819.531891365,1.42462797556,,,,,z,1,1.40059210907,2018_Nov_13_1539,59.9898221289,spanish_cond2,001,1008,
images/candle08a.jpg,screw driver,x,sounds/greatgatsby_spanish.wav,,,,,,,,,0,1,1,0,0,108,108,221,820.643777259,9.62149351835e-06,821.432339312,0.788572315592,,,,,x,1,0.767093531205,2018_Nov_13_1539,59.9898221289,spanish_cond2,001,1008,
images/weight01.jpg,weight,z,sounds/greatgatsby_spanish.wav,,,,,,,,,0,1,1,0,0,109,109,67,822.535663967,9.30076930672e-06,824.933191619,2.39753759373,,,,,z,1,2.38416494895,2018_Nov_13_1539,59.9898221289,spanish_cond2,001,1008,
images/butterfly.jpg,butterfly,z,sounds/greatgatsby_spanish.wav,,,,,,,,,0,1,1,0,0,110,110,91,826.116125461,9.62149351835e-06,827.800542462,1.68442822609,,,,,z,1,1.66731633374,2018_Nov_13_1539,59.9898221289,spanish_cond2,001,1008,
images/binder03b.jpg,dj mixer,x,sounds/greatgatsby_spanish.wav,,,,,,,,,0,1,1,0,0,111,111,167,828.911629127,9.30076930672e-06,829.984392274,1.0727730887,,,,,x,1,1.05049732083,2018_Nov_13_1539,59.9898221289,spanish_cond2,001,1008,
images/mattress.jpg,cat,x,sounds/greatgatsby_spanish.wav,,,,,,,,,0,1,1,0,0,112,112,147,831.163159352,8.98016151041e-06,831.951535388,0.788385657943,,,,,x,1,0.767055686563,2018_Nov_13_1539,59.9898221289,spanish_cond2,001,1008,
images/button07.jpg,radish,x,sounds/greatgatsby_spanish.wav,,,,,,,,,0,1,1,0,0,113,113,215,833.134309833,9.30088572204e-06,834.66884744,1.53454754921,,,,,x,1,1.5172698457,2018_Nov_13_1539,59.9898221289,spanish_cond2,001,1008,
images/lighter02b.jpg,stapler,x,sounds/greatgatsby_spanish.wav,,,,,,,,,0,1,1,0,0,114,114,227,835.842674503,9.62149351835e-06,836.619334723,0.776670161402,,,,,x,1,0.76710122847,2018_Nov_13_1539,59.9898221289,spanish_cond2,001,1008,
images/egg01b (1).jpg,egg,z,sounds/greatgatsby_spanish.wav,,,,,,,,,0,1,1,0,0,115,115,19,837.73025237,9.94233414531e-06,838.469768349,0.739525921526,,,,,z,1,0.717085946235,2018_Nov_13_1539,59.9898221289,spanish_cond2,001,1008,
images/axe01.jpg,axe,z,sounds/greatgatsby_spanish.wav,,,,,,,,,0,1,1,0,0,116,116,104,839.572334187,8.98016151041e-06,840.987046854,1.41472228896,,,,,z,1,1.400589864,2018_Nov_13_1539,59.9898221289,spanish_cond2,001,1008,
images/seagull.jpg,seagull,z,sounds/greatgatsby_spanish.wav,,,,,,,,,0,1,1,0,0,117,117,50,842.092524808,8.65932088345e-06,842.937523874,0.845008686651,,,,,z,1,0.833789019729,2018_Nov_13_1539,59.9898221289,spanish_cond2,001,1008,
images/tank.jpg,wallet,x,sounds/greatgatsby_spanish.wav,,,,,,,,,0,1,1,0,0,118,118,237,844.040371301,9.30076930672e-06,845.621497001,1.58113564202,,,,,x,1,1.56729956018,2018_Nov_13_1539,59.9898221289,spanish_cond2,001,1008,
images/watermelon01.jpg,orange,x,sounds/greatgatsby_spanish.wav,,,,,,,,,0,1,1,0,0,119,119,207,846.748896651,9.30088572204e-06,847.87203268,1.12314629194,,,,,x,1,1.10051356524,2018_Nov_13_1539,59.9898221289,spanish_cond2,001,1008,
images/backpack01b.jpg,swallow,x,sounds/greatgatsby_spanish.wav,,,,,,,,,0,1,1,0,0,120,120,228,849.002338994,8.98004509509e-06,850.389313751,1.38698534027,,,,,x,1,1.36725158093,2018_Nov_13_1539,59.9898221289,spanish_cond2,001,1008,
images/cake.jpg,cake,z,sounds/greatgatsby_spanish.wav,,,,,,,,,0,1,1,0,0,121,121,23,851.503098935,9.62149351835e-06,852.406456753,0.903367760126,,,,,z,1,0.883800132549,2018_Nov_13_1539,59.9898221289,spanish_cond2,001,1008,
images/honeycomb.jpg,honey comb,z,sounds/greatgatsby_spanish.wav,,,,,,,,,0,1,1,0,0,122,122,59,853.517457786,9.30076930672e-06,854.373606602,0.856158437091,,,,,z,1,0.833797358326,2018_Nov_13_1539,59.9898221289,spanish_cond2,001,1008,
images/hanger02a.jpg,hanger,z,sounds/greatgatsby_spanish.wav,,,,,,,,,0,1,1,0,0,123,123,88,855.465239815,8.98016151041e-06,856.457432264,0.9922023908,,,,,z,1,0.983809208847,2018_Nov_13_1539,59.9898221289,spanish_cond2,001,1008,
images/bandaid01.jpg,door handle,x,sounds/greatgatsby_spanish.wav,,,,,,,,,0,1,1,0,0,124,124,170,857.642534799,9.62149351835e-06,859.158083994,1.51555913757,,,,,x,1,1.50061176892,2018_Nov_13_1539,59.9898221289,spanish_cond2,001,1008,
images/bed.jpg,bed,z,sounds/greatgatsby_spanish.wav,,,,,,,,,0,1,1,0,0,125,125,103,860.275657175,9.62149351835e-06,861.225257352,0.949610119569,,,,,z,1,0.933750309166,2018_Nov_13_1539,59.9898221289,spanish_cond2,001,1008,
images/marker01a.jpg,marker,z,sounds/greatgatsby_spanish.wav,,,,,,,,,0,1,1,0,0,126,126,95,862.321572402,8.65932088345e-06,863.292415957,0.970852855709,,,,,z,1,0.950482471613,2018_Nov_13_1539,59.9898221289,spanish_cond2,001,1008,
images/radish01.jpg,raisin,x,sounds/greatgatsby_spanish.wav,,,,,,,,,0,1,1,0,0,127,127,214,864.401707244,9.30076930672e-06,865.89319684,1.49150948029,,,,,x,1,1.46739439655,2018_Nov_13_1539,59.9898221289,spanish_cond2,001,1008,
images/basketball01.jpg,basket ball,z,sounds/greatgatsby_spanish.wav,,,,,,,,,0,1,1,0,0,128,128,33,867.030320971,8.98016151041e-06,868.243612987,1.21330163791,,,,,z,1,1.20053996029,2018_Nov_13_1539,59.9898221289,spanish_cond2,001,1008,
images/blueberry02.jpg,blueberry,z,sounds/greatgatsby_spanish.wav,,,,,,,,,0,1,1,0,0,129,129,46,869.354906195,9.62149351835e-06,870.127385538,0.772489285562,,,,,z,1,0.750428077998,2018_Nov_13_1539,59.9898221289,spanish_cond2,001,1008,
images/pingpongpaddle01c (1).jpg,ping pong paddle,z,sounds/greatgatsby_spanish.wav,,,,,,,,,0,1,1,0,0,130,130,10,871.236882406,9.62149351835e-06,872.04450888,0.807636095677,,,,,z,1,0.783767964575,2018_Nov_13_1539,59.9898221289,spanish_cond2,001,1008,
images/cheetah.jpg,cheetah,z,sounds/greatgatsby_spanish.wav,,,,,,,,,0,1,1,0,0,131,131,82,873.145260097,9.30088572204e-06,873.928300995,0.783050839906,,,,,z,1,0.76710860501,2018_Nov_13_1539,59.9898221289,spanish_cond2,001,1008,
images/apple06.jpg,apple,z,sounds/greatgatsby_spanish.wav,,,,,,,,,0,1,1,0,0,132,132,13,875.054282431,9.30076930672e-06,875.71208692,0.65781507222,,,,,z,1,0.633758038399,2018_Nov_13_1539,59.9898221289,spanish_cond2,001,1008,
images/fireextinguisher02.jpg,fire extinguisher,z,sounds/greatgatsby_spanish.wav,,,,,,,,,0,1,1,0,0,133,133,175,876.821163647,3.30338953063e-05,877.629214431,0.808077403228,,,,,z,1,0.783797149896,2018_Nov_13_1539,59.9898221289,spanish_cond2,001,1008,
images/thumbtack02a.jpg,thumb tack,z,sounds/greatgatsby_spanish.wav,,,,,,,,,0,1,1,0,0,134,134,60,878.737623104,9.30076930672e-06,879.813051735,1.07543857337,,,,,z,1,1.06717464072,2018_Nov_13_1539,59.9898221289,spanish_cond2,001,1008,
images/cupcake.jpg,scissors,x,sounds/greatgatsby_spanish.wav,,,,,,,,,0,1,1,0,0,135,135,219,880.930607276,9.30076930672e-06,881.796861264,0.866263930686,,,,,x,1,0.850451586535,2018_Nov_13_1539,59.9898221289,spanish_cond2,001,1008,
images/apricot.jpg,apricot,z,sounds/greatgatsby_spanish.wav,,,,,,,,,0,1,1,0,0,136,136,32,882.911881853,9.30076930672e-06,883.74731872,0.835447450867,,,,,z,1,0.817100154003,2018_Nov_13_1539,59.9898221289,spanish_cond2,001,1008,
images/banana04a.jpg,banana,z,sounds/greatgatsby_spanish.wav,,,,,,,,,0,1,1,0,0,137,137,118,884.855958951,9.62160993367e-06,885.814476042,0.958527354174,,,,,z,1,0.933740046108,2018_Nov_13_1539,59.9898221289,spanish_cond2,001,1008,
images/elbow.jpg,elbow,z,sounds/greatgatsby_spanish.wav,,,,,,,,,0,1,1,0,0,138,138,105,886.924531921,9.30076930672e-06,887.664935646,0.740413988824,,,,,z,1,0.717084022006,2018_Nov_13_1539,59.9898221289,spanish_cond2,001,1008,
images/leek.jpg,donut,x,sounds/greatgatsby_spanish.wav,,,,,,,,,0,1,1,0,0,139,139,169,888.764032922,9.30076930672e-06,889.59873278,0.834709479474,,,,,x,1,0.817060064292,2018_Nov_13_1539,59.9898221289,spanish_cond2,001,1008,
images/toothbrush03a.jpg,parrot,x,sounds/greatgatsby_spanish.wav,,,,,,,,,0,1,1,0,0,140,140,210,890.690023788,9.30076930672e-06,892.099337494,1.40932364808,,,,,x,1,1.40058633615,2018_Nov_13_1539,59.9898221289,spanish_cond2,001,1008,
images/fryingpan01.jpg,frying pan,z,sounds/greatgatsby_spanish.wav,,,,,,,,,0,1,1,0,0,141,141,45,893.267233845,9.94233414531e-06,894.466569831,1.19934624911,,,,,z,1,1.18385462253,2018_Nov_13_1539,59.9898221289,spanish_cond2,001,1008,
images/highlighter03b.jpg,coin,x,sounds/greatgatsby_spanish.wav,,,,,,,,,0,1,1,0,0,142,142,156,895.567172556,9.62160993367e-06,896.3003627,0.733200085815,,,,,x,1,0.717100378475,2018_Nov_13_1539,59.9898221289,spanish_cond2,001,1008,
images/cookingpot.jpg,grasshopper,x,sounds/greatgatsby_spanish.wav,,,,,,,,,0,1,1,0,0,143,143,183,897.412621267,8.98016151041e-06,898.484197117,1.07158579188,,,,,x,1,1.05049218936,2018_Nov_13_1539,59.9898221289,spanish_cond2,001,1008,
images/flipflop01b.jpg,flip flop,z,sounds/greatgatsby_spanish.wav,,,,,,,,,0,1,1,0,0,144,144,27,899.59949256,8.65943729877e-06,900.384664627,0.785181367421,,,,,z,1,0.767100587022,2018_Nov_13_1539,59.9898221289,spanish_cond2,001,1008,
images/lily.jpg,kiwi,x,sounds/greatgatsby_spanish.wav,,,,,,,,,0,1,1,0,0,145,145,190,901.482469411,8.98016151041e-06,903.151993886,1.66953441733,,,,,x,1,1.65064767341,2018_Nov_13_1539,59.9898221289,spanish_cond2,001,1008,
images/aquarium.jpg,computer mouse,x,sounds/greatgatsby_spanish.wav,,,,,,,,,0,1,1,0,0,146,146,159,904.286584026,9.62149351835e-06,905.502392073,1.21581830957,,,,,x,1,1.20036581054,2018_Nov_13_1539,59.9898221289,spanish_cond2,001,1008,
images/hairpin.jpg,hair pin,z,sounds/greatgatsby_spanish.wav,,,,,,,,,0,1,1,0,0,147,147,28,906.592344405,8.98004509509e-06,907.403016414,0.810681310133,,,,,z,1,0.800440473598,2018_Nov_13_1539,59.9898221289,spanish_cond2,001,1008,
images/paperclip04.jpg,eye drops,x,sounds/greatgatsby_spanish.wav,,,,,,,,,0,1,1,0,0,148,148,174,908.508284619,9.30076930672e-06,909.370363505,0.862088507158,,,,,x,1,0.850651073037,2018_Nov_13_1539,59.9898221289,spanish_cond2,001,1008,
images/hand01a.jpg,cupcake,x,sounds/greatgatsby_spanish.wav,,,,,,,,,0,1,1,0,0,149,149,163,910.48103452,8.98004509509e-06,911.253772682,0.772747784038,,,,,x,1,0.750256814645,2018_Nov_13_1539,59.9898221289,spanish_cond2,001,1008,
images/bat.jpg,hand,x,sounds/greatgatsby_spanish.wav,,,,,,,,,0,1,1,0,0,150,150,185,912.43131526,9.30076930672e-06,913.70453498,1.27322966233,,,,,x,1,1.25054626237,2018_Nov_13_1539,59.9898221289,spanish_cond2,001,1008,
images/doll.jpg,carrot,x,sounds/greatgatsby_spanish.wav,,,,,,,,,0,1,1,0,0,151,151,146,914.852874288,8.98016151041e-06,915.771698717,0.918833729345,,,,,x,1,0.900465585873,2018_Nov_13_1539,59.9898221289,spanish_cond2,001,1008,
images/calculator02b.jpg,dice,x,sounds/greatgatsby_spanish.wav,,,,,,,,,0,1,1,0,0,152,152,165,916.871403752,9.30088572204e-06,917.938899752,1.0675062628,,,,,x,1,1.05050982884,2018_Nov_13_1539,59.9898221289,spanish_cond2,001,1008,
images/bottleofredwine02.jpg,pipe,x,sounds/greatgatsby_spanish.wav,,,,,,,,,0,1,1,0,0,153,153,213,919.036192671,9.62149351835e-06,919.739600328,0.703434277093,,,,,x,1,0.683939452283,2018_Nov_13_1539,59.9898221289,spanish_cond2,001,1008,
images/fork01.jpg,cooking pot,x,sounds/greatgatsby_spanish.wav,,,,,,,,,0,1,1,0,0,154,154,160,920.831846433,9.30076930672e-06,921.623110853,0.791274362011,,,,,x,1,0.76710251125,2018_Nov_13_1539,59.9898221289,spanish_cond2,001,1008,
images/cocktailshrimp01.jpg,cocktail shrimp,z,sounds/greatgatsby_spanish.wav,,,,,,,,,0,1,1,0,0,155,155,30,922.736021439,9.30076930672e-06,923.64026059,0.904248771723,,,,,z,1,0.883796283975,2018_Nov_13_1539,59.9898221289,spanish_cond2,001,1008,
images/floorlamp.jpg,floor lamp,z,sounds/greatgatsby_spanish.wav,,,,,,,,,0,1,1,0,0,156,156,26,924.732140114,9.30076930672e-06,925.440696253,0.708565760055,,,,,z,1,0.700423700153,2018_Nov_13_1539,59.9898221289,spanish_cond2,001,1008,
images/baseball01a.jpg,baseball,z,sounds/greatgatsby_spanish.wav,,,,,,,,,0,1,1,0,0,157,157,74,926.6455829,9.30088572204e-06,928.007989398,1.36241676181,,,,,z,1,1.35057137464,2018_Nov_13_1539,59.9898221289,spanish_cond2,001,1008,
images/feather03b.jpg,feather,z,sounds/greatgatsby_spanish.wav,,,,,,,,,0,1,1,0,0,158,158,114,929.107149856,9.30076930672e-06,929.941777552,0.834637638764,,,,,z,1,0.817111379118,2018_Nov_13_1539,59.9898221289,spanish_cond2,001,1008,
images/wallet01.jpg,lamp,x,sounds/greatgatsby_spanish.wav,,,,,,,,,0,1,1,0,0,159,159,193,931.044866801,8.65943729877e-06,932.309031057,1.26417387777,,,,,x,1,1.25054465886,2018_Nov_13_1539,59.9898221289,spanish_cond2,001,1008,
images/screwdriver02b.jpg,cola,x,sounds/greatgatsby_spanish.wav,,,,,,,,,0,1,1,0,0,160,160,158,933.401244128,9.30076930672e-06,934.259480174,0.858245988493,,,,,x,1,0.833781963913,2018_Nov_13_1539,59.9898221289,spanish_cond2,001,1008,
images/cat.jpg,black olive,x,sounds/greatgatsby_spanish.wav,,,,,,,,,0,1,1,0,0,161,161,133,935.38846,9.30076930672e-06,936.6600617,1.27161196235,,,,,x,1,1.25055139384,2018_Nov_13_1539,59.9898221289,spanish_cond2,001,1008,
images/masquerademask02b.jpg,mirror,x,sounds/greatgatsby_spanish.wav,,,,,,,,,0,1,1,0,0,162,162,204,937.763387638,8.98004509509e-06,938.860593321,1.09721594595,,,,,x,1,1.08384362189,2018_Nov_13_1539,59.9898221289,spanish_cond2,001,1008,
images/radio03a.jpg,radio,z,sounds/greatgatsby_spanish.wav,,,,,,,,,0,1,1,0,0,163,163,37,940.058086143,9.30076930672e-06,942.061356501,2.00327997981,,,,,x,0,1.98404172924,2018_Nov_13_1539,59.9898221289,spanish_cond2,001,1008,
images/corn01.jpg,corn,z,sounds/greatgatsby_spanish.wav,,,,,,,,,0,1,1,0,0,164,164,22,943.159186942,9.62149351835e-06,943.945136749,0.78595974925,,,,,x,0,0.76708807901,2018_Nov_13_1539,59.9898221289,spanish_cond2,001,1008,
images/bus.jpg,microphone,x,sounds/greatgatsby_spanish.wav,,,,,,,,,0,1,1,0,0,165,165,203,945.062202554,8.98004509509e-06,946.195692633,1.13350002095,,,,,x,1,1.11719248863,2018_Nov_13_1539,59.9898221289,spanish_cond2,001,1008,
images/volleyball.jpg,volley ball,z,sounds/greatgatsby_spanish.wav,,,,,,,,,0,1,1,0,0,166,166,2,947.326471685,9.30076930672e-06,948.279515729,0.953053986072,,,,,z,1,0.93380066182,2018_Nov_13_1539,59.9898221289,spanish_cond2,001,1008,
images/parkbench03.jpg,park bench,z,sounds/greatgatsby_spanish.wav,,,,,,,,,0,1,1,0,0,167,167,71,949.383314406,9.62149351835e-06,950.380023201,0.996718737297,,,,,z,1,0.983816585387,2018_Nov_13_1539,59.9898221289,spanish_cond2,001,1008,
images/lettuce.jpg,mushroom,x,sounds/greatgatsby_spanish.wav,,,,,,,,,0,1,1,0,0,168,168,205,951.501959746,8.98016151041e-06,952.513881784,1.01193198096,,,,,x,1,1.0004999988,2018_Nov_13_1539,59.9898221289,spanish_cond2,001,1008,
images/croissant02b.jpg,croissant,z,sounds/greatgatsby_spanish.wav,,,,,,,,,0,1,1,0,0,169,169,39,953.623863256,9.30076930672e-06,954.831090501,1.20723782852,,,,,z,1,1.18386296125,2018_Nov_13_1539,59.9898221289,spanish_cond2,001,1008,
images/lychee02a.jpg,lychee,z,sounds/greatgatsby_spanish.wav,,,,,,,,,0,1,1,0,0,170,170,62,955.953212421,9.62149351835e-06,956.948276255,0.995074096951,,,,,z,1,0.983827169053,2018_Nov_13_1539,59.9898221289,spanish_cond2,001,1008,
images/cigar.jpg,crocodile,x,sounds/greatgatsby_spanish.wav,,,,,,,,,0,1,1,0,0,171,171,162,958.111584419,9.62160993367e-06,959.332173404,1.22059924819,,,,,x,1,1.20053579099,2018_Nov_13_1539,59.9898221289,spanish_cond2,001,1008,
images/parkingmeter.jpg,ear,x,sounds/greatgatsby_spanish.wav,,,,,,,,,0,1,1,0,0,172,172,171,960.432522762,9.30076930672e-06,962.516304165,2.08379102417,,,,,x,1,2.06743538426,2018_Nov_13_1539,59.9898221289,spanish_cond2,001,1008,
images/cockroach02.jpg,belt,x,sounds/greatgatsby_spanish.wav,,,,,,,,,0,1,1,0,0,173,173,129,963.614168281,9.30088572204e-06,964.36672849,0.752570151468,,,,,x,1,0.733762303833,2018_Nov_13_1539,59.9898221289,spanish_cond2,001,1008,
images/orange.jpg,bat,x,sounds/greatgatsby_spanish.wav,,,,,,,,,0,1,1,0,0,174,174,128,965.490195821,9.62149351835e-06,966.417219397,0.927033839165,,,,,x,1,0.917144829989,2018_Nov_13_1539,59.9898221289,spanish_cond2,001,1008,
images/chessknight02b (1).jpg,cockroach,x,sounds/greatgatsby_spanish.wav,,,,,,,,,0,1,1,0,0,175,175,155,967.524762132,9.30076930672e-06,968.751116659,1.22636479011,,,,,x,1,1.21721824224,2018_Nov_13_1539,59.9898221289,spanish_cond2,001,1008,
images/rhinoceros01.jpg,envelope,x,sounds/greatgatsby_spanish.wav,,,,,,,,,0,1,1,0,0,176,176,173,969.862383247,8.98004509509e-06,970.801445282,0.939072298468,,,,,x,1,0.916907178238,2018_Nov_13_1539,59.9898221289,spanish_cond2,001,1008,
images/licenseplate.jpg,license plate,z,sounds/greatgatsby_spanish.wav,,,,,,,,,0,1,1,0,0,177,177,40,971.917828921,8.98004509509e-06,973.08551424,1.16769494105,,,,,z,1,1.15053911041,2018_Nov_13_1539,59.9898221289,spanish_cond2,001,1008,
images/flamingo.jpg,flamingo,z,sounds/greatgatsby_spanish.wav,,,,,,,,,0,1,1,0,0,178,178,52,974.18240562,9.94233414531e-06,976.352933781,2.17053810344,,,,,z,1,2.15075880196,2018_Nov_13_1539,59.9898221289,spanish_cond2,001,1008,
images/candy.jpg,candy,z,sounds/greatgatsby_spanish.wav,,,,,,,,,0,1,1,0,0,179,179,31,977.453541958,9.30076930672e-06,978.203387292,0.749856238253,,,,,z,1,0.733764548902,2018_Nov_13_1539,59.9898221289,spanish_cond2,001,1008,
images/ceilingfan02.jpg,paper clip,x,sounds/greatgatsby_spanish.wav,,,,,,,,,0,1,1,0,0,180,180,208,979.300096183,9.62149351835e-06,980.103851595,0.803767598933,,,,,x,1,0.78378079331,2018_Nov_13_1539,59.9898221289,spanish_cond2,001,1008,
images/computerkeyboard01a.jpg,computer keyboard,z,sounds/greatgatsby_spanish.wav,,,,,,,,,0,1,1,0,0,181,181,61,981.219488924,9.62149351835e-06,982.637772462,1.41829380114,,,,,z,1,1.40057126235,2018_Nov_13_1539,59.9898221289,spanish_cond2,001,1008,
images/key03b.jpg,cigar,x,sounds/greatgatsby_spanish.wav,,,,,,,,,0,1,1,0,0,182,182,153,983.738165116,8.98004509509e-06,984.521562652,0.783407798619,,,,,x,1,0.767087116838,2018_Nov_13_1539,59.9898221289,spanish_cond2,001,1008,
images/squirrel.jpg,binder,x,sounds/greatgatsby_spanish.wav,,,,,,,,,0,1,1,0,0,183,183,132,985.622808095,9.30076930672e-06,986.472057952,0.849260441028,,,,,x,1,0.833800886176,2018_Nov_13_1539,59.9898221289,spanish_cond2,001,1008,
images/boxingglove02a.jpg,bracelet,x,sounds/greatgatsby_spanish.wav,,,,,,,,,0,1,1,0,0,184,184,135,987.581994203,9.30076930672e-06,989.706155887,2.12417162629,,,,,x,1,2.1007608386,2018_Nov_13_1539,59.9898221289,spanish_cond2,001,1008,
images/drink.jpg,drink,z,sounds/greatgatsby_spanish.wav,,,,,,,,,0,1,1,0,0,185,185,117,990.880044208,9.30076930672e-06,991.673291946,0.793257680256,,,,,z,1,0.783774699667,2018_Nov_13_1539,59.9898221289,spanish_cond2,001,1008,
images/arrow02.jpg,hammer,x,sounds/greatgatsby_spanish.wav,,,,,,,,,0,1,1,0,0,186,186,184,992.824215276,8.98004509509e-06,993.607091645,0.782886311645,,,,,x,1,0.767099945573,2018_Nov_13_1539,59.9898221289,spanish_cond2,001,1008,
images/lightswitch02a.jpg,fork,x,sounds/greatgatsby_spanish.wav,,,,,,,,,0,1,1,0,0,187,187,177,994.719360155,9.30088572204e-06,995.740932269,1.02158173476,,,,,x,1,1.00048364233,2018_Nov_13_1539,59.9898221289,spanish_cond2,001,1008,
images/diploma01.jpg,glasses,x,sounds/greatgatsby_spanish.wav,,,,,,,,,0,1,1,0,0,188,188,179,996.870432299,9.30076930672e-06,997.641391119,0.770968442317,,,,,x,1,0.750422625802,2018_Nov_13_1539,59.9898221289,spanish_cond2,001,1008,
images/hat05.jpg,hat,z,sounds/greatgatsby_spanish.wav,,,,,,,,,0,1,1,0,0,189,189,15,998.743873571,8.98004509509e-06,999.491837254,0.747973946156,,,,,z,1,0.733749154489,2018_Nov_13_1539,59.9898221289,spanish_cond2,001,1008,
images/sportshorts02.jpg,tape,x,sounds/greatgatsby_spanish.wav,,,,,,,,,0,1,1,0,0,190,190,230,1000.59823086,8.98004509509e-06,1002.52590677,1.92768617894,,,,,x,1,1.91738600971,2018_Nov_13_1539,59.9898221289,spanish_cond2,001,1008,
images/donut.jpg,rhinoceros,x,sounds/greatgatsby_spanish.wav,,,,,,,,,0,1,1,0,0,191,191,216,1003.65000303,8.98016151041e-06,1004.50971951,0.859726421419,,,,,x,1,0.850464735995,2018_Nov_13_1539,59.9898221289,spanish_cond2,001,1008,
images/chameleon.jpg,50 dollar bill,x,sounds/greatgatsby_spanish.wav,,,,,,,,,0,1,1,0,0,192,192,120,1005.61833697,9.30088572204e-06,1006.4101681,0.791841391008,,,,,x,1,0.767089682631,2018_Nov_13_1539,59.9898221289,spanish_cond2,001,1008,
images/headphones02b.jpg,headphones,z,sounds/greatgatsby_spanish.wav,,,,,,,,,0,1,1,0,0,193,193,101,1007.51664541,9.62149351835e-06,1008.42735215,0.910717006074,,,,,z,1,0.900493809022,2018_Nov_13_1539,59.9898221289,spanish_cond2,001,1008,
images/pouch01b.jpg,pouch,z,sounds/greatgatsby_spanish.wav,,,,,,,,,0,1,1,0,0,194,194,25,1009.53831374,8.98004509509e-06,1010.49447997,0.956175851985,,,,,z,1,0.933807396796,2018_Nov_13_1539,59.9898221289,spanish_cond2,001,1008,
images/teapot.jpg,light switch,x,sounds/greatgatsby_spanish.wav,,,,,,,,,0,1,1,0,0,195,195,197,1011.60962756,9.62149351835e-06,1012.46177735,0.852159408154,,,,,x,1,0.833934625494,2018_Nov_13_1539,59.9898221289,spanish_cond2,001,1008,
images/dolphin01.jpg,dolphin,z,sounds/greatgatsby_spanish.wav,,,,,,,,,0,1,1,0,0,196,196,99,1013.56095705,9.62149351835e-06,1014.51217043,0.951224291697,,,,,z,1,0.933858390898,2018_Nov_13_1539,59.9898221289,spanish_cond2,001,1008,
images/antelope.jpg,antelope,z,sounds/greatgatsby_spanish.wav,,,,,,,,,0,1,1,0,0,197,197,12,1015.61639727,9.62149351835e-06,1016.56261131,0.946223982144,,,,,z,1,0.933805793291,2018_Nov_13_1539,59.9898221289,spanish_cond2,001,1008,
images/straw.jpg,straw,z,sounds/greatgatsby_spanish.wav,,,,,,,,,0,1,1,0,0,198,198,109,1017.65245556,9.30076930672e-06,1018.37971499,0.727269695024,,,,,z,1,0.71706381673,2018_Nov_13_1539,59.9898221289,spanish_cond2,001,1008,
images/corkscrew02a.jpg,masquerade mask,x,sounds/greatgatsby_spanish.wav,,,,,,,,,0,1,1,0,0,199,199,201,1019.48303516,8.98004509509e-06,1020.68026242,1.19723720953,,,,,x,1,1.18386039545,2018_Nov_13_1539,59.9898221289,spanish_cond2,001,1008,
images/kiwi03.jpg,backpack,x,sounds/greatgatsby_spanish.wav,,,,,,,,,0,1,1,0,0,200,200,125,1021.80705303,9.30076930672e-06,1023.21420959,1.40716682165,,,,,x,1,1.38391318556,2018_Nov_13_1539,59.9898221289,spanish_cond2,001,1008,
images/grandpiano.jpg,tulip,x,sounds/greatgatsby_spanish.wav,,,,,,,,,0,1,1,0,0,201,201,236,1024.32737194,9.30076930672e-06,1025.898184,1.57082232332,,,,,x,1,1.55061903328,2018_Nov_13_1539,59.9898221289,spanish_cond2,001,1008,
images/belt02a.jpg,snowman,x,sounds/greatgatsby_spanish.wav,,,,,,,,,0,1,1,0,0,202,202,224,1027.00058499,2.50159064308e-05,1028.39879,1.39823066466,,,,,x,1,1.38390388479,2018_Nov_13_1539,59.9898221289,spanish_cond2,001,1008,
images/lipstick04.jpg,lipstick,z,sounds/greatgatsby_spanish.wav,,,,,,,,,0,1,1,0,0,203,203,56,1029.49738984,9.30076930672e-06,1030.34926541,0.851885515265,,,,,z,1,0.833788699005,2018_Nov_13_1539,59.9898221289,spanish_cond2,001,1008,
images/hairdryer03a.jpg,hairdryer,z,sounds/greatgatsby_spanish.wav,,,,,,,,,0,1,1,0,0,204,204,119,1031.48746972,9.30076930672e-06,1032.36640938,0.878949598176,,,,,z,1,0.867086571641,2018_Nov_13_1539,59.9898221289,spanish_cond2,001,1008,
images/highheelshoe02a.jpg,high heel shoe,z,sounds/greatgatsby_spanish.wav,,,,,,,,,0,1,1,0,0,205,205,75,1033.47199766,9.62149351835e-06,1034.11683361,0.644845890347,,,,,z,1,0.633733663824,2018_Nov_13_1539,59.9898221289,spanish_cond2,001,1008,
images/printer03a.jpg,printer,z,sounds/greatgatsby_spanish.wav,,,,,,,,,0,1,1,0,0,206,206,72,1035.22513548,8.98004509509e-06,1036.10067424,0.875548387063,,,,,z,1,0.867158733075,2018_Nov_13_1539,59.9898221289,spanish_cond2,001,1008,
images/treadmill.jpg,lily,x,sounds/greatgatsby_spanish.wav,,,,,,,,,0,1,1,0,0,207,207,199,1037.20554829,9.30088572204e-06,1037.91775195,0.712214244646,,,,,x,1,0.700430114521,2018_Nov_13_1539,59.9898221289,spanish_cond2,001,1008,
images/acousticguitar02.jpg,acoustic guitar,z,sounds/greatgatsby_spanish.wav,,,,,,,,,0,1,1,0,0,208,208,97,1039.03090981,9.62149351835e-06,1039.81820599,0.787306442857,,,,,z,1,0.767087758402,2018_Nov_13_1539,59.9898221289,spanish_cond2,001,1008,
images/coin01b.jpg,arrow,x,sounds/greatgatsby_spanish.wav,,,,,,,,,0,1,1,0,0,209,209,124,1040.92051044,9.62149351835e-06,1041.70198976,0.781489906833,,,,,x,1,0.767101869918,2018_Nov_13_1539,59.9898221289,spanish_cond2,001,1008,
images/cauliflower01.jpg,glue stick,x,sounds/greatgatsby_spanish.wav,,,,,,,,,0,1,1,0,0,210,210,181,1042.81686379,9.62149351835e-06,1043.93585325,1.11900005362,,,,,x,1,1.10049817071,2018_Nov_13_1539,59.9898221289,spanish_cond2,001,1008,
images/screw03c.jpg,screw,z,sounds/greatgatsby_spanish.wav,,,,,,,,,0,1,1,0,0,211,211,84,1045.0293787,9.62149351835e-06,1045.88632675,0.856958627701,,,,,z,1,0.833775228821,2018_Nov_13_1539,59.9898221289,spanish_cond2,001,1008,
images/ruler02b.jpg,watermelon,x,sounds/greatgatsby_spanish.wav,,,,,,,,,0,1,1,0,0,212,212,238,1046.98728098,9.30088572204e-06,1048.33693061,1.34965989494,,,,,x,1,1.3339001484,2018_Nov_13_1539,59.9898221289,spanish_cond2,001,1008,
images/beermug01b.jpg,beer mug,z,sounds/greatgatsby_spanish.wav,,,,,,,,,0,1,1,0,0,213,213,111,1049.53384582,9.30088572204e-06,1050.98756321,1.4537276536,,,,,z,1,1.43393199565,2018_Nov_13_1539,59.9898221289,spanish_cond2,001,1008,
images/pipe.jpg,icecube,x,sounds/greatgatsby_spanish.wav,,,,,,,,,0,1,1,0,0,214,214,188,1052.09510883,8.98016151041e-06,1053.57134766,1.47624844976,,,,,x,1,1.4671047884,2018_Nov_13_1539,59.9898221289,spanish_cond2,001,1008,
,,,sounds/greatgatsby_spanish.wav,,,,,,,,,0,1,1,0,,,,,,,,,,,,,,,,2018_Nov_13_1539,59.9898221289,spanish_cond2,001,1008,
