images,name,corrAns,sounds,trials_3.thisRepN,trials_3.thisTrialN,trials_3.thisN,trials_3.thisIndex,trials_4.thisRepN,trials_4.thisTrialN,trials_4.thisN,trials_4.thisIndex,trials_2.thisRepN,trials_2.thisTrialN,trials_2.thisN,trials_2.thisIndex,trials.thisRepN,trials.thisTrialN,trials.thisN,trials.thisIndex,begin_global,begin_routine,end_global,end_routine,key_resp_2.keys,key_resp_2.corr,begin_book,key_resp_1.keys,key_resp_1.corr,key_resp_1.rt,date,frameRate,expName,session,participant,
images/volleyball.jpg,volley ball,z,,0,0,0,0,,,,,,,,,,,,,,,,,,,,,,,2018_Nov_13_1540,59.9680734108,chinese_cond2,001,1010,
images/puma.jpg,puma,z,,,,,,0,0,0,0,,,,,,,,,48.2470934875,1.05836661533e-05,51.0154217546,2.76833917142,None,0,,,,,2018_Nov_13_1540,59.9680734108,chinese_cond2,001,1010,
images/hairpin.jpg,hair pin,z,sounds/greatgatsby_chinese.wav,,,,,,,,,0,0,0,0,0,0,0,28,93.2724575192,9.94221772999e-06,96.0097107182,2.73726378265,,,83.0118059729,None,0,,2018_Nov_13_1540,59.9680734108,chinese_cond2,001,1010,
images/lamp04b.jpg,parking meter,x,sounds/greatgatsby_chinese.wav,,,,,,,,,0,0,0,0,0,1,1,209,97.241393997,8.98016151041e-06,98.6272233016,1.38583892607,,,,z,0,1.36722153123,2018_Nov_13_1540,59.9680734108,chinese_cond2,001,1010,
images/squirrel.jpg,binder,x,sounds/greatgatsby_chinese.wav,,,,,,,,,0,0,0,0,0,2,2,132,99.7667904212,9.62160993367e-06,102.76143859,2.99465907295,,,,None,0,,2018_Nov_13_1540,59.9680734108,chinese_cond2,001,1010,
images/showerhead01.jpg,skateboard,x,sounds/greatgatsby_chinese.wav,,,,,,,,,0,0,0,0,0,3,3,223,103.944776103,9.62160993367e-06,106.229084496,2.28431833512,,,,x,1,2.2674610439,2018_Nov_13_1540,59.9680734108,chinese_cond2,001,1010,
images/tent.jpg,tent,z,sounds/greatgatsby_chinese.wav,,,,,,,,,0,0,0,0,0,4,4,11,107.441399257,9.30088572204e-06,109.896652916,2.45526360185,,,,z,1,2.43417122145,2018_Nov_13_1540,59.9680734108,chinese_cond2,001,1010,
images/icecube02 (2).jpg,aloe,x,sounds/greatgatsby_chinese.wav,,,,,,,,,0,0,0,0,0,5,5,122,111.099930789,8.98016151041e-06,113.74757681,2.64765564317,,,,x,1,2.63421176025,2018_Nov_13_1540,59.9680734108,chinese_cond2,001,1010,
images/eraser.jpg,eraser,z,sounds/greatgatsby_chinese.wav,,,,,,,,,0,0,0,0,0,6,6,110,114.960040385,8.98016151041e-06,116.915027848,1.95499708469,,,,z,1,1.9340499898,2018_Nov_13_1540,59.9680734108,chinese_cond2,001,1010,
images/seagull.jpg,seagull,z,sounds/greatgatsby_chinese.wav,,,,,,,,,0,0,0,0,0,7,7,50,118.115550748,9.30076930672e-06,119.765708317,1.65016719059,,,,x,0,1.63396352401,2018_Nov_13_1540,59.9680734108,chinese_cond2,001,1010,
images/paintbrush03a.jpg,paint brush,z,sounds/greatgatsby_chinese.wav,,,,,,,,,0,0,0,0,0,8,8,0,120.960193688,8.98016151041e-06,122.949831591,1.98964720313,,,,x,0,1.9673922176,2018_Nov_13_1540,59.9680734108,chinese_cond2,001,1010,
images/kiwi03.jpg,backpack,x,sounds/greatgatsby_chinese.wav,,,,,,,,,0,0,0,0,0,9,9,125,124.137900986,8.65943729877e-06,126.250618506,2.11272649956,,,,x,1,2.10073611338,2018_Nov_13_1540,59.9680734108,chinese_cond2,001,1010,
images/candle08a.jpg,screw driver,x,sounds/greatgatsby_chinese.wav,,,,,,,,,0,0,0,0,0,10,10,221,127.517517651,1.05836661533e-05,129.051303432,1.53379668621,,,,x,1,1.51721809956,2018_Nov_13_1540,59.9680734108,chinese_cond2,001,1010,
images/crocodile.jpg,triangle ruler,x,sounds/greatgatsby_chinese.wav,,,,,,,,,0,0,0,0,0,11,11,235,130.24640298,9.62160993367e-06,131.568597542,1.322204825,,,,x,1,1.30056080862,2018_Nov_13_1540,59.9680734108,chinese_cond2,001,1010,
images/doll.jpg,carrot,x,sounds/greatgatsby_chinese.wav,,,,,,,,,0,0,0,0,0,12,12,146,132.719927338,9.30076930672e-06,133.869137825,1.1492197878,,,,x,1,1.1338333122,2018_Nov_13_1540,59.9680734108,chinese_cond2,001,1010,
images/banjo.jpg,knife,x,sounds/greatgatsby_chinese.wav,,,,,,,,,0,0,0,0,0,13,13,191,135.032175774,9.62160993367e-06,136.053017994,1.02085248299,,,,z,0,1.00048492651,2018_Nov_13_1540,59.9680734108,chinese_cond2,001,1010,
images/croissant02b.jpg,croissant,z,sounds/greatgatsby_chinese.wav,,,,,,,,,0,0,0,0,0,14,14,39,137.263190034,9.30076930672e-06,138.820355882,1.55717514886,,,,x,0,1.53395191405,2018_Nov_13_1540,59.9680734108,chinese_cond2,001,1010,
images/flower01.jpg,bus,x,sounds/greatgatsby_chinese.wav,,,,,,,,,0,0,0,0,0,15,15,140,140.011013477,9.30088572204e-06,140.870856235,0.859853021102,,,,x,1,0.850449551363,2018_Nov_13_1540,59.9680734108,chinese_cond2,001,1010,
images/belt02a.jpg,snowman,x,sounds/greatgatsby_chinese.wav,,,,,,,,,0,0,0,0,0,16,16,224,142.051303753,9.62160993367e-06,143.254777585,1.20348377386,,,,x,1,1.18387279275,2018_Nov_13_1540,59.9680734108,chinese_cond2,001,1010,
images/backpack01b.jpg,swallow,x,sounds/greatgatsby_chinese.wav,,,,,,,,,0,0,0,0,0,17,17,228,144.406741762,9.30076930672e-06,145.955529798,1.54880535521,,,,x,1,1.53397628863,2018_Nov_13_1540,59.9680734108,chinese_cond2,001,1010,
images/corn01.jpg,corn,z,sounds/greatgatsby_chinese.wav,,,,,,,,,0,0,0,0,0,18,18,22,147.138776548,9.30088572204e-06,149.022840938,1.88407401158,,,,x,0,1.86735430884,2018_Nov_13_1540,59.9680734108,chinese_cond2,001,1010,
images/apricot.jpg,apricot,z,sounds/greatgatsby_chinese.wav,,,,,,,,,0,0,0,0,0,19,19,32,150.222252869,9.30088572204e-06,151.573455147,1.3512115787,,,,x,0,1.33389758435,2018_Nov_13_1540,59.9680734108,chinese_cond2,001,1010,
images/lipstick04.jpg,lipstick,z,sounds/greatgatsby_chinese.wav,,,,,,,,,0,0,0,0,0,20,20,56,152.815758381,9.30076930672e-06,153.824003415,1.00825497636,,,,x,0,0.983812690014,2018_Nov_13_1540,59.9680734108,chinese_cond2,001,1010,
images/tie01.jpg,bench,x,sounds/greatgatsby_chinese.wav,,,,,,,,,0,0,0,0,0,21,21,130,154.987881006,9.62160993367e-06,156.407965624,1.42009456072,,,,x,1,1.40057658788,2018_Nov_13_1540,59.9680734108,chinese_cond2,001,1010,
images/marker01a.jpg,marker,z,sounds/greatgatsby_chinese.wav,,,,,,,,,0,0,0,0,0,22,22,95,157.579911854,8.98004509509e-06,159.3086798,1.72877724736,,,,x,0,1.71732983796,2018_Nov_13_1540,59.9680734108,chinese_cond2,001,1010,
images/triangleruler02.jpg,bottle of red wine,x,sounds/greatgatsby_chinese.wav,,,,,,,,,0,0,0,0,0,23,23,134,160.47799293,9.30088572204e-06,161.759271173,1.28128754417,,,,x,1,1.26721409056,2018_Nov_13_1540,59.9680734108,chinese_cond2,001,1010,
images/cola.jpg,comb,x,sounds/greatgatsby_chinese.wav,,,,,,,,,0,0,0,0,0,24,24,157,162.965882274,9.62149351835e-06,164.009820083,1.04394775105,,,,x,1,1.03382490936,2018_Nov_13_1540,59.9680734108,chinese_cond2,001,1010,
images/lighter02b.jpg,stapler,x,sounds/greatgatsby_chinese.wav,,,,,,,,,0,0,0,0,0,25,25,227,165.191397493,9.30088572204e-06,166.110331373,0.918943180935,,,,z,0,0.90045792202,2018_Nov_13_1540,59.9680734108,chinese_cond2,001,1010,
images/pepper05a.jpg,lighter,x,sounds/greatgatsby_chinese.wav,,,,,,,,,0,0,0,0,0,26,26,198,167.294394993,9.62160993367e-06,168.377548991,1.08316394046,,,,x,1,1.06716713728,2018_Nov_13_1540,59.9680734108,chinese_cond2,001,1010,
images/djmixer01.jpg,light bulb,x,sounds/greatgatsby_chinese.wav,,,,,,,,,0,0,0,0,0,27,27,196,169.564551356,8.98016151041e-06,171.128230679,1.56368894398,,,,z,0,1.55063601711,2018_Nov_13_1540,59.9680734108,chinese_cond2,001,1010,
images/cocktailshrimp01.jpg,cocktail shrimp,z,sounds/greatgatsby_chinese.wav,,,,,,,,,0,0,0,0,0,28,28,30,172.294632004,8.98004509509e-06,174.062282272,1.76765988942,,,,z,1,1.75068264955,2018_Nov_13_1540,59.9680734108,chinese_cond2,001,1010,
images/coin01b.jpg,arrow,x,sounds/greatgatsby_chinese.wav,,,,,,,,,0,0,0,0,0,29,29,124,175.244906187,9.62160993367e-06,176.512874607,1.26797868381,,,,x,1,1.25055468292,2018_Nov_13_1540,59.9680734108,chinese_cond2,001,1010,
images/highlighter03b.jpg,coin,x,sounds/greatgatsby_chinese.wav,,,,,,,,,0,0,0,0,0,30,30,156,177.644431138,8.98016151041e-06,179.180172983,1.53575114545,,,,x,1,1.51726845244,2018_Nov_13_1540,59.9680734108,chinese_cond2,001,1010,
images/dresser02.jpg,dresser,z,sounds/greatgatsby_chinese.wav,,,,,,,,,0,0,0,0,0,31,31,87,180.396216418,9.30088572204e-06,182.064216526,1.66801005008,,,,x,0,1.65063768486,2018_Nov_13_1540,59.9680734108,chinese_cond2,001,1010,
images/mailbox01.jpg,mail box,z,sounds/greatgatsby_chinese.wav,,,,,,,,,0,0,0,0,0,32,32,73,183.262461041,9.30088572204e-06,184.56482076,1.30236934079,,,,z,1,1.28388728923,2018_Nov_13_1540,59.9680734108,chinese_cond2,001,1010,
images/cheetah.jpg,cheetah,z,sounds/greatgatsby_chinese.wav,,,,,,,,,0,0,0,0,0,33,33,82,185.701584478,9.30088572204e-06,187.03209335,1.33051849296,,,,x,0,1.3172272722,2018_Nov_13_1540,59.9680734108,chinese_cond2,001,1010,
images/leaf01a.jpg,leaf,z,sounds/greatgatsby_chinese.wav,,,,,,,,,0,0,0,0,0,34,34,68,188.169685484,9.30076930672e-06,189.165951999,0.996276456863,,,,z,1,0.983824556577,2018_Nov_13_1540,59.9680734108,chinese_cond2,001,1010,
images/treadmill.jpg,lily,x,sounds/greatgatsby_chinese.wav,,,,,,,,,0,0,0,0,0,35,35,199,190.369844689,8.98016151041e-06,191.599867607,1.23003286088,,,,x,1,1.21716434706,2018_Nov_13_1540,59.9680734108,chinese_cond2,001,1010,
images/spoon02b.jpg,spoon,z,sounds/greatgatsby_chinese.wav,,,,,,,,,0,0,0,0,0,36,36,38,192.725478656,9.30076930672e-06,193.800406543,1.07493750798,,,,z,1,1.05049874948,2018_Nov_13_1540,59.9680734108,chinese_cond2,001,1010,
images/screwdriver02b.jpg,cola,x,sounds/greatgatsby_chinese.wav,,,,,,,,,0,0,0,0,0,37,37,158,194.921803029,9.30088572204e-06,195.984287995,1.06249458785,,,,x,1,1.0505154269,2018_Nov_13_1540,59.9680734108,chinese_cond2,001,1010,
images/cigar.jpg,crocodile,x,sounds/greatgatsby_chinese.wav,,,,,,,,,0,0,0,0,0,38,38,162,197.131269488,9.94233414531e-06,198.034764615,0.903505069669,,,,x,1,0.883743350743,2018_Nov_13_1540,59.9680734108,chinese_cond2,001,1010,
images/beachumbrella01.jpg,beach umbrella,z,sounds/greatgatsby_chinese.wav,,,,,,,,,0,0,0,0,0,39,39,92,199.205577104,1.18665629998e-05,200.185291973,0.979725452024,,,,x,0,0.967144943657,2018_Nov_13_1540,59.9680734108,chinese_cond2,001,1010,
images/calculator02b.jpg,dice,x,sounds/greatgatsby_chinese.wav,,,,,,,,,0,0,0,0,0,40,40,165,201.351932875,9.30088572204e-06,202.669224611,1.31730167882,,,,z,0,1.30054894194,2018_Nov_13_1540,59.9680734108,chinese_cond2,001,1010,
images/parrot01.jpg,chameleon,x,sounds/greatgatsby_chinese.wav,,,,,,,,,0,0,0,0,0,41,41,150,203.830084561,8.98016151041e-06,205.153176493,1.32310123357,,,,x,1,1.30055824271,2018_Nov_13_1540,59.9680734108,chinese_cond2,001,1010,
images/redfox.jpg,red fox,z,sounds/greatgatsby_chinese.wav,,,,,,,,,0,0,0,0,0,42,42,1,206.348770589,1.02630583569e-05,207.787143225,1.43838289834,,,,x,0,1.417250428,2018_Nov_13_1540,59.9680734108,chinese_cond2,001,1010,
images/razor04a.jpg,razor,z,sounds/greatgatsby_chinese.wav,,,,,,,,,0,0,0,0,0,43,43,36,208.962741477,8.98016151041e-06,210.304426109,1.34169425385,,,,x,0,1.3172327244,2018_Nov_13_1540,59.9680734108,chinese_cond2,001,1010,
images/envelope02a.jpg,grand piano,x,sounds/greatgatsby_chinese.wav,,,,,,,,,0,0,0,0,0,44,44,182,211.484775167,9.62149351835e-06,212.688334951,1.20356908499,,,,z,0,1.18386092607,2018_Nov_13_1540,59.9680734108,chinese_cond2,001,1010,
images/flamingo.jpg,flamingo,z,sounds/greatgatsby_chinese.wav,,,,,,,,,0,0,0,0,0,45,45,52,213.831333118,9.30088572204e-06,214.788835657,0.957512160065,,,,z,1,0.933792452677,2018_Nov_13_1540,59.9680734108,chinese_cond2,001,1010,
images/nailpolish02b.jpg,nail polish,z,sounds/greatgatsby_chinese.wav,,,,,,,,,0,0,0,0,0,46,46,94,216.02023542,9.30088572204e-06,217.272792349,1.25256719219,,,,z,1,1.23387891846,2018_Nov_13_1540,59.9680734108,chinese_cond2,001,1010,
images/cloud.jpg,ceiling fan,x,sounds/greatgatsby_chinese.wav,,,,,,,,,0,0,0,0,0,47,47,149,218.417230864,8.98016151041e-06,219.773390169,1.3561682849,,,,z,0,1.33389149059,2018_Nov_13_1540,59.9680734108,chinese_cond2,001,1010,
images/coffeepot03b.jpg,coffee pot,z,sounds/greatgatsby_chinese.wav,,,,,,,,,0,0,0,0,0,48,48,107,220.935886104,9.30088572204e-06,222.474049695,1.53817289171,,,,z,1,1.51727743249,2018_Nov_13_1540,59.9680734108,chinese_cond2,001,1010,
images/axe01.jpg,axe,z,sounds/greatgatsby_chinese.wav,,,,,,,,,0,0,0,0,0,49,49,104,223.604372421,9.30088572204e-06,224.774638085,1.17027528561,,,,x,0,1.15054660069,2018_Nov_13_1540,59.9680734108,chinese_cond2,001,1010,
images/electricguitar02.jpg,electric guitar,z,sounds/greatgatsby_chinese.wav,,,,,,,,,0,0,0,0,0,50,50,100,225.950677646,9.62149351835e-06,227.141863144,1.19119544013,,,,z,1,1.1671874068,2018_Nov_13_1540,59.9680734108,chinese_cond2,001,1010,
images/lollipop03b.jpg,lollipop,z,sounds/greatgatsby_chinese.wav,,,,,,,,,0,0,0,0,0,51,51,42,228.338102847,9.30088572204e-06,229.642461605,1.30436805927,,,,z,1,1.28385842463,2018_Nov_13_1540,59.9680734108,chinese_cond2,001,1010,
images/hat05.jpg,hat,z,sounds/greatgatsby_chinese.wav,,,,,,,,,0,0,0,0,0,52,52,15,230.834157046,8.65943729877e-06,231.6262945,0.792146755732,,,,z,1,0.783780489932,2018_Nov_13_1540,59.9680734108,chinese_cond2,001,1010,
images/corkscrew02a.jpg,masquerade mask,x,sounds/greatgatsby_chinese.wav,,,,,,,,,0,0,0,0,0,53,53,201,232.802795255,9.30088572204e-06,234.410286344,1.60750038968,,,,z,0,1.58396124688,2018_Nov_13_1540,59.9680734108,chinese_cond2,001,1010,
images/bull.jpg,button,x,sounds/greatgatsby_chinese.wav,,,,,,,,,0,0,0,0,0,54,54,141,235.597911224,1.02629419416e-05,236.644163338,1.04626269802,,,,z,0,1.03382138151,2018_Nov_13_1540,59.9680734108,chinese_cond2,001,1010,
images/cauliflower01.jpg,glue stick,x,sounds/greatgatsby_chinese.wav,,,,,,,,,0,0,0,0,0,55,55,181,237.83130265,9.30076930672e-06,238.961395421,1.13010271336,,,,x,1,1.11717422528,2018_Nov_13_1540,59.9680734108,chinese_cond2,001,1010,
images/daisy.jpg,daisy,z,sounds/greatgatsby_chinese.wav,,,,,,,,,0,0,0,0,0,56,56,6,240.109471206,9.62149351835e-06,240.978554188,0.869092924404,,,,x,0,0.850418120855,2018_Nov_13_1540,59.9680734108,chinese_cond2,001,1010,
images/bat.jpg,hand,x,sounds/greatgatsby_chinese.wav,,,,,,,,,0,0,0,0,0,57,57,185,242.14940356,8.98016151041e-06,243.579188633,1.42979469523,,,,z,0,1.41725203162,2018_Nov_13_1540,59.9680734108,chinese_cond2,001,1010,
images/panda.jpg,panda,z,sounds/greatgatsby_chinese.wav,,,,,,,,,0,0,0,0,0,58,58,83,244.786434757,8.98016151041e-06,245.996458304,1.21003381023,,,,z,1,1.20054053911,2018_Nov_13_1540,59.9680734108,chinese_cond2,001,1010,
images/clothespin02a.jpg,clothes pin,z,sounds/greatgatsby_chinese.wav,,,,,,,,,0,0,0,0,0,59,59,79,247.135425039,9.62160993367e-06,249.013840933,1.87842519465,,,,x,0,1.86735591234,2018_Nov_13_1540,59.9680734108,chinese_cond2,001,1010,
images/shotglass.jpg,shot glass,z,sounds/greatgatsby_chinese.wav,,,,,,,,,0,0,0,0,0,60,60,86,250.191196082,9.62160993367e-06,251.914556712,1.72337089386,,,,x,0,1.70065696002,2018_Nov_13_1540,59.9680734108,chinese_cond2,001,1010,
images/parkbench03.jpg,park bench,z,sounds/greatgatsby_chinese.wav,,,,,,,,,0,0,0,0,0,61,61,71,253.101810841,9.30088572204e-06,254.348664752,1.24686353235,,,,x,0,1.23406140727,2018_Nov_13_1540,59.9680734108,chinese_cond2,001,1010,
images/computerkeyboard01a.jpg,computer keyboard,z,sounds/greatgatsby_chinese.wav,,,,,,,,,0,0,0,0,0,62,62,61,255.508402186,8.65943729877e-06,257.08247183,1.574079265,,,,z,1,1.55061292532,2018_Nov_13_1540,59.9680734108,chinese_cond2,001,1010,
images/diploma01.jpg,glasses,x,sounds/greatgatsby_chinese.wav,,,,,,,,,0,0,0,0,0,63,63,179,258.28497645,9.94233414531e-06,261.016774225,2.73180771759,,,,x,1,2.71757326333,2018_Nov_13_1540,59.9680734108,chinese_cond2,001,1010,
images/rhinoceros01.jpg,envelope,x,sounds/greatgatsby_chinese.wav,,,,,,,,,0,0,0,0,0,64,64,173,262.189210192,9.30088572204e-06,263.450690475,1.26148990472,,,,x,1,1.25049791567,2018_Nov_13_1540,59.9680734108,chinese_cond2,001,1010,
images/radish01.jpg,raisin,x,sounds/greatgatsby_chinese.wav,,,,,,,,,0,0,0,0,0,65,65,214,264.598997498,9.62149351835e-06,265.534531132,0.935542934923,,,,x,1,0.917087502894,2018_Nov_13_1540,59.9680734108,chinese_cond2,001,1010,
images/peach01.jpg,peach,z,sounds/greatgatsby_chinese.wav,,,,,,,,,0,0,0,0,0,66,66,106,266.72823395,8.65943729877e-06,267.585030523,0.856805873569,,,,x,0,0.833772824844,2018_Nov_13_1540,59.9680734108,chinese_cond2,001,1010,
images/hairdryer03a.jpg,hairdryer,z,sounds/greatgatsby_chinese.wav,,,,,,,,,0,0,0,0,0,67,67,119,268.771927692,8.98016151041e-06,270.085651755,1.31373336352,,,,z,1,1.30056690215,2018_Nov_13_1540,59.9680734108,chinese_cond2,001,1010,
images/lantern03.jpg,lantern,z,sounds/greatgatsby_chinese.wav,,,,,,,,,0,0,0,0,0,68,68,5,271.233883408,9.30076930672e-06,272.66959889,1.43572542374,,,,x,0,1.4172449758,2018_Nov_13_1540,59.9680734108,chinese_cond2,001,1010,
images/bicycle.jpg,hand bag,x,sounds/greatgatsby_chinese.wav,,,,,,,,,0,0,0,0,0,69,69,186,273.848226971,9.62149351835e-06,274.820123361,0.971906332183,,,,x,1,0.950468858471,2018_Nov_13_1540,59.9680734108,chinese_cond2,001,1010,
images/acousticguitar02.jpg,acoustic guitar,z,sounds/greatgatsby_chinese.wav,,,,,,,,,0,0,0,0,0,70,70,97,276.047307599,9.30088572204e-06,278.104250548,2.05695321166,,,,z,1,2.03405839251,2018_Nov_13_1540,59.9680734108,chinese_cond2,001,1010,
images/pipe.jpg,icecube,x,sounds/greatgatsby_chinese.wav,,,,,,,,,0,0,0,0,0,71,71,188,279.272556301,9.30076930672e-06,280.638205348,1.36565866938,,,,x,1,1.35055570921,2018_Nov_13_1540,59.9680734108,chinese_cond2,001,1010,
images/mattress.jpg,cat,x,sounds/greatgatsby_chinese.wav,,,,,,,,,0,0,0,0,0,72,72,147,281.836097714,1.57152535394e-05,282.988781263,1.15269958484,,,,z,0,1.13384614105,2018_Nov_13_1540,59.9680734108,chinese_cond2,001,1010,
images/gps.jpg,gps,z,sounds/greatgatsby_chinese.wav,,,,,,,,,0,0,0,0,0,73,73,21,284.17137952,9.94221772999e-06,285.756117226,1.58474732831,,,,z,1,1.56728163396,2018_Nov_13_1540,59.9680734108,chinese_cond2,001,1010,
images/lettuce.jpg,mushroom,x,sounds/greatgatsby_chinese.wav,,,,,,,,,0,0,0,0,0,74,74,205,286.963597154,9.30088572204e-06,288.306739453,1.34315159917,,,,x,1,1.33389469783,2018_Nov_13_1540,59.9680734108,chinese_cond2,001,1010,
images/flashlight05.jpg,flash light,z,sounds/greatgatsby_chinese.wav,,,,,,,,,0,0,0,0,0,75,75,8,289.490601982,9.62160993367e-06,290.757356804,1.26676508458,,,,x,0,1.25054890988,2018_Nov_13_1540,59.9680734108,chinese_cond2,001,1010,
images/glasses01b.jpg,calculator,x,sounds/greatgatsby_chinese.wav,,,,,,,,,0,0,0,0,0,76,76,142,291.878428402,9.62149351835e-06,293.041081168,1.16266302927,,,,x,1,1.15036539477,2018_Nov_13_1540,59.9680734108,chinese_cond2,001,1010,
images/pictureframe04.jpg,picture frame,z,sounds/greatgatsby_chinese.wav,,,,,,,,,0,0,0,0,0,77,77,41,294.231784305,9.30088572204e-06,296.342035498,2.11026049417,,,,z,1,2.10075407359,2018_Nov_13_1540,59.9680734108,chinese_cond2,001,1010,
images/candy.jpg,candy,z,sounds/greatgatsby_chinese.wav,,,,,,,,,0,0,0,0,0,78,78,31,297.521221951,9.62160993367e-06,298.392589091,0.871376761701,,,,z,1,0.850506959949,2018_Nov_13_1540,59.9680734108,chinese_cond2,001,1010,
images/sportshorts02.jpg,tape,x,sounds/greatgatsby_chinese.wav,,,,,,,,,0,0,0,0,0,79,79,230,299.570422752,8.98016151041e-06,300.743099899,1.17268676893,,,,x,1,1.15051420813,2018_Nov_13_1540,59.9680734108,chinese_cond2,001,1010,
images/safe.jpg,safe,z,sounds/greatgatsby_chinese.wav,,,,,,,,,0,0,0,0,0,80,80,78,301.927757811,9.30088572204e-06,303.277047323,1.34929881291,,,,x,0,1.33388988709,2018_Nov_13_1540,59.9680734108,chinese_cond2,001,1010,
images/screw03c.jpg,screw,z,sounds/greatgatsby_chinese.wav,,,,,,,,,0,0,0,0,0,81,81,84,304.485170933,9.30088572204e-06,306.094498778,1.60933778668,,,,x,0,1.60071719089,2018_Nov_13_1540,59.9680734108,chinese_cond2,001,1010,
images/elbow.jpg,elbow,z,sounds/greatgatsby_chinese.wav,,,,,,,,,0,0,0,0,0,82,82,105,307.277454636,8.65943729877e-06,308.328289499,1.05084384279,,,,z,1,1.03376974585,2018_Nov_13_1540,59.9680734108,chinese_cond2,001,1010,
images/chessknight02b (1).jpg,cockroach,x,sounds/greatgatsby_chinese.wav,,,,,,,,,0,0,0,0,0,83,83,155,309.51097884,9.62149351835e-06,311.228981866,1.71801328927,,,,x,1,1.70064445189,2018_Nov_13_1540,59.9680734108,chinese_cond2,001,1010,
images/dryingmachine01.jpg,drying machine,z,sounds/greatgatsby_chinese.wav,,,,,,,,,0,0,0,0,0,84,84,18,312.399939961,9.30088572204e-06,313.646240312,1.24630965129,,,,z,1,1.23386897612,2018_Nov_13_1540,59.9680734108,chinese_cond2,001,1010,
images/weight01.jpg,weight,z,sounds/greatgatsby_chinese.wav,,,,,,,,,0,0,0,0,0,85,85,67,314.792489283,9.62149351835e-06,316.163527687,1.37104802497,,,,x,0,1.35056404781,2018_Nov_13_1540,59.9680734108,chinese_cond2,001,1010,
images/lion.jpg,lion,z,sounds/greatgatsby_chinese.wav,,,,,,,,,0,0,0,0,0,86,86,44,317.351768667,9.30088572204e-06,318.214185192,0.862426146516,,,,z,1,0.850592271076,2018_Nov_13_1540,59.9680734108,chinese_cond2,001,1010,
images/hairband.jpg,hairband,z,sounds/greatgatsby_chinese.wav,,,,,,,,,0,0,0,0,0,87,87,66,319.388332513,9.94233414531e-06,320.664628714,1.27630646329,,,,z,1,1.26722050493,2018_Nov_13_1540,59.9680734108,chinese_cond2,001,1010,
images/lemon02.jpg,lemon,z,sounds/greatgatsby_chinese.wav,,,,,,,,,0,0,0,0,0,88,88,14,321.815055686,9.62160993367e-06,323.365286315,1.55024057103,,,,z,1,1.5339538384,2018_Nov_13_1540,59.9680734108,chinese_cond2,001,1010,
images/doorhandle.jpg,doll,x,sounds/greatgatsby_chinese.wav,,,,,,,,,0,0,0,0,0,89,89,168,324.555574442,8.98016151041e-06,325.91589443,1.36033025035,,,,x,1,1.35056180286,2018_Nov_13_1540,59.9680734108,chinese_cond2,001,1010,
images/gamecontroller01.jpg,game controller,z,sounds/greatgatsby_chinese.wav,,,,,,,,,0,0,0,0,0,90,90,112,327.166634488,9.30088572204e-06,330.116925668,2.95030304708,,,,x,0,2.93426102272,2018_Nov_13_1540,59.9680734108,chinese_cond2,001,1010,
images/table02.jpg,table,z,sounds/greatgatsby_chinese.wav,,,,,,,,,0,0,0,0,0,91,91,49,331.306164404,9.62149351835e-06,334.101224568,2.79506946448,,,,z,1,2.78425066336,2018_Nov_13_1540,59.9680734108,chinese_cond2,001,1010,
images/dolphin01.jpg,dolphin,z,sounds/greatgatsby_chinese.wav,,,,,,,,,0,0,0,0,0,92,92,99,335.267440197,9.62149351835e-06,336.485152973,1.21772239741,,,,z,1,1.20054246346,2018_Nov_13_1540,59.9680734108,chinese_cond2,001,1010,
images/highheelshoe02a.jpg,high heel shoe,z,sounds/greatgatsby_chinese.wav,,,,,,,,,0,0,0,0,0,93,93,75,337.627435617,8.98016151041e-06,338.568978235,0.941552560311,,,,z,1,0.917128555011,2018_Nov_13_1540,59.9680734108,chinese_cond2,001,1010,
images/graduationcap.jpg,graduation cap,z,sounds/greatgatsby_chinese.wav,,,,,,,,,0,0,0,0,0,94,94,35,339.753098623,8.98016151041e-06,340.969560596,1.21647159499,,,,x,0,1.20052899327,2018_Nov_13_1540,59.9680734108,chinese_cond2,001,1010,
images/magnifyingglass01b.jpg,magnifying glass,z,sounds/greatgatsby_chinese.wav,,,,,,,,,0,0,0,0,0,95,95,64,342.113805718,9.30088572204e-06,343.670239365,1.55644326902,,,,z,1,1.53396698786,2018_Nov_13_1540,59.9680734108,chinese_cond2,001,1010,
images/skateboard.jpg,key,x,sounds/greatgatsby_chinese.wav,,,,,,,,,0,0,0,0,0,96,96,189,344.824936065,9.94233414531e-06,347.104392305,2.27946746605,,,,x,1,2.26745815738,2018_Nov_13_1540,59.9680734108,chinese_cond2,001,1010,
images/camera01a.jpg,bull,x,sounds/greatgatsby_chinese.wav,,,,,,,,,0,0,0,0,0,97,97,138,348.30734978,8.65943729877e-06,349.621689943,1.31437864935,,,,x,1,1.30055214919,2018_Nov_13_1540,59.9680734108,chinese_cond2,001,1010,
images/hanger02a.jpg,hanger,z,sounds/greatgatsby_chinese.wav,,,,,,,,,0,0,0,0,0,98,98,88,350.787163109,8.98016151041e-06,351.772213132,0.985059323371,,,,x,0,0.967146547162,2018_Nov_13_1540,59.9680734108,chinese_cond2,001,1010,
images/boxingglove02a.jpg,bracelet,x,sounds/greatgatsby_chinese.wav,,,,,,,,,0,0,0,0,0,99,99,135,352.985057399,9.62160993367e-06,354.289467793,1.30442001566,,,,x,1,1.28388023342,2018_Nov_13_1540,59.9680734108,chinese_cond2,001,1010,
images/handfan01b.jpg,handfan,z,sounds/greatgatsby_chinese.wav,,,,,,,,,0,0,0,0,0,100,100,69,355.486724174,9.62160993367e-06,357.440238576,1.95352370339,,,,z,1,1.93404197181,2018_Nov_13_1540,59.9680734108,chinese_cond2,001,1010,
images/mirror02.jpg,8 ball,x,sounds/greatgatsby_chinese.wav,,,,,,,,,0,0,0,0,0,101,101,121,358.616211107,9.30076930672e-06,359.891066639,1.2748648331,,,,x,1,1.25077405432,2018_Nov_13_1540,59.9680734108,chinese_cond2,001,1010,
images/cherry01.jpg,highlighter,x,sounds/greatgatsby_chinese.wav,,,,,,,,,0,0,0,0,0,102,102,187,361.080492996,8.98004509509e-06,362.474808836,1.39432546136,,,,x,1,1.38390948297,2018_Nov_13_1540,59.9680734108,chinese_cond2,001,1010,
images/snowman.jpg,globe,x,sounds/greatgatsby_chinese.wav,,,,,,,,,0,0,0,0,0,103,103,180,363.671345524,8.98016151041e-06,365.458858537,1.787522314,,,,x,1,1.76733532222,2018_Nov_13_1540,59.9680734108,chinese_cond2,001,1010,
images/candycane01a.jpg,lip,x,sounds/greatgatsby_chinese.wav,,,,,,,,,0,0,0,0,0,104,104,200,366.626346136,9.94233414531e-06,367.826093217,1.19975734432,,,,x,1,1.18385611533,2018_Nov_13_1540,59.9680734108,chinese_cond2,001,1010,
images/wallet01.jpg,lamp,x,sounds/greatgatsby_chinese.wav,,,,,,,,,0,0,0,0,0,105,105,193,368.987287355,8.98016151041e-06,370.726804186,1.73952581105,,,,x,1,1.71731572633,2018_Nov_13_1540,59.9680734108,chinese_cond2,001,1010,
images/radio03a.jpg,radio,z,sounds/greatgatsby_chinese.wav,,,,,,,,,0,0,0,0,0,106,106,37,371.919975253,8.98016151041e-06,373.327442481,1.40747684892,,,,x,0,1.38391653867,2018_Nov_13_1540,59.9680734108,chinese_cond2,001,1010,
images/blueberry02.jpg,blueberry,z,sounds/greatgatsby_chinese.wav,,,,,,,,,0,0,0,0,0,107,107,46,374.47636849,9.62149351835e-06,376.428193347,1.95183447842,,,,z,1,1.93403940601,2018_Nov_13_1540,59.9680734108,chinese_cond2,001,1010,
images/dice05a.jpg,band aid,x,sounds/greatgatsby_chinese.wav,,,,,,,,,0,0,0,0,0,108,108,126,377.620043374,9.62160993367e-06,379.662314087,2.04228001426,,,,x,1,2.03406865557,2018_Nov_13_1540,59.9680734108,chinese_cond2,001,1010,
images/binder03b.jpg,dj mixer,x,sounds/greatgatsby_chinese.wav,,,,,,,,,0,0,0,0,0,109,109,167,380.843504069,8.98004509509e-06,382.279619487,1.43612471852,,,,x,1,1.41725010728,2018_Nov_13_1540,59.9680734108,chinese_cond2,001,1010,
images/nailclipper03a.jpg,aquarium,x,sounds/greatgatsby_chinese.wav,,,,,,,,,0,0,0,0,0,110,110,123,383.455425565,9.30088572204e-06,384.496824886,1.04140862182,,,,x,1,1.01713952352,2018_Nov_13_1540,59.9680734108,chinese_cond2,001,1010,
images/computermouse02a.jpg,world map,x,sounds/greatgatsby_chinese.wav,,,,,,,,,0,0,0,0,0,111,111,239,385.696974789,9.94233414531e-06,386.780720193,1.08375566627,,,,x,1,1.06716745812,2018_Nov_13_1540,59.9680734108,chinese_cond2,001,1010,
images/comb02a.jpg,diploma,x,sounds/greatgatsby_chinese.wav,,,,,,,,,0,0,0,0,0,112,112,166,387.909942213,9.30076930672e-06,388.964580798,1.05464852764,,,,x,1,1.03382843744,2018_Nov_13_1540,59.9680734108,chinese_cond2,001,1010,
images/cookingpot.jpg,grasshopper,x,sounds/greatgatsby_chinese.wav,,,,,,,,,0,0,0,0,0,113,113,183,390.147186111,8.98016151041e-06,391.515211042,1.36803455302,,,,x,1,1.35057046218,2018_Nov_13_1540,59.9680734108,chinese_cond2,001,1010,
images/scooter.jpg,pen,x,sounds/greatgatsby_chinese.wav,,,,,,,,,0,0,0,0,0,114,114,212,392.703175563,9.62149351835e-06,393.599038229,0.895872607944,,,,x,1,0.883784402744,2018_Nov_13_1540,59.9680734108,chinese_cond2,001,1010,
images/beermug01b.jpg,beer mug,z,sounds/greatgatsby_chinese.wav,,,,,,,,,0,0,0,0,0,115,115,111,394.788527446,9.30076930672e-06,395.966284455,1.17776663101,,,,x,0,1.16717425734,2018_Nov_13_1540,59.9680734108,chinese_cond2,001,1010,
images/scissors04a.jpg,leek,x,sounds/greatgatsby_chinese.wav,,,,,,,,,0,0,0,0,0,116,116,194,397.093365358,9.30088572204e-06,398.60025728,1.50690090249,,,,x,1,1.4839300731,2018_Nov_13_1540,59.9680734108,chinese_cond2,001,1010,
images/ruler02b.jpg,watermelon,x,sounds/greatgatsby_chinese.wav,,,,,,,,,0,0,0,0,0,117,117,238,399.784653486,9.62160993367e-06,401.084195371,1.29955182783,,,,x,1,1.28388728923,2018_Nov_13_1540,59.9680734108,chinese_cond2,001,1010,
images/lightswitch02a.jpg,fork,x,sounds/greatgatsby_chinese.wav,,,,,,,,,0,0,0,0,0,118,118,177,402.23728944,8.98016151041e-06,404.485023082,2.24774294277,,,,x,1,2.23411464656,2018_Nov_13_1540,59.9680734108,chinese_cond2,001,1010,
images/pingpongpaddle01c (1).jpg,ping pong paddle,z,sounds/greatgatsby_chinese.wav,,,,,,,,,0,0,0,0,0,119,119,10,405.671713388,9.62149351835e-06,406.768912616,1.09720917069,,,,x,0,1.08383007301,2018_Nov_13_1540,59.9680734108,chinese_cond2,001,1010,
images/banana04a.jpg,banana,z,sounds/greatgatsby_chinese.wav,,,,,,,,,0,0,0,0,0,120,120,118,407.92584248,8.98016151041e-06,409.036134725,1.11030154605,,,,z,1,1.10050808243,2018_Nov_13_1540,59.9680734108,chinese_cond2,001,1010,
images/swan.jpg,swan,z,sounds/greatgatsby_chinese.wav,,,,,,,,,0,0,0,0,0,121,121,54,410.160863798,8.98016151041e-06,411.169981507,1.00912701036,,,,z,1,1.00047722925,2018_Nov_13_1540,59.9680734108,chinese_cond2,001,1010,
images/worldmap.jpg,scooter,x,sounds/greatgatsby_chinese.wav,,,,,,,,,0,0,0,0,0,122,122,220,412.390102559,8.98004509509e-06,413.55390863,1.1638150505,,,,x,1,1.15052447119,2018_Nov_13_1540,59.9680734108,chinese_cond2,001,1010,
images/basketball01.jpg,basket ball,z,sounds/greatgatsby_chinese.wav,,,,,,,,,0,0,0,0,0,123,123,33,414.761770854,8.98016151041e-06,416.054517674,1.29275644186,,,,x,0,1.28389466566,2018_Nov_13_1540,59.9680734108,chinese_cond2,001,1010,
images/puma.jpg,puma,z,sounds/greatgatsby_chinese.wav,,,,,,,,,0,0,0,0,0,124,124,4,417.152572259,9.30088572204e-06,418.888528472,1.73596551374,,,,x,0,1.71732149925,2018_Nov_13_1540,59.9680734108,chinese_cond2,001,1010,
images/ladybug03.jpg,giraffe,x,sounds/greatgatsby_chinese.wav,,,,,,,,,0,0,0,0,0,125,125,178,420.074081831,9.94221772999e-06,421.489237966,1.41516607767,,,,x,1,1.40065420175,2018_Nov_13_1540,59.9680734108,chinese_cond2,001,1010,
images/paperclip04.jpg,eye drops,x,sounds/greatgatsby_chinese.wav,,,,,,,,,0,0,0,0,0,126,126,174,422.633686744,8.65943729877e-06,423.889749448,1.25607200514,,,,x,1,1.23387154192,2018_Nov_13_1540,59.9680734108,chinese_cond2,001,1010,
images/masquerademask02b.jpg,mirror,x,sounds/greatgatsby_chinese.wav,,,,,,,,,0,0,0,0,0,127,127,204,425.068267202,8.98016151041e-06,426.340367762,1.27211018093,,,,x,1,1.25056013511,2018_Nov_13_1540,59.9680734108,chinese_cond2,001,1010,
images/swallow.jpg,mattress,x,sounds/greatgatsby_chinese.wav,,,,,,,,,0,0,0,0,0,128,128,202,427.486482352,9.30076930672e-06,428.774274069,1.2878016599,,,,x,1,1.267202224,2018_Nov_13_1540,59.9680734108,chinese_cond2,001,1010,
images/fireextinguisher02.jpg,fire extinguisher,z,sounds/greatgatsby_chinese.wav,,,,,,,,,0,0,0,0,0,129,129,175,429.886144571,9.30088572204e-06,431.091501342,1.20536607143,,,,z,1,1.18386188825,2018_Nov_13_1540,59.9680734108,chinese_cond2,001,1010,
images/butterfly.jpg,butterfly,z,sounds/greatgatsby_chinese.wav,,,,,,,,,0,0,0,0,0,130,130,91,432.238513944,9.30076930672e-06,433.225361273,0.986856951145,,,,z,1,0.967146867886,2018_Nov_13_1540,59.9680734108,chinese_cond2,001,1010,
images/aloe02.jpg,broad sword,x,sounds/greatgatsby_chinese.wav,,,,,,,,,0,0,0,0,0,131,131,137,434.4490237,9.30076930672e-06,435.676078368,1.22706428927,,,,x,1,1.21730546339,2018_Nov_13_1540,59.9680734108,chinese_cond2,001,1010,
images/dreamcatcher.jpg,dream catcher,z,sounds/greatgatsby_chinese.wav,,,,,,,,,0,0,0,0,0,132,132,48,436.80613586,9.30088572204e-06,438.059856677,1.25373107998,,,,x,0,1.23386384465,2018_Nov_13_1540,59.9680734108,chinese_cond2,001,1010,
images/ostrich.jpg,ostrich,z,sounds/greatgatsby_chinese.wav,,,,,,,,,0,0,0,0,0,133,133,76,439.192284921,8.98016151041e-06,440.310409756,1.11813477753,,,,x,0,1.10050327168,2018_Nov_13_1540,59.9680734108,chinese_cond2,001,1010,
images/broom02.jpg,broom,z,sounds/greatgatsby_chinese.wav,,,,,,,,,0,0,0,0,0,134,134,116,441.458789903,9.30076930672e-06,442.694323729,1.23554312729,,,,x,0,1.21719706047,2018_Nov_13_1540,59.9680734108,chinese_cond2,001,1010,
images/blackolive.jpg,tank,x,sounds/greatgatsby_chinese.wav,,,,,,,,,0,0,0,0,0,135,135,229,443.840500218,9.62160993367e-06,444.594787745,0.754297469044,,,,z,0,0.733750951709,2018_Nov_13_1540,59.9680734108,chinese_cond2,001,1010,
images/bandaid01.jpg,door handle,x,sounds/greatgatsby_chinese.wav,,,,,,,,,0,0,0,0,0,136,136,170,445.777278882,8.98004509509e-06,447.245433769,1.46816386667,,,,x,1,1.45059361809,2018_Nov_13_1540,59.9680734108,chinese_cond2,001,1010,
images/ladder.jpg,ladder,z,sounds/greatgatsby_chinese.wav,,,,,,,,,0,0,0,0,0,137,137,113,448.365768034,9.30088572204e-06,449.479319743,1.11356100941,,,,x,0,1.10051257245,2018_Nov_13_1540,59.9680734108,chinese_cond2,001,1010,
images/watermelon01.jpg,orange,x,sounds/greatgatsby_chinese.wav,,,,,,,,,0,0,0,0,0,138,138,207,450.679875677,9.30088572204e-06,451.613173902,0.933308167616,,,,x,1,0.91714010085,2018_Nov_13_1540,59.9680734108,chinese_cond2,001,1010,
images/charcoalbarbecue.jpg,charcoal barbecue,z,sounds/greatgatsby_chinese.wav,,,,,,,,,0,0,0,0,0,139,139,77,452.794132325,8.98016151041e-06,454.180458422,1.38633507793,,,,x,0,1.36723435996,2018_Nov_13_1540,59.9680734108,chinese_cond2,001,1010,
images/bullet (2).jpg,rubber glove,x,sounds/greatgatsby_chinese.wav,,,,,,,,,0,0,0,0,0,140,140,217,455.368419736,9.62160993367e-06,456.647724918,1.27931480389,,,,x,1,1.26720511052,2018_Nov_13_1540,59.9680734108,chinese_cond2,001,1010,
images/orange.jpg,bat,x,sounds/greatgatsby_chinese.wav,,,,,,,,,0,0,0,0,0,141,141,128,457.804843364,8.65943729877e-06,458.798244258,0.993411477539,,,,x,1,0.983796333428,2018_Nov_13_1540,59.9680734108,chinese_cond2,001,1010,
images/donut.jpg,rhinoceros,x,sounds/greatgatsby_chinese.wav,,,,,,,,,0,0,0,0,0,142,142,216,459.999869147,8.98016151041e-06,461.498903463,1.49904457922,,,,x,1,1.48392526235,2018_Nov_13_1540,59.9680734108,chinese_cond2,001,1010,
images/mitten01.jpg,mitten,z,sounds/greatgatsby_chinese.wav,,,,,,,,,0,0,0,0,0,143,143,102,462.652395544,9.62149351835e-06,463.78280294,1.1304170175,,,,x,0,1.11718769546,2018_Nov_13_1540,59.9680734108,chinese_cond2,001,1010,
images/dragonfly02.jpg,dragon fly,z,sounds/greatgatsby_chinese.wav,,,,,,,,,0,0,0,0,0,144,144,29,464.913352093,9.30076930672e-06,465.833292068,0.919949595816,,,,x,0,0.90045439417,2018_Nov_13_1540,59.9680734108,chinese_cond2,001,1010,
images/floorlamp.jpg,floor lamp,z,sounds/greatgatsby_chinese.wav,,,,,,,,,0,0,0,0,0,145,145,26,466.987676387,9.62149351835e-06,468.167195425,1.17952897982,,,,z,1,1.16719446261,2018_Nov_13_1540,59.9680734108,chinese_cond2,001,1010,
images/nametag01a.jpg,name tag,z,sounds/greatgatsby_chinese.wav,,,,,,,,,0,0,0,0,0,146,146,108,469.328661853,9.94221772999e-06,470.701150867,1.37249863532,,,,z,1,1.35057463148,2018_Nov_13_1540,59.9680734108,chinese_cond2,001,1010,
images/feather03b.jpg,feather,z,sounds/greatgatsby_chinese.wav,,,,,,,,,0,0,0,0,0,147,147,114,471.874969772,9.30088572204e-06,473.051886178,1.17694334639,,,,x,0,1.16728554666,2018_Nov_13_1540,59.9680734108,chinese_cond2,001,1010,
images/cake.jpg,cake,z,sounds/greatgatsby_chinese.wav,,,,,,,,,0,0,0,0,0,148,148,23,474.199691918,8.98016151041e-06,475.88573822,1.686056245,,,,x,0,1.6673121663,2018_Nov_13_1540,59.9680734108,chinese_cond2,001,1010,
images/headphones02b.jpg,headphones,z,sounds/greatgatsby_chinese.wav,,,,,,,,,0,0,0,0,0,149,149,101,477.080115831,8.98016151041e-06,478.186306726,1.10620019643,,,,x,0,1.08382430009,2018_Nov_13_1540,59.9680734108,chinese_cond2,001,1010,
images/remotecontrol01c.jpg,remote control,z,sounds/greatgatsby_chinese.wav,,,,,,,,,0,0,0,0,0,150,150,85,479.334276994,9.62160993367e-06,480.570213964,1.23594659136,,,,x,0,1.21720122977,2018_Nov_13_1540,59.9680734108,chinese_cond2,001,1010,
images/globe.jpg,cloud,x,sounds/greatgatsby_chinese.wav,,,,,,,,,0,0,0,0,0,151,151,154,481.775363871,8.98016151041e-06,483.454270336,1.67891640728,,,,z,0,1.6673339752,2018_Nov_13_1540,59.9680734108,chinese_cond2,001,1010,
images/ant.jpg,ant,z,sounds/greatgatsby_chinese.wav,,,,,,,,,0,0,0,0,0,152,152,98,484.630764676,8.98016151041e-06,485.771490873,1.14073613903,,,,z,1,1.11718224327,2018_Nov_13_1540,59.9680734108,chinese_cond2,001,1010,
images/honeycomb.jpg,honey comb,z,sounds/greatgatsby_chinese.wav,,,,,,,,,0,0,0,0,0,153,153,59,486.922834139,9.30088572204e-06,488.13871946,1.21589462215,,,,z,1,1.20053059689,2018_Nov_13_1540,59.9680734108,chinese_cond2,001,1010,
images/straw.jpg,straw,z,sounds/greatgatsby_chinese.wav,,,,,,,,,0,0,0,0,0,154,154,109,489.259610173,8.98016151041e-06,490.322584556,1.06298368378,,,,x,0,1.05048046866,2018_Nov_13_1540,59.9680734108,chinese_cond2,001,1010,
images/pouch01b.jpg,pouch,z,sounds/greatgatsby_chinese.wav,,,,,,,,,0,0,0,0,0,155,155,25,491.487924944,9.30088572204e-06,492.439765516,0.951850193669,,,,x,0,0.933795339195,2018_Nov_13_1540,59.9680734108,chinese_cond2,001,1010,
images/lock02a.jpg,lock,z,sounds/greatgatsby_chinese.wav,,,,,,,,,0,0,0,0,0,156,156,65,493.659348402,9.30088572204e-06,494.556947759,0.89760865795,,,,z,1,0.883786006249,2018_Nov_13_1540,59.9680734108,chinese_cond2,001,1010,
images/electrictoothbrush01a.jpg,banjo,x,sounds/greatgatsby_chinese.wav,,,,,,,,,0,0,0,0,0,157,157,127,495.720833368,8.98004509509e-06,496.9908778,1.27005341242,,,,z,0,1.25054345769,2018_Nov_13_1540,59.9680734108,chinese_cond2,001,1010,
images/hand01a.jpg,cupcake,x,sounds/greatgatsby_chinese.wav,,,,,,,,,0,0,0,0,0,158,158,163,498.137796111,9.94233414531e-06,499.874912684,1.73712715658,,,,z,0,1.71732310287,2018_Nov_13_1540,59.9680734108,chinese_cond2,001,1010,
images/teapot.jpg,light switch,x,sounds/greatgatsby_chinese.wav,,,,,,,,,0,0,0,0,0,159,159,197,501.059609724,9.62160993367e-06,501.742031265,0.682430841844,,,,x,1,0.667063288623,2018_Nov_13_1540,59.9680734108,chinese_cond2,001,1010,
images/handbag02a.jpg,candle,x,sounds/greatgatsby_chinese.wav,,,,,,,,,0,0,0,0,0,160,160,144,502.921402451,8.98016151041e-06,504.042712022,1.12131919258,,,,x,1,1.10062514478,2018_Nov_13_1540,59.9680734108,chinese_cond2,001,1010,
images/thumbtack02a.jpg,thumb tack,z,sounds/greatgatsby_chinese.wav,,,,,,,,,0,0,0,0,0,161,161,60,505.186868625,8.98016151041e-06,506.409836055,1.22297673055,,,,x,0,1.20052771037,2018_Nov_13_1540,59.9680734108,chinese_cond2,001,1010,
images/bus.jpg,microphone,x,sounds/greatgatsby_chinese.wav,,,,,,,,,0,0,0,0,0,162,162,203,507.602987879,9.30076930672e-06,509.660624221,2.05764564313,,,,z,0,2.03406320338,2018_Nov_13_1540,59.9680734108,chinese_cond2,001,1010,
images/ceilingfan02.jpg,paper clip,x,sounds/greatgatsby_chinese.wav,,,,,,,,,0,0,0,0,0,163,163,208,510.813297507,9.30076930672e-06,512.57785284,1.76456527552,,,,x,1,1.75050914078,2018_Nov_13_1540,59.9680734108,chinese_cond2,001,1010,
images/rubberglove02a.jpg,lady bug,x,sounds/greatgatsby_chinese.wav,,,,,,,,,0,0,0,0,0,164,164,192,513.760393368,8.98016151041e-06,515.195318599,1.43493517314,,,,x,1,1.41726197395,2018_Nov_13_1540,59.9680734108,chinese_cond2,001,1010,
images/baseball01a.jpg,baseball,z,sounds/greatgatsby_chinese.wav,,,,,,,,,0,0,0,0,0,165,165,74,516.397903078,9.62149351835e-06,517.71258673,1.31469327433,,,,z,1,1.30055375281,2018_Nov_13_1540,59.9680734108,chinese_cond2,001,1010,
images/umbrella01.jpg,umbrella,z,sounds/greatgatsby_chinese.wav,,,,,,,,,0,0,0,0,0,166,166,53,518.861409789,8.98004509509e-06,520.913376147,2.05197597947,,,,z,1,2.03406576905,2018_Nov_13_1540,59.9680734108,chinese_cond2,001,1010,
images/grasshopper.jpg,cauliflower,x,sounds/greatgatsby_chinese.wav,,,,,,,,,0,0,0,0,0,167,167,148,522.077113584,9.30088572204e-06,523.013892889,0.93678924744,,,,z,0,0.917143307975,2018_Nov_13_1540,59.9680734108,chinese_cond2,001,1010,
images/licenseplate.jpg,license plate,z,sounds/greatgatsby_chinese.wav,,,,,,,,,0,0,0,0,0,168,168,40,524.253937943,8.98004509509e-06,525.964606135,1.71067813376,,,,z,1,1.70065952581,2018_Nov_13_1540,59.9680734108,chinese_cond2,001,1010,
images/atm.jpg,atm,z,sounds/greatgatsby_chinese.wav,,,,,,,,,0,0,0,0,0,169,169,96,527.171502676,9.30088572204e-06,528.481869777,1.31037640187,,,,z,1,1.30054990412,2018_Nov_13_1540,59.9680734108,chinese_cond2,001,1010,
images/grandpiano.jpg,tulip,x,sounds/greatgatsby_chinese.wav,,,,,,,,,0,0,0,0,0,170,170,236,529.624848059,8.98016151041e-06,530.682413523,1.05757508497,,,,x,1,1.03382234368,2018_Nov_13_1540,59.9680734108,chinese_cond2,001,1010,
images/pen03c.jpg,pepper,x,sounds/greatgatsby_chinese.wav,,,,,,,,,0,0,0,0,0,171,171,211,531.84196943,9.62149351835e-06,533.666467073,1.82450726395,,,,x,1,1.80067466362,2018_Nov_13_1540,59.9680734108,chinese_cond2,001,1010,
images/raisin.jpg,ruler,x,sounds/greatgatsby_chinese.wav,,,,,,,,,0,0,0,0,0,172,172,218,534.853266102,9.30088572204e-06,536.00038839,1.14713158901,,,,x,1,1.13386153546,2018_Nov_13_1540,59.9680734108,chinese_cond2,001,1010,
images/flipflop01b.jpg,flip flop,z,sounds/greatgatsby_chinese.wav,,,,,,,,,0,0,0,0,0,173,173,27,537.180898769,8.98016151041e-06,538.801068827,1.62017967936,,,,x,0,1.60064182209,2018_Nov_13_1540,59.9680734108,chinese_cond2,001,1010,
images/carrot02.jpg,corkscrew,x,sounds/greatgatsby_chinese.wav,,,,,,,,,0,0,0,0,0,174,174,161,539.983883569,9.30088572204e-06,541.368368742,1.38449479442,,,,x,1,1.36726033827,2018_Nov_13_1540,59.9680734108,chinese_cond2,001,1010,
images/arrow02.jpg,hammer,x,sounds/greatgatsby_chinese.wav,,,,,,,,,0,0,0,0,0,175,175,184,542.538807594,9.30088572204e-06,543.585554256,1.04675660469,,,,x,1,1.03382779588,2018_Nov_13_1540,59.9680734108,chinese_cond2,001,1010,
images/broadsword.jpg,teapot,x,sounds/greatgatsby_chinese.wav,,,,,,,,,0,0,0,0,0,176,176,231,544.709094746,8.98016151041e-06,545.769416145,1.06033102015,,,,x,1,1.05049105221,2018_Nov_13_1540,59.9680734108,chinese_cond2,001,1010,
images/tissuebox03.jpg,tissue box,z,sounds/greatgatsby_chinese.wav,,,,,,,,,0,0,0,0,0,177,177,58,546.943108046,9.62160993367e-06,548.420073072,1.47697496926,,,,x,0,1.46727291029,2018_Nov_13_1540,59.9680734108,chinese_cond2,001,1010,
images/cockroach02.jpg,belt,x,sounds/greatgatsby_chinese.wav,,,,,,,,,0,0,0,0,0,178,178,129,549.605219439,1.05837825686e-05,551.104065814,1.49885727966,,,,x,1,1.48395027837,2018_Nov_13_1540,59.9680734108,chinese_cond2,001,1010,
images/hammer02a.jpg,flower,x,sounds/greatgatsby_chinese.wav,,,,,,,,,0,0,0,0,0,179,179,176,552.277091262,9.30088572204e-06,553.23790073,0.960819089669,,,,x,1,0.950303367688,2018_Nov_13_1540,59.9680734108,chinese_cond2,001,1010,
images/bowtie.jpg,bowtie,z,sounds/greatgatsby_chinese.wav,,,,,,,,,0,0,0,0,0,180,180,89,554.47478863,9.94221772999e-06,556.205313474,1.7305357476,,,,x,0,1.71730610484,2018_Nov_13_1540,59.9680734108,chinese_cond2,001,1010,
images/volleyball.jpg,volley ball,z,sounds/greatgatsby_chinese.wav,,,,,,,,,0,0,0,0,0,181,181,2,557.337802333,9.30088572204e-06,558.289134246,0.951341533917,,,,x,0,0.93379726354,2018_Nov_13_1540,59.9680734108,chinese_cond2,001,1010,
images/50dollarbill.jpg,cherry,x,sounds/greatgatsby_chinese.wav,,,,,,,,,0,0,0,0,0,182,182,151,559.49080628,9.94233414531e-06,560.673062651,1.18226663396,,,,x,1,1.16720215988,2018_Nov_13_1540,59.9680734108,chinese_cond2,001,1010,
images/saltshaker03c.jpg,salt shaker,z,sounds/greatgatsby_chinese.wav,,,,,,,,,0,0,0,0,0,183,183,63,561.820888596,8.98004509509e-06,564.590518018,2.76963904395,,,,z,1,2.75075577339,2018_Nov_13_1540,59.9680734108,chinese_cond2,001,1010,
,,,sounds/greatgatsby_chinese.wav,,,,,,,,,0,0,0,0,,,,,,,,,,,,,,,2018_Nov_13_1540,59.9680734108,chinese_cond2,001,1010,
images/electricguitar02.jpg,electric guitar,z,sounds/animalfarm_english.wav,,,,,,,,,0,1,1,1,0,0,0,100,585.716091864,9.62149351835e-06,588.713062997,2.99698364141,,,575.593514172,None,0,,2018_Nov_13_1540,59.9680734108,chinese_cond2,001,1010,
images/dolphin01.jpg,dolphin,z,sounds/animalfarm_english.wav,,,,,,,,,0,1,1,1,0,1,1,99,589.810933169,1.02630583569e-05,591.264016205,1.45309233677,,,,x,0,1.4341102849,2018_Nov_13_1540,59.9680734108,chinese_cond2,001,1010,
images/lipstick04.jpg,lipstick,z,sounds/animalfarm_english.wav,,,,,,,,,0,1,1,1,0,2,2,56,592.361372586,8.98016151041e-06,593.497717766,1.13635448134,,,,z,1,1.11719058198,2018_Nov_13_1540,59.9680734108,chinese_cond2,001,1010,
images/lily.jpg,kiwi,x,sounds/animalfarm_english.wav,,,,,,,,,0,1,1,1,0,3,3,190,594.651526075,9.30088572204e-06,596.365081376,1.71356460138,,,,z,0,1.7006595257,2018_Nov_13_1540,59.9680734108,chinese_cond2,001,1010,
images/lock02a.jpg,lock,z,sounds/animalfarm_english.wav,,,,,,,,,0,1,1,1,0,4,4,65,597.473818457,9.62160993367e-06,599.36579273,1.89198389475,,,,z,1,1.86735976103,2018_Nov_13_1540,59.9680734108,chinese_cond2,001,1010,
images/bull.jpg,button,x,sounds/animalfarm_english.wav,,,,,,,,,0,1,1,1,0,5,5,141,600.469404406,8.98004509509e-06,601.999761065,1.53036595916,,,,x,1,1.51726171724,2018_Nov_13_1540,59.9680734108,chinese_cond2,001,1010,
images/paperclip04.jpg,eye drops,x,sounds/animalfarm_english.wav,,,,,,,,,0,1,1,1,0,6,6,174,603.104266263,9.30088572204e-06,604.133623883,1.0293669207,,,,x,1,1.01714978646,2018_Nov_13_1540,59.9680734108,chinese_cond2,001,1010,
images/djmixer01.jpg,light bulb,x,sounds/animalfarm_english.wav,,,,,,,,,0,1,1,1,0,7,7,196,605.255044102,8.65932088345e-06,606.81761919,1.56258470973,,,,x,1,1.55061901896,2018_Nov_13_1540,59.9680734108,chinese_cond2,001,1010,
images/mushroom01.jpg,shower head,x,sounds/animalfarm_english.wav,,,,,,,,,0,1,1,1,0,8,8,222,608.016805655,8.98016151041e-06,609.001487172,0.984691138379,,,,x,1,0.967144302209,2018_Nov_13_1540,59.9680734108,chinese_cond2,001,1010,
images/parrot01.jpg,chameleon,x,sounds/animalfarm_english.wav,,,,,,,,,0,1,1,1,0,9,9,150,610.113222972,8.98016151041e-06,611.068645971,0.955432299874,,,,x,1,0.933799508493,2018_Nov_13_1540,59.9680734108,chinese_cond2,001,1010,
images/globe.jpg,cloud,x,sounds/animalfarm_english.wav,,,,,,,,,0,1,1,1,0,10,10,154,612.194623922,9.30076930672e-06,612.969109666,0.774495365215,,,,x,1,0.750423188205,2018_Nov_13_1540,59.9680734108,chinese_cond2,001,1010,
images/comb02a.jpg,diploma,x,sounds/animalfarm_english.wav,,,,,,,,,0,1,1,1,0,11,11,166,614.071058737,8.98004509509e-06,615.636423115,1.56537399953,,,,z,0,1.55061100109,2018_Nov_13_1540,59.9680734108,chinese_cond2,001,1010,
images/headphones02b.jpg,headphones,z,sounds/animalfarm_english.wav,,,,,,,,,0,1,1,1,0,12,12,101,616.742016191,9.62149351835e-06,617.586919235,0.84491330653,,,,z,1,0.833778918488,2018_Nov_13_1540,59.9680734108,chinese_cond2,001,1010,
images/teapot.jpg,light switch,x,sounds/animalfarm_english.wav,,,,,,,,,0,1,1,1,0,13,13,197,618.701614946,8.98004509509e-06,619.770771181,1.06916585576,,,,x,1,1.05049714586,2018_Nov_13_1540,59.9680734108,chinese_cond2,001,1010,
images/watermelon01.jpg,orange,x,sounds/animalfarm_english.wav,,,,,,,,,0,1,1,1,0,14,14,207,620.897576265,9.62160993367e-06,621.654555583,0.756988939713,,,,x,1,0.73375255533,2018_Nov_13_1540,59.9680734108,chinese_cond2,001,1010,
images/hand01a.jpg,cupcake,x,sounds/animalfarm_english.wav,,,,,,,,,0,1,1,1,0,15,15,163,622.765335642,9.62160993367e-06,623.471669642,0.70634362183,,,,x,1,0.683746429626,2018_Nov_13_1540,59.9680734108,chinese_cond2,001,1010,
images/worldmap.jpg,scooter,x,sounds/animalfarm_english.wav,,,,,,,,,0,1,1,1,0,16,16,220,624.60032848,9.30088572204e-06,625.27210537,0.671786511783,,,,x,1,0.650393938646,2018_Nov_13_1540,59.9680734108,chinese_cond2,001,1010,
images/paintbrush03a.jpg,paint brush,z,sounds/animalfarm_english.wav,,,,,,,,,0,1,1,1,0,17,17,0,626.370771886,9.30088572204e-06,627.172571631,0.801809686935,,,,x,0,0.783768943977,2018_Nov_13_1540,59.9680734108,chinese_cond2,001,1010,
images/swan.jpg,swan,z,sounds/animalfarm_english.wav,,,,,,,,,0,1,1,1,0,18,18,54,628.262528392,9.30076930672e-06,629.323088725,1.06056963478,,,,z,1,1.05048495857,2018_Nov_13_1540,59.9680734108,chinese_cond2,001,1010,
images/pen03c.jpg,pepper,x,sounds/animalfarm_english.wav,,,,,,,,,0,1,1,1,0,19,19,211,630.414922332,9.30088572204e-06,631.423609637,1.00869724748,,,,x,1,1.00047530502,2018_Nov_13_1540,59.9680734108,chinese_cond2,001,1010,
images/coin01b.jpg,arrow,x,sounds/animalfarm_english.wav,,,,,,,,,0,1,1,1,0,20,20,124,632.524474037,8.98004509509e-06,633.790853618,1.26638920233,,,,x,1,1.25055660715,2018_Nov_13_1540,59.9680734108,chinese_cond2,001,1010,
images/icecube02 (2).jpg,aloe,x,sounds/animalfarm_english.wav,,,,,,,,,0,1,1,1,0,21,21,122,634.899773508,8.98016151041e-06,635.874684012,0.974919804372,,,,x,1,0.950469179312,2018_Nov_13_1540,59.9680734108,chinese_cond2,001,1010,
images/radish01.jpg,raisin,x,sounds/animalfarm_english.wav,,,,,,,,,0,1,1,1,0,22,22,214,636.983466955,9.30076930672e-06,637.808489935,0.825032921741,,,,x,1,0.800439256127,2018_Nov_13_1540,59.9680734108,chinese_cond2,001,1010,
images/lettuce.jpg,mushroom,x,sounds/animalfarm_english.wav,,,,,,,,,0,1,1,1,0,23,23,205,638.92964524,9.62160993367e-06,639.725622659,0.795987361227,,,,x,1,0.783748097369,2018_Nov_13_1540,59.9680734108,chinese_cond2,001,1010,
images/dice05a.jpg,band aid,x,sounds/animalfarm_english.wav,,,,,,,,,0,1,1,1,0,24,24,126,640.835981614,9.30088572204e-06,642.359600615,1.52362894395,,,,x,1,1.50060968613,2018_Nov_13_1540,59.9680734108,chinese_cond2,001,1010,
images/cake.jpg,cake,z,sounds/animalfarm_english.wav,,,,,,,,,0,1,1,1,0,25,25,23,643.471223201,8.98016151041e-06,645.093602369,1.62238910992,,,,z,1,1.60063701135,2018_Nov_13_1540,59.9680734108,chinese_cond2,001,1010,
images/panda.jpg,panda,z,sounds/animalfarm_english.wav,,,,,,,,,0,1,1,1,0,26,26,83,646.200694484,9.62149351835e-06,646.927375835,0.72669129353,,,,z,1,0.717078073882,2018_Nov_13_1540,59.9680734108,chinese_cond2,001,1010,
images/beachumbrella01.jpg,beach umbrella,z,sounds/animalfarm_english.wav,,,,,,,,,0,1,1,1,0,27,27,92,648.031869167,9.30088572204e-06,648.927864931,0.89600570628,,,,z,1,0.883790175547,2018_Nov_13_1540,59.9680734108,chinese_cond2,001,1010,
images/mailbox01.jpg,mail box,z,sounds/animalfarm_english.wav,,,,,,,,,0,1,1,1,0,28,28,73,650.045413756,9.30088572204e-06,651.061711393,1.01630790008,,,,z,1,1.00046407979,2018_Nov_13_1540,59.9680734108,chinese_cond2,001,1010,
images/aloe02.jpg,broad sword,x,sounds/animalfarm_english.wav,,,,,,,,,0,1,1,1,0,29,29,137,652.181859963,9.62160993367e-06,653.645671678,1.46382197808,,,,x,1,1.45058110997,2018_Nov_13_1540,59.9680734108,chinese_cond2,001,1010,
images/binder03b.jpg,dj mixer,x,sounds/animalfarm_english.wav,,,,,,,,,0,1,1,1,0,30,30,167,654.756728516,9.62160993367e-06,655.796210902,1.03949264879,,,,x,1,1.01716614317,2018_Nov_13_1540,59.9680734108,chinese_cond2,001,1010,
images/antelope.jpg,antelope,z,sounds/animalfarm_english.wav,,,,,,,,,0,1,1,1,0,31,31,12,656.931407589,9.62160993367e-06,658.613554916,1.68215726886,,,,z,1,1.66730863845,2018_Nov_13_1540,59.9680734108,chinese_cond2,001,1010,
images/scissors04a.jpg,leek,x,sounds/animalfarm_english.wav,,,,,,,,,0,1,1,1,0,32,32,194,659.705866072,8.98016151041e-06,661.14749785,1.44164172013,,,,x,1,1.41723824071,2018_Nov_13_1540,59.9680734108,chinese_cond2,001,1010,
images/birthdaycandle.jpg,birthday candle,z,sounds/animalfarm_english.wav,,,,,,,,,0,1,1,1,0,33,33,55,662.326352679,9.62149351835e-06,664.398299486,2.07195642847,,,,x,0,2.05074089207,2018_Nov_13_1540,59.9680734108,chinese_cond2,001,1010,
images/baseball01a.jpg,baseball,z,sounds/animalfarm_english.wav,,,,,,,,,0,1,1,1,0,34,34,74,665.528515733,9.62149351835e-06,666.648870204,1.12036441336,,,,z,1,1.10053566424,2018_Nov_13_1540,59.9680734108,chinese_cond2,001,1010,
images/raisin.jpg,ruler,x,sounds/animalfarm_english.wav,,,,,,,,,0,1,1,1,0,35,35,218,667.752332747,9.30088572204e-06,668.66600171,0.913678584853,,,,x,1,0.900459204917,2018_Nov_13_1540,59.9680734108,chinese_cond2,001,1010,
images/showerhead01.jpg,skateboard,x,sounds/animalfarm_english.wav,,,,,,,,,0,1,1,1,0,36,36,223,669.772125896,8.98016151041e-06,670.699832392,0.927715797094,,,,z,0,0.917120216298,2018_Nov_13_1540,59.9680734108,chinese_cond2,001,1010,
images/desktopcomputer.jpg,desktop computer,z,sounds/animalfarm_english.wav,,,,,,,,,0,1,1,1,0,37,37,16,671.909986793,9.62160993367e-06,673.150425048,1.24044851854,,,,z,1,1.21720219194,2018_Nov_13_1540,59.9680734108,chinese_cond2,001,1010,
images/lighter02b.jpg,stapler,x,sounds/animalfarm_english.wav,,,,,,,,,0,1,1,1,0,38,38,227,674.250156671,9.30088572204e-06,675.300965235,1.05081818532,,,,x,1,1.03384254896,2018_Nov_13_1540,59.9680734108,chinese_cond2,001,1010,
images/honeycomb.jpg,honey comb,z,sounds/animalfarm_english.wav,,,,,,,,,0,1,1,1,0,39,39,59,676.414300779,9.30088572204e-06,677.184763749,0.770472912467,,,,z,1,0.750444997102,2018_Nov_13_1540,59.9680734108,chinese_cond2,001,1010,
images/giraffe.jpg,lettuce,x,sounds/animalfarm_english.wav,,,,,,,,,0,1,1,1,0,40,40,195,678.360878038,9.62160993367e-06,679.518656202,1.15778810636,,,,x,1,1.13386313908,2018_Nov_13_1540,59.9680734108,chinese_cond2,001,1010,
images/bowtie.jpg,bowtie,z,sounds/animalfarm_english.wav,,,,,,,,,0,1,1,1,0,41,41,89,680.627479235,9.62160993367e-06,681.469126664,0.841657050536,,,,x,0,0.817111171898,2018_Nov_13_1540,59.9680734108,chinese_cond2,001,1010,
images/skateboard.jpg,key,x,sounds/animalfarm_english.wav,,,,,,,,,0,1,1,1,0,42,42,189,682.558949685,8.98016151041e-06,683.469611911,0.910671847756,,,,x,1,0.900448621251,2018_Nov_13_1540,59.9680734108,chinese_cond2,001,1010,
images/umbrella01.jpg,umbrella,z,sounds/animalfarm_english.wav,,,,,,,,,0,1,1,1,0,43,43,53,684.581433022,9.30076930672e-06,685.453422677,0.871998955728,,,,z,1,0.850448589073,2018_Nov_13_1540,59.9680734108,chinese_cond2,001,1010,
images/tissuebox03.jpg,tissue box,z,sounds/animalfarm_english.wav,,,,,,,,,0,1,1,1,0,44,44,58,686.578592738,9.30088572204e-06,688.270845908,1.69226311252,,,,z,1,1.66738176218,2018_Nov_13_1540,59.9680734108,chinese_cond2,001,1010,
images/ladybug03.jpg,giraffe,x,sounds/animalfarm_english.wav,,,,,,,,,0,1,1,1,0,45,45,178,689.373739496,9.62149351835e-06,690.454639163,1.08090992994,,,,z,0,1.06716264726,2018_Nov_13_1540,59.9680734108,chinese_cond2,001,1010,
images/gps.jpg,gps,z,sounds/animalfarm_english.wav,,,,,,,,,0,1,1,1,0,46,46,21,691.571282278,9.62160993367e-06,692.338432866,0.767160851276,,,,z,1,0.750423829653,2018_Nov_13_1540,59.9680734108,chinese_cond2,001,1010,
images/straw.jpg,straw,z,sounds/animalfarm_english.wav,,,,,,,,,0,1,1,1,0,47,47,109,693.428450243,9.62149351835e-06,694.772370284,1.34393062466,,,,z,1,1.33390143292,2018_Nov_13_1540,59.9680734108,chinese_cond2,001,1010,
images/nametag01a.jpg,name tag,z,sounds/animalfarm_english.wav,,,,,,,,,0,1,1,1,0,48,48,108,695.891920713,8.98016151041e-06,696.706172358,0.814260945655,,,,z,1,0.800425465219,2018_Nov_13_1540,59.9680734108,chinese_cond2,001,1010,
images/bottleofredwine02.jpg,pipe,x,sounds/animalfarm_english.wav,,,,,,,,,0,1,1,1,0,49,49,213,697.868235002,9.30076930672e-06,698.790013977,0.921788596315,,,,x,1,0.900470750756,2018_Nov_13_1540,59.9680734108,chinese_cond2,001,1010,
images/computerkeyboard01a.jpg,computer keyboard,z,sounds/animalfarm_english.wav,,,,,,,,,0,1,1,1,0,50,50,61,699.905287624,9.30076930672e-06,701.023875577,1.11859757442,,,,z,1,1.10050391313,2018_Nov_13_1540,59.9680734108,chinese_cond2,001,1010,
images/doll.jpg,carrot,x,sounds/animalfarm_english.wav,,,,,,,,,0,1,1,1,0,51,51,146,702.133038251,9.94233414531e-06,703.107735797,0.974707167945,,,,x,1,0.950490346644,2018_Nov_13_1540,59.9680734108,chinese_cond2,001,1010,
images/blackolive.jpg,tank,x,sounds/animalfarm_english.wav,,,,,,,,,0,1,1,1,0,52,52,229,704.2212224,9.62149351835e-06,704.841474561,0.620262104087,,,,x,1,0.600384605816,2018_Nov_13_1540,59.9680734108,chinese_cond2,001,1010,
images/barrel01.jpg,barrel,z,sounds/animalfarm_english.wav,,,,,,,,,0,1,1,1,0,53,53,9,706.041191495,9.30076930672e-06,707.042013818,1.00083226478,,,,x,0,0.983810124337,2018_Nov_13_1540,59.9680734108,chinese_cond2,001,1010,
images/lantern03.jpg,lantern,z,sounds/animalfarm_english.wav,,,,,,,,,0,1,1,1,0,54,54,5,708.14685962,9.62160993367e-06,708.825791421,0.678942064755,,,,x,0,0.667080928222,2018_Nov_13_1540,59.9680734108,chinese_cond2,001,1010,
images/ceilingfan02.jpg,paper clip,x,sounds/animalfarm_english.wav,,,,,,,,,0,1,1,1,0,55,55,208,709.922596166,8.98016151041e-06,710.726253513,0.803667609813,,,,x,1,0.783775999909,2018_Nov_13_1540,59.9680734108,chinese_cond2,001,1010,
images/tent.jpg,tent,z,sounds/animalfarm_english.wav,,,,,,,,,0,1,1,1,0,56,56,11,711.851780213,9.30088572204e-06,712.443326776,0.591556825908,,,,x,0,0.567046226468,2018_Nov_13_1540,59.9680734108,chinese_cond2,001,1010,
images/butterfly.jpg,butterfly,z,sounds/animalfarm_english.wav,,,,,,,,,0,1,1,1,0,57,57,91,713.548959942,9.62160993367e-06,715.077298959,1.52834863914,,,,z,1,1.51727614959,2018_Nov_13_1540,59.9680734108,chinese_cond2,001,1010,
images/saltshaker03c.jpg,salt shaker,z,sounds/animalfarm_english.wav,,,,,,,,,0,1,1,1,0,58,58,63,716.186833026,9.30088572204e-06,717.67793565,1.4911119251,,,,z,1,1.46726553387,2018_Nov_13_1540,59.9680734108,chinese_cond2,001,1010,
images/sock03.jpg,sock,z,sounds/animalfarm_english.wav,,,,,,,,,0,1,1,1,0,59,59,90,718.847059876,8.98004509509e-06,720.345248778,1.49819820281,,,,z,1,1.48393199733,2018_Nov_13_1540,59.9680734108,chinese_cond2,001,1010,
images/key03b.jpg,cigar,x,sounds/animalfarm_english.wav,,,,,,,,,0,1,1,1,0,60,60,153,721.520296036,9.30088572204e-06,722.72915794,1.20887184667,,,,x,1,1.20052867255,2018_Nov_13_1540,59.9680734108,chinese_cond2,001,1010,
images/cheetah.jpg,cheetah,z,sounds/animalfarm_english.wav,,,,,,,,,0,1,1,1,0,61,61,82,723.830130744,9.30088572204e-06,724.76299183,0.932871028199,,,,x,0,0.917015982675,2018_Nov_13_1540,59.9680734108,chinese_cond2,001,1010,
images/cockroach02.jpg,belt,x,sounds/animalfarm_english.wav,,,,,,,,,0,1,1,1,0,62,62,129,725.861751996,9.30088572204e-06,726.930198159,1.06845642626,,,,x,1,1.05050516396,2018_Nov_13_1540,59.9680734108,chinese_cond2,001,1010,
images/doorhandle.jpg,doll,x,sounds/animalfarm_english.wav,,,,,,,,,0,1,1,1,0,63,63,168,728.031383279,9.30088572204e-06,729.314110208,1.28273687151,,,,x,1,1.26721633563,2018_Nov_13_1540,59.9680734108,chinese_cond2,001,1010,
images/snowman.jpg,globe,x,sounds/animalfarm_english.wav,,,,,,,,,0,1,1,1,0,64,64,180,730.424140747,9.62149351835e-06,731.381264196,0.95713339129,,,,x,1,0.93379373569,2018_Nov_13_1540,59.9680734108,chinese_cond2,001,1010,
images/leaf01a.jpg,leaf,z,sounds/animalfarm_english.wav,,,,,,,,,0,1,1,1,0,65,65,68,732.482510572,8.65943729877e-06,733.465238592,0.982737320592,,,,z,1,0.967270023888,2018_Nov_13_1540,59.9680734108,chinese_cond2,001,1010,
images/squirrel.jpg,binder,x,sounds/animalfarm_english.wav,,,,,,,,,0,1,1,1,0,66,66,132,734.566992346,8.98016151041e-06,735.515617393,0.948634348111,,,,x,1,0.933810733608,2018_Nov_13_1540,59.9680734108,chinese_cond2,001,1010,
images/crocodile.jpg,triangle ruler,x,sounds/animalfarm_english.wav,,,,,,,,,0,1,1,1,0,67,67,235,736.611239969,8.98004509509e-06,738.066290934,1.45506058692,,,,x,1,1.43397943175,2018_Nov_13_1540,59.9680734108,chinese_cond2,001,1010,
images/pipe.jpg,icecube,x,sounds/animalfarm_english.wav,,,,,,,,,0,1,1,1,0,68,68,188,739.173241933,9.62149351835e-06,740.133410284,0.960177973146,,,,x,1,0.950479121529,2018_Nov_13_1540,59.9680734108,chinese_cond2,001,1010,
images/flipflop01b.jpg,flip flop,z,sounds/animalfarm_english.wav,,,,,,,,,0,1,1,1,0,69,69,27,741.249616902,9.30088572204e-06,742.267264764,1.01765780477,,,,x,0,1.00049134088,2018_Nov_13_1540,59.9680734108,chinese_cond2,001,1010,
images/microphone01.jpg,diaper,x,sounds/animalfarm_english.wav,,,,,,,,,0,1,1,1,0,70,70,164,743.386831871,9.30088572204e-06,743.700934382,0.314112132182,,,,x,1,0.300312572392,2018_Nov_13_1540,59.9680734108,chinese_cond2,001,1010,
images/lightbulb03b.jpg,treadmill,x,sounds/animalfarm_english.wav,,,,,,,,,0,1,1,1,0,71,71,234,744.866133974,9.30076930672e-06,745.601396152,0.735271799378,,,,x,1,0.71707262157,2018_Nov_13_1540,59.9680734108,chinese_cond2,001,1010,
images/magnifyingglass01b.jpg,magnifying glass,z,sounds/animalfarm_english.wav,,,,,,,,,0,1,1,1,0,72,72,64,746.706422839,8.98016151041e-06,748.568798954,1.86238573596,,,,z,1,1.85070420185,2018_Nov_13_1540,59.9680734108,chinese_cond2,001,1010,
images/lightswitch02a.jpg,fork,x,sounds/animalfarm_english.wav,,,,,,,,,0,1,1,1,0,73,73,177,749.679433726,9.62149351835e-06,750.852672773,1.17324866785,,,,x,1,1.15051356668,2018_Nov_13_1540,59.9680734108,chinese_cond2,001,1010,
images/weight01.jpg,weight,z,sounds/animalfarm_english.wav,,,,,,,,,0,1,1,1,0,74,74,67,751.956466938,9.30076930672e-06,752.90317954,0.946722223656,,,,x,0,0.93380303646,2018_Nov_13_1540,59.9680734108,chinese_cond2,001,1010,
images/charcoalbarbecue.jpg,charcoal barbecue,z,sounds/animalfarm_english.wav,,,,,,,,,0,1,1,1,0,75,75,77,754.018681539,9.94233414531e-06,755.85388541,1.83521349274,,,,x,0,1.81733888225,2018_Nov_13_1540,59.9680734108,chinese_cond2,001,1010,
images/handfan01b.jpg,handfan,z,sounds/animalfarm_english.wav,,,,,,,,,0,1,1,1,0,76,76,69,756.966698503,9.30088572204e-06,757.904400837,0.937711954932,,,,z,1,0.917139780126,2018_Nov_13_1540,59.9680734108,chinese_cond2,001,1010,
images/screwdriver02b.jpg,cola,x,sounds/animalfarm_english.wav,,,,,,,,,0,1,1,1,0,77,77,158,758.996903141,9.30076930672e-06,760.104931434,1.10803855548,,,,x,1,1.08384322247,2018_Nov_13_1540,59.9680734108,chinese_cond2,001,1010,
images/dragonfly02.jpg,dragon fly,z,sounds/animalfarm_english.wav,,,,,,,,,0,1,1,1,0,78,78,29,761.201178128,9.62160993367e-06,762.422160309,1.22099244455,,,,z,1,1.20053636981,2018_Nov_13_1540,59.9680734108,chinese_cond2,001,1010,
images/cocktailshrimp01.jpg,cocktail shrimp,z,sounds/animalfarm_english.wav,,,,,,,,,0,1,1,1,0,79,79,30,763.535392903,8.98016151041e-06,764.472667718,0.93728379556,,,,z,1,0.917139459285,2018_Nov_13_1540,59.9680734108,chinese_cond2,001,1010,
images/redfox.jpg,red fox,z,sounds/animalfarm_english.wav,,,,,,,,,0,1,1,1,0,80,80,1,765.584044313,9.30088572204e-06,766.439806247,0.855771235307,,,,z,1,0.833774428349,2018_Nov_13_1540,59.9680734108,chinese_cond2,001,1010,
images/donut.jpg,rhinoceros,x,sounds/animalfarm_english.wav,,,,,,,,,0,1,1,1,0,81,81,216,767.564170984,9.30088572204e-06,768.473634043,0.909472680883,,,,x,1,0.900447979686,2018_Nov_13_1540,59.9680734108,chinese_cond2,001,1010,
images/carrot02.jpg,corkscrew,x,sounds/animalfarm_english.wav,,,,,,,,,0,1,1,1,0,82,82,161,769.57465271,9.62160993367e-06,770.490787358,0.916144910967,,,,x,1,0.900460166973,2018_Nov_13_1540,59.9680734108,chinese_cond2,001,1010,
images/button07.jpg,radish,x,sounds/animalfarm_english.wav,,,,,,,,,0,1,1,1,0,83,83,215,771.645654038,9.30088572204e-06,772.491291207,0.845646789996,,,,x,1,0.833787577809,2018_Nov_13_1540,59.9680734108,chinese_cond2,001,1010,
images/eyedrops.jpg,bicycle,x,sounds/animalfarm_english.wav,,,,,,,,,0,1,1,1,0,84,84,131,773.657189966,8.98016151041e-06,775.475335776,1.81815543177,,,,x,1,1.80067049433,2018_Nov_13_1540,59.9680734108,chinese_cond2,001,1010,
images/parkbench03.jpg,park bench,z,sounds/animalfarm_english.wav,,,,,,,,,0,1,1,1,0,85,85,71,776.580546556,9.30076930672e-06,777.692544703,1.11200776906,,,,x,0,1.10050006444,2018_Nov_13_1540,59.9680734108,chinese_cond2,001,1010,
images/puzzle.jpg,puzzle,z,sounds/animalfarm_english.wav,,,,,,,,,0,1,1,1,0,86,86,57,778.884042581,9.62160993367e-06,779.759557254,0.875525256968,,,,x,0,0.866938978201,2018_Nov_13_1540,59.9680734108,chinese_cond2,001,1010,
images/cactus.jpg,cactus,z,sounds/animalfarm_english.wav,,,,,,,,,0,1,1,1,0,87,87,70,780.96107374,9.62160993367e-06,781.793543165,0.832479366567,,,,x,0,0.817110530566,2018_Nov_13_1540,59.9680734108,chinese_cond2,001,1010,
images/egg01b (1).jpg,egg,z,sounds/animalfarm_english.wav,,,,,,,,,0,1,1,1,0,88,88,19,782.972346037,9.62149351835e-06,784.610894875,1.63855845958,,,,z,1,1.61730283336,2018_Nov_13_1540,59.9680734108,chinese_cond2,001,1010,
images/razor04a.jpg,razor,z,sounds/animalfarm_english.wav,,,,,,,,,0,1,1,1,0,89,89,36,785.710798083,9.62160993367e-06,787.528270384,1.81748192268,,,,x,0,1.80067498446,2018_Nov_13_1540,59.9680734108,chinese_cond2,001,1010,
images/cola.jpg,comb,x,sounds/animalfarm_english.wav,,,,,,,,,0,1,1,1,0,90,90,157,788.649710487,8.98016151041e-06,790.228928947,1.57922744018,,,,x,1,1.56726271147,2018_Nov_13_1540,59.9680734108,chinese_cond2,001,1010,
images/8ball.jpg,nail clipper,x,sounds/animalfarm_english.wav,,,,,,,,,0,1,1,1,0,91,91,206,791.402076589,9.62149351835e-06,792.546156219,1.14408925211,,,,x,1,1.13383459521,2018_Nov_13_1540,59.9680734108,chinese_cond2,001,1010,
images/envelope02a.jpg,grand piano,x,sounds/animalfarm_english.wav,,,,,,,,,0,1,1,1,0,92,92,182,793.669374066,8.98016151041e-06,794.830097069,1.16073230328,,,,x,1,1.1505658438,2018_Nov_13_1540,59.9680734108,chinese_cond2,001,1010,
images/gamecontroller01.jpg,game controller,z,sounds/animalfarm_english.wav,,,,,,,,,0,1,1,1,0,93,93,112,795.949954426,8.98016151041e-06,796.963918194,1.01397403073,,,,z,1,1.00050000031,2018_Nov_13_1540,59.9680734108,chinese_cond2,001,1010,
images/clothespin02a.jpg,clothes pin,z,sounds/animalfarm_english.wav,,,,,,,,,0,1,1,1,0,94,94,79,798.068855721,9.30088572204e-06,799.597871775,1.52902567608,,,,z,1,1.5170981508,2018_Nov_13_1540,59.9680734108,chinese_cond2,001,1010,
images/safe.jpg,safe,z,sounds/animalfarm_english.wav,,,,,,,,,0,1,1,1,0,95,95,78,800.708835605,9.30088572204e-06,801.798264463,1.08943912096,,,,z,1,1.06701992755,2018_Nov_13_1540,59.9680734108,chinese_cond2,001,1010,
images/computermouse02a.jpg,world map,x,sounds/animalfarm_english.wav,,,,,,,,,0,1,1,1,0,96,96,239,802.900386722,9.62160993367e-06,804.349230821,1.44889348873,,,,x,1,1.43405223486,2018_Nov_13_1540,59.9680734108,chinese_cond2,001,1010,
images/ashtray02b.jpg,ashtray,z,sounds/animalfarm_english.wav,,,,,,,,,0,1,1,1,0,97,97,43,805.525748253,9.30076930672e-06,806.916327079,1.39058876876,,,,x,0,1.36723949155,2018_Nov_13_1540,59.9680734108,chinese_cond2,001,1010,
images/banjo.jpg,knife,x,sounds/animalfarm_english.wav,,,,,,,,,0,1,1,1,0,98,98,191,808.013119957,9.30076930672e-06,808.933494505,0.920384811005,,,,x,1,0.900466260733,2018_Nov_13_1540,59.9680734108,chinese_cond2,001,1010,
images/highlighter03b.jpg,coin,x,sounds/animalfarm_english.wav,,,,,,,,,0,1,1,1,0,99,99,156,810.035402524,8.98004509509e-06,810.917309119,0.881916537415,,,,x,1,0.86706469988,2018_Nov_13_1540,59.9680734108,chinese_cond2,001,1010,
images/fryingpan01.jpg,frying pan,z,sounds/animalfarm_english.wav,,,,,,,,,0,1,1,1,0,100,100,45,812.042743773,9.30088572204e-06,813.984723852,1.94199002057,,,,z,1,1.91738384694,2018_Nov_13_1540,59.9680734108,chinese_cond2,001,1010,
images/fork01.jpg,cooking pot,x,sounds/animalfarm_english.wav,,,,,,,,,0,1,1,1,0,101,101,160,815.096408336,9.62160993367e-06,816.552018314,1.45561992016,,,,x,1,1.43393228599,2018_Nov_13_1540,59.9680734108,chinese_cond2,001,1010,
images/lip.jpg,boxing glove,x,sounds/animalfarm_english.wav,,,,,,,,,0,1,1,1,0,102,102,136,817.723286865,9.62160993367e-06,819.402699104,1.67942185979,,,,x,1,1.66731184558,2018_Nov_13_1540,59.9680734108,chinese_cond2,001,1010,
images/hairband.jpg,hairband,z,sounds/animalfarm_english.wav,,,,,,,,,0,1,1,1,0,103,103,66,820.512274864,9.94233414531e-06,822.220054022,1.70778877987,,,,z,1,1.68398921366,2018_Nov_13_1540,59.9680734108,chinese_cond2,001,1010,
images/plant01.jpg,plant,z,sounds/animalfarm_english.wav,,,,,,,,,0,1,1,1,0,104,104,47,823.395210003,9.30088572204e-06,824.453922998,1.05872229557,,,,z,1,1.05049105221,2018_Nov_13_1540,59.9680734108,chinese_cond2,001,1010,
images/puma.jpg,puma,z,sounds/animalfarm_english.wav,,,,,,,,,0,1,1,1,0,105,105,4,825.552929797,9.30088572204e-06,826.671128718,1.11820886354,,,,z,1,1.10050872387,2018_Nov_13_1540,59.9680734108,chinese_cond2,001,1010,
images/bandaid01.jpg,door handle,x,sounds/animalfarm_english.wav,,,,,,,,,0,1,1,1,0,106,106,170,827.778631673,8.65943729877e-06,828.788324752,1.00970237958,,,,x,1,1.00048556796,2018_Nov_13_1540,59.9680734108,chinese_cond2,001,1010,
images/fireextinguisher02.jpg,fire extinguisher,z,sounds/animalfarm_english.wav,,,,,,,,,0,1,1,1,0,107,107,175,829.89885497,9.62149351835e-06,831.02219886,1.12335415219,,,,z,1,1.10051706259,2018_Nov_13_1540,59.9680734108,chinese_cond2,001,1010,
images/stapler03a.jpg,candy cane,x,sounds/animalfarm_english.wav,,,,,,,,,0,1,1,1,0,108,108,145,832.199249326,8.98016151041e-06,833.222732664,1.0234926386,,,,x,1,1.00048909592,2018_Nov_13_1540,59.9680734108,chinese_cond2,001,1010,
images/tank.jpg,wallet,x,sounds/animalfarm_english.wav,,,,,,,,,0,1,1,1,0,109,109,237,834.399281205,9.30088572204e-06,835.323239784,0.923968200106,,,,x,1,0.900455356226,2018_Nov_13_1540,59.9680734108,chinese_cond2,001,1010,
images/swallow.jpg,mattress,x,sounds/animalfarm_english.wav,,,,,,,,,0,1,1,1,0,110,110,202,836.424947675,8.98004509509e-06,837.190360289,0.765422556316,,,,x,1,0.750423829653,2018_Nov_13_1540,59.9680734108,chinese_cond2,001,1010,
images/toothbrush03a.jpg,parrot,x,sounds/animalfarm_english.wav,,,,,,,,,0,1,1,1,0,111,111,210,838.35367149,9.62149351835e-06,839.290888577,0.93722734903,,,,x,1,0.917148439563,2018_Nov_13_1540,59.9680734108,chinese_cond2,001,1010,
images/hairdryer03a.jpg,hairdryer,z,sounds/animalfarm_english.wav,,,,,,,,,0,1,1,1,0,112,112,119,840.390601277,9.30088572204e-06,841.191349064,0.800757729798,,,,z,1,0.783772792667,2018_Nov_13_1540,59.9680734108,chinese_cond2,001,1010,
images/ear.jpg,bullet,x,sounds/animalfarm_english.wav,,,,,,,,,0,1,1,1,0,113,113,139,842.357779896,9.30076930672e-06,843.375211915,1.0174419611,,,,x,1,1.00049583102,2018_Nov_13_1540,59.9680734108,chinese_cond2,001,1010,
images/peach01.jpg,peach,z,sounds/animalfarm_english.wav,,,,,,,,,0,1,1,1,0,114,114,106,844.503973062,8.65932088345e-06,845.392359456,0.888395694899,,,,z,1,0.867121467018,2018_Nov_13_1540,59.9680734108,chinese_cond2,001,1010,
images/ostrich.jpg,ostrich,z,sounds/animalfarm_english.wav,,,,,,,,,0,1,1,1,0,115,115,76,846.492697237,9.62160993367e-06,847.392856249,0.90016959596,,,,z,1,0.883798834984,2018_Nov_13_1540,59.9680734108,chinese_cond2,001,1010,
images/shotglass.jpg,shot glass,z,sounds/animalfarm_english.wav,,,,,,,,,0,1,1,1,0,116,116,86,848.501743747,9.30088572204e-06,849.76009542,1.25836097391,,,,x,0,1.23386641045,2018_Nov_13_1540,59.9680734108,chinese_cond2,001,1010,
images/candy.jpg,candy,z,sounds/animalfarm_english.wav,,,,,,,,,0,1,1,1,0,117,117,31,850.863880605,8.65943729877e-06,851.627282634,0.763411009335,,,,z,1,0.750488294056,2018_Nov_13_1540,59.9680734108,chinese_cond2,001,1010,
images/broom02.jpg,broom,z,sounds/animalfarm_english.wav,,,,,,,,,0,1,1,1,0,118,118,116,852.720716626,9.30088572204e-06,854.327861018,1.60715401359,,,,z,1,1.58395964338,2018_Nov_13_1540,59.9680734108,chinese_cond2,001,1010,
images/scooter.jpg,pen,x,sounds/animalfarm_english.wav,,,,,,,,,0,1,1,1,0,119,119,212,855.419096484,9.30076930672e-06,856.228323751,0.809236888541,,,,x,1,0.800426748232,2018_Nov_13_1540,59.9680734108,chinese_cond2,001,1010,
images/belt02a.jpg,snowman,x,sounds/animalfarm_english.wav,,,,,,,,,0,1,1,1,0,120,120,224,857.330308422,9.62149351835e-06,858.07877234,0.74847386044,,,,x,1,0.733751272433,2018_Nov_13_1540,59.9680734108,chinese_cond2,001,1010,
images/triangleruler02.jpg,bottle of red wine,x,sounds/animalfarm_english.wav,,,,,,,,,0,1,1,1,0,121,121,134,859.188447523,8.65943729877e-06,860.579399987,1.39096176461,,,,x,1,1.36725232028,2018_Nov_13_1540,59.9680734108,chinese_cond2,001,1010,
images/pineapple01a.jpg,pineapple,z,sounds/animalfarm_english.wav,,,,,,,,,0,1,1,1,0,122,122,51,861.761202862,8.98004509509e-06,863.41341752,1.65222460043,,,,z,1,1.6339769942,2018_Nov_13_1540,59.9680734108,chinese_cond2,001,1010,
images/lion.jpg,lion,z,sounds/animalfarm_english.wav,,,,,,,,,0,1,1,1,0,123,123,44,864.524004185,9.62160993367e-06,865.230520353,0.706525469199,,,,z,1,0.683734242339,2018_Nov_13_1540,59.9680734108,chinese_cond2,001,1010,
images/licenseplate.jpg,license plate,z,sounds/animalfarm_english.wav,,,,,,,,,0,1,1,1,0,124,124,40,866.346301697,8.98016151041e-06,867.080961566,0.734669169178,,,,z,1,0.717077753041,2018_Nov_13_1540,59.9680734108,chinese_cond2,001,1010,
images/medal01.jpg,medal,z,sounds/animalfarm_english.wav,,,,,,,,,0,1,1,1,0,125,125,115,868.258120756,8.98004509509e-06,869.348197465,1.09008601028,,,,x,0,1.06717772107,2018_Nov_13_1540,59.9680734108,chinese_cond2,001,1010,
images/bat.jpg,hand,x,sounds/animalfarm_english.wav,,,,,,,,,0,1,1,1,0,126,126,185,870.444918502,9.62160993367e-06,871.565389073,1.12048083416,,,,x,1,1.10048980138,2018_Nov_13_1540,59.9680734108,chinese_cond2,001,1010,
images/diaper01a.jpg,camera,x,sounds/animalfarm_english.wav,,,,,,,,,0,1,1,1,0,127,127,143,872.746764109,9.30088572204e-06,873.915967874,1.16921306553,,,,x,1,1.15052126406,2018_Nov_13_1540,59.9680734108,chinese_cond2,001,1010,
images/wallet01.jpg,lamp,x,sounds/animalfarm_english.wav,,,,,,,,,0,1,1,1,0,128,128,193,875.019122527,9.30088572204e-06,876.03314659,1.01403368439,,,,x,1,1.00048075721,2018_Nov_13_1540,59.9680734108,chinese_cond2,001,1010,
images/table02.jpg,table,z,sounds/animalfarm_english.wav,,,,,,,,,0,1,1,1,0,129,129,49,877.147815361,9.30088572204e-06,878.200357088,1.05255134869,,,,z,1,1.03383709677,2018_Nov_13_1540,59.9680734108,chinese_cond2,001,1010,
images/bench02.jpg,electric toothbrush,x,sounds/animalfarm_english.wav,,,,,,,,,0,1,1,1,0,130,130,172,879.372437057,9.30076930672e-06,880.951010232,1.57858279569,,,,x,1,1.56729189691,2018_Nov_13_1540,59.9680734108,chinese_cond2,001,1010,
images/gluestick.jpg,squirrel,x,sounds/animalfarm_english.wav,,,,,,,,,0,1,1,1,0,131,131,226,882.123580259,8.98016151041e-06,882.984845404,0.861274766736,,,,x,1,0.850436081062,2018_Nov_13_1540,59.9680734108,chinese_cond2,001,1010,
images/radio03a.jpg,radio,z,sounds/animalfarm_english.wav,,,,,,,,,0,1,1,1,0,132,132,37,884.097926618,8.98016151041e-06,885.452105165,1.35418784746,,,,x,0,1.33388732129,2018_Nov_13_1540,59.9680734108,chinese_cond2,001,1010,
images/parkingmeter.jpg,ear,x,sounds/animalfarm_english.wav,,,,,,,,,0,1,1,1,0,133,133,171,886.616143436,9.30076930672e-06,887.70266081,1.08652731648,,,,z,0,1.06715174287,2018_Nov_13_1540,59.9680734108,chinese_cond2,001,1010,
images/glasses01b.jpg,calculator,x,sounds/animalfarm_english.wav,,,,,,,,,0,1,1,1,0,134,134,142,888.794547014,9.30088572204e-06,889.936548708,1.14201131626,,,,x,1,1.13386827067,2018_Nov_13_1540,59.9680734108,chinese_cond2,001,1010,
images/drink.jpg,drink,z,sounds/animalfarm_english.wav,,,,,,,,,0,1,1,1,0,135,135,117,891.095391658,9.62160993367e-06,892.070385869,0.975004153326,,,,z,1,0.950456992025,2018_Nov_13_1540,59.9680734108,chinese_cond2,001,1010,
images/kiwi03.jpg,backpack,x,sounds/animalfarm_english.wav,,,,,,,,,0,1,1,1,0,136,136,125,893.197934059,9.30088572204e-06,894.220919321,1.02299488336,,,,x,1,1.00048620941,2018_Nov_13_1540,59.9680734108,chinese_cond2,001,1010,
images/broadsword.jpg,teapot,x,sounds/animalfarm_english.wav,,,,,,,,,0,1,1,1,0,137,137,231,895.312301034,9.30088572204e-06,896.971576313,1.65928490018,,,,x,1,1.65063383617,2018_Nov_13_1540,59.9680734108,chinese_cond2,001,1010,
images/cloud.jpg,ceiling fan,x,sounds/animalfarm_english.wav,,,,,,,,,0,1,1,1,0,138,138,149,898.075152389,9.62160993367e-06,898.955388361,0.880245593493,,,,x,1,0.867112807697,2018_Nov_13_1540,59.9680734108,chinese_cond2,001,1010,
images/highheelshoe02a.jpg,high heel shoe,z,sounds/animalfarm_english.wav,,,,,,,,,0,1,1,1,0,139,139,75,900.060396126,8.98016151041e-06,900.972564767,0.912178583792,,,,z,1,0.90047107148,2018_Nov_13_1540,59.9680734108,chinese_cond2,001,1010,
images/eraser.jpg,eraser,z,sounds/animalfarm_english.wav,,,,,,,,,0,1,1,1,0,140,140,110,902.078653033,9.62160993367e-06,902.806343044,0.727700274438,,,,z,1,0.71708577103,2018_Nov_13_1540,59.9680734108,chinese_cond2,001,1010,
images/pictureframe04.jpg,picture frame,z,sounds/animalfarm_english.wav,,,,,,,,,0,1,1,1,0,141,141,41,903.926545495,9.30088572204e-06,905.523658129,1.59712225606,,,,z,1,1.58395739831,2018_Nov_13_1540,59.9680734108,chinese_cond2,001,1010,
images/hammer02a.jpg,flower,x,sounds/animalfarm_english.wav,,,,,,,,,0,1,1,1,0,142,142,176,906.61805107,9.30076930672e-06,909.09120147,2.47316098341,,,,x,1,2.45084377856,2018_Nov_13_1540,59.9680734108,chinese_cond2,001,1010,
images/plate01b.jpg,plate,z,sounds/animalfarm_english.wav,,,,,,,,,0,1,1,1,0,143,143,3,910.254990863,8.98004509509e-06,911.275058226,1.02007698524,,,,z,1,1.00047915359,2018_Nov_13_1540,59.9680734108,chinese_cond2,001,1010,
images/cherry01.jpg,highlighter,x,sounds/animalfarm_english.wav,,,,,,,,,0,1,1,1,0,144,144,187,912.382187865,9.94233414531e-06,913.292311605,0.910160943051,,,,x,1,0.900472354377,2018_Nov_13_1540,59.9680734108,chinese_cond2,001,1010,
images/toucan.jpg,toucan,z,sounds/animalfarm_english.wav,,,,,,,,,0,1,1,1,0,145,145,81,914.462418513,9.94221772999e-06,915.392743036,0.930334464647,,,,x,0,0.91714010085,2018_Nov_13_1540,59.9680734108,chinese_cond2,001,1010,
images/rubberglove02a.jpg,lady bug,x,sounds/animalfarm_english.wav,,,,,,,,,0,1,1,1,0,146,146,192,916.496149452,9.30076930672e-06,917.576591775,1.08045226452,,,,x,1,1.06716296799,2018_Nov_13_1540,59.9680734108,chinese_cond2,001,1010,
images/beermug01b.jpg,beer mug,z,sounds/animalfarm_english.wav,,,,,,,,,0,1,1,1,0,147,147,111,918.691808333,9.62149351835e-06,920.09389294,1.40209454915,,,,z,1,1.38392872608,2018_Nov_13_1540,59.9680734108,chinese_cond2,001,1010,
images/hairpin.jpg,hair pin,z,sounds/animalfarm_english.wav,,,,,,,,,0,1,1,1,0,148,148,28,921.183601785,9.30076930672e-06,923.211303856,2.02771201264,,,,x,0,2.01739834342,2018_Nov_13_1540,59.9680734108,chinese_cond2,001,1010,
images/flamingo.jpg,flamingo,z,sounds/animalfarm_english.wav,,,,,,,,,0,1,1,1,0,149,149,52,924.30830937,9.30088572204e-06,925.795273121,1.48697369278,,,,z,1,1.46727515548,2018_Nov_13_1540,59.9680734108,chinese_cond2,001,1010,
images/calculator02b.jpg,dice,x,sounds/animalfarm_english.wav,,,,,,,,,0,1,1,1,0,150,150,165,926.895867156,8.98004509509e-06,928.179190622,1.28333276673,,,,x,1,1.26720895909,2018_Nov_13_1540,59.9680734108,chinese_cond2,001,1010,
images/sportshorts02.jpg,tape,x,sounds/animalfarm_english.wav,,,,,,,,,0,1,1,1,0,151,151,230,929.285818657,8.98004509509e-06,930.079648544,0.793839829275,,,,x,1,0.783770868322,2018_Nov_13_1540,59.9680734108,chinese_cond2,001,1010,
images/candle08a.jpg,screw driver,x,sounds/animalfarm_english.wav,,,,,,,,,0,1,1,1,0,152,152,221,931.192000123,9.62160993367e-06,931.880091007,0.688101146952,,,,x,1,0.667081248946,2018_Nov_13_1540,59.9680734108,chinese_cond2,001,1010,
images/basketball01.jpg,basket ball,z,sounds/animalfarm_english.wav,,,,,,,,,0,1,1,1,0,153,153,33,933.017542987,8.98004509509e-06,934.1472974,1.12976435514,,,,z,1,1.11717903602,2018_Nov_13_1540,59.9680734108,chinese_cond2,001,1010,
images/flower01.jpg,bus,x,sounds/animalfarm_english.wav,,,,,,,,,0,1,1,1,0,154,154,140,935.260106966,8.98004509509e-06,936.647901634,1.38780461054,,,,x,1,1.36721190962,2018_Nov_13_1540,59.9680734108,chinese_cond2,001,1010,
images/cookingpot.jpg,grasshopper,x,sounds/animalfarm_english.wav,,,,,,,,,0,1,1,1,0,155,155,183,937.760671751,8.98016151041e-06,938.531709129,0.77104667807,,,,x,1,0.750432488974,2018_Nov_13_1540,59.9680734108,chinese_cond2,001,1010,
images/orange.jpg,bat,x,sounds/animalfarm_english.wav,,,,,,,,,0,1,1,1,0,156,156,128,939.654777841,9.30088572204e-06,940.448829345,0.794061445864,,,,x,1,0.783759643207,2018_Nov_13_1540,59.9680734108,chinese_cond2,001,1010,
images/grasshopper.jpg,cauliflower,x,sounds/animalfarm_english.wav,,,,,,,,,0,1,1,1,0,157,157,148,941.540989763,8.98016151041e-06,942.299306157,0.758326336276,,,,x,1,0.733775005559,2018_Nov_13_1540,59.9680734108,chinese_cond2,001,1010,
images/tulip02.jpg,sport shorts,x,sounds/animalfarm_english.wav,,,,,,,,,0,1,1,1,0,158,158,225,943.45965873,9.30088572204e-06,944.266422878,0.806774731842,,,,x,1,0.783759643207,2018_Nov_13_1540,59.9680734108,chinese_cond2,001,1010,
images/bowlingball.jpg,bowling ball,z,sounds/animalfarm_english.wav,,,,,,,,,0,1,1,1,0,159,159,20,945.455175725,9.30088572204e-06,946.550449038,1.09528325556,,,,x,0,1.08396669908,2018_Nov_13_1540,59.9680734108,chinese_cond2,001,1010,
images/marker01a.jpg,marker,z,sounds/animalfarm_english.wav,,,,,,,,,0,1,1,1,0,160,160,95,947.647572898,8.98016151041e-06,949.501042015,1.85347841796,,,,z,1,1.83402619243,2018_Nov_13_1540,59.9680734108,chinese_cond2,001,1010,
images/dreamcatcher.jpg,dream catcher,z,sounds/animalfarm_english.wav,,,,,,,,,0,1,1,1,0,161,161,48,950.598324309,8.98004509509e-06,952.251706063,1.65339105413,,,,z,1,1.63397346635,2018_Nov_13_1540,59.9680734108,chinese_cond2,001,1010,
images/chessknight02b (1).jpg,cockroach,x,sounds/animalfarm_english.wav,,,,,,,,,0,1,1,1,0,162,162,155,953.359111199,9.30088572204e-06,954.919142026,1.56004076975,,,,x,1,1.55073768494,2018_Nov_13_1540,59.9680734108,chinese_cond2,001,1010,
images/nailclipper03a.jpg,aquarium,x,sounds/animalfarm_english.wav,,,,,,,,,0,1,1,1,0,163,163,123,956.016798279,9.30088572204e-06,957.002858565,0.986069907667,,,,x,1,0.967141415807,2018_Nov_13_1540,59.9680734108,chinese_cond2,001,1010,
images/50dollarbill.jpg,cherry,x,sounds/animalfarm_english.wav,,,,,,,,,0,1,1,1,0,164,164,151,958.12334421,9.30088572204e-06,959.45345988,1.33012529195,,,,x,1,1.31722983788,2018_Nov_13_1540,59.9680734108,chinese_cond2,001,1010,
images/pouch01b.jpg,pouch,z,sounds/animalfarm_english.wav,,,,,,,,,0,1,1,1,0,165,165,25,960.564184134,9.62160993367e-06,961.837376098,1.27320190717,,,,x,0,1.25054987206,2018_Nov_13_1540,59.9680734108,chinese_cond2,001,1010,
images/nailpolish02b.jpg,nail polish,z,sounds/animalfarm_english.wav,,,,,,,,,0,1,1,1,0,166,166,94,962.944851151,9.62160993367e-06,963.904556064,0.959715176257,,,,z,1,0.950486177346,2018_Nov_13_1540,59.9680734108,chinese_cond2,001,1010,
images/candycane01a.jpg,lip,x,sounds/animalfarm_english.wav,,,,,,,,,0,1,1,1,0,167,167,200,964.997053558,9.30088572204e-06,966.005074731,1.00803111482,,,,x,1,0.9838354612,2018_Nov_13_1540,59.9680734108,chinese_cond2,001,1010,
images/acousticguitar02.jpg,acoustic guitar,z,sounds/animalfarm_english.wav,,,,,,,,,0,1,1,1,0,168,168,97,967.118298023,1.15458387882e-05,968.272284973,1.1539972123,,,,z,1,1.13386217691,2018_Nov_13_1540,59.9680734108,chinese_cond2,001,1010,
images/bracelet02a.jpg,chess knight,x,sounds/animalfarm_english.wav,,,,,,,,,0,1,1,1,0,169,169,152,969.450872002,1.02629419416e-05,970.339458204,0.888596464763,,,,x,1,0.867137502995,2018_Nov_13_1540,59.9680734108,chinese_cond2,001,1010,
images/ruler02b.jpg,watermelon,x,sounds/animalfarm_english.wav,,,,,,,,,0,1,1,1,0,170,170,238,971.440785081,8.98004509509e-06,972.289916799,0.84914101928,,,,x,1,0.833778597647,2018_Nov_13_1540,59.9680734108,chinese_cond2,001,1010,
images/cat.jpg,black olive,x,sounds/animalfarm_english.wav,,,,,,,,,0,1,1,1,0,171,171,133,973.485203647,8.65943729877e-06,974.440437422,0.9552424344,,,,x,1,0.933795339195,2018_Nov_13_1540,59.9680734108,chinese_cond2,001,1010,
images/electrictoothbrush01a.jpg,banjo,x,sounds/animalfarm_english.wav,,,,,,,,,0,1,1,1,0,172,172,127,975.533771349,8.98016151041e-06,976.774356494,1.24059508694,,,,x,1,1.21721758647,2018_Nov_13_1540,59.9680734108,chinese_cond2,001,1010,
images/camera01a.jpg,bull,x,sounds/animalfarm_english.wav,,,,,,,,,0,1,1,1,0,173,173,138,977.885569202,9.62160993367e-06,978.808160878,0.922601618106,,,,x,1,0.900455997791,2018_Nov_13_1540,59.9680734108,chinese_cond2,001,1010,
images/mirror02.jpg,8 ball,x,sounds/animalfarm_english.wav,,,,,,,,,0,1,1,1,0,174,174,121,979.908100005,8.98016151041e-06,981.19207902,1.28398831561,,,,x,1,1.26721473201,2018_Nov_13_1540,59.9680734108,chinese_cond2,001,1010,
images/bicycle.jpg,hand bag,x,sounds/animalfarm_english.wav,,,,,,,,,0,1,1,1,0,175,175,186,982.300881848,9.62149351835e-06,983.142552368,0.841679821489,,,,x,1,0.817104116199,2018_Nov_13_1540,59.9680734108,chinese_cond2,001,1010,
images/bullet (2).jpg,rubber glove,x,sounds/animalfarm_english.wav,,,,,,,,,0,1,1,1,0,176,176,217,984.245838836,9.62149351835e-06,985.193069078,0.947240184178,,,,x,1,0.933813940967,2018_Nov_13_1540,59.9680734108,chinese_cond2,001,1010,
images/diploma01.jpg,glasses,x,sounds/animalfarm_english.wav,,,,,,,,,0,1,1,1,0,177,177,179,986.322808738,9.30088572204e-06,987.193539893,0.870740776649,,,,x,1,0.850446023396,2018_Nov_13_1540,59.9680734108,chinese_cond2,001,1010,
images/remotecontrol01c.jpg,remote control,z,sounds/animalfarm_english.wav,,,,,,,,,0,1,1,1,0,178,178,85,988.302867737,8.98016151041e-06,989.610793849,1.30793509167,,,,z,1,1.28387285687,2018_Nov_13_1540,59.9680734108,chinese_cond2,001,1010,
images/atm.jpg,atm,z,sounds/animalfarm_english.wav,,,,,,,,,0,1,1,1,0,179,179,96,990.748110807,9.30088572204e-06,991.611286794,0.863185928902,,,,z,1,0.85044634412,2018_Nov_13_1540,59.9680734108,chinese_cond2,001,1010,
images/arrow02.jpg,hammer,x,sounds/animalfarm_english.wav,,,,,,,,,0,1,1,1,0,180,180,184,992.708646381,8.98004509509e-06,994.211916749,1.50327998924,,,,z,0,1.48392013088,2018_Nov_13_1540,59.9680734108,chinese_cond2,001,1010,
images/masquerademask02b.jpg,mirror,x,sounds/animalfarm_english.wav,,,,,,,,,0,1,1,1,0,181,181,204,995.315176276,9.94233414531e-06,996.52915685,1.2139908364,,,,x,1,1.20054246346,2018_Nov_13_1540,59.9680734108,chinese_cond2,001,1010,
images/flashlight05.jpg,flash light,z,sounds/animalfarm_english.wav,,,,,,,,,0,1,1,1,0,182,182,8,997.632091489,9.62160993367e-06,998.729695786,1.09761423839,,,,z,1,1.08384803322,2018_Nov_13_1540,59.9680734108,chinese_cond2,001,1010,
images/ladder.jpg,ladder,z,sounds/animalfarm_english.wav,,,,,,,,,0,1,1,1,0,183,183,113,999.821517204,8.98004509509e-06,1000.76352069,0.942013112246,,,,z,1,0.933806243585,2018_Nov_13_1540,59.9680734108,chinese_cond2,001,1010,
images/battery03b.jpg,battery,z,sounds/animalfarm_english.wav,,,,,,,,,0,1,1,1,0,184,184,34,1001.94180817,8.98016151041e-06,1003.39748294,1.45568406396,,,,z,1,1.43391977798,2018_Nov_13_1540,59.9680734108,chinese_cond2,001,1010,
images/axe01.jpg,axe,z,sounds/animalfarm_english.wav,,,,,,,,,0,1,1,1,0,185,185,104,1004.50028929,9.30088572204e-06,1005.81475517,1.31447614788,,,,z,1,1.30056561925,2018_Nov_13_1540,59.9680734108,chinese_cond2,001,1010,
images/elbow.jpg,elbow,z,sounds/animalfarm_english.wav,,,,,,,,,0,1,1,1,0,186,186,105,1006.9250503,9.30088572204e-06,1008.03197019,1.10692918987,,,,z,1,1.0838573341,2018_Nov_13_1540,59.9680734108,chinese_cond2,001,1010,
images/grandpiano.jpg,tulip,x,sounds/animalfarm_english.wav,,,,,,,,,0,1,1,1,0,187,187,236,1009.14489105,9.30088572204e-06,1009.89906889,0.754187783343,,,,x,1,0.733750951826,2018_Nov_13_1540,59.9680734108,chinese_cond2,001,1010,
images/hanger02a.jpg,hanger,z,sounds/animalfarm_english.wav,,,,,,,,,0,1,1,1,0,188,188,88,1010.99194355,8.98016151041e-06,1011.78286452,0.790930269985,,,,x,0,0.767090934678,2018_Nov_13_1540,59.9680734108,chinese_cond2,001,1010,
images/apple06.jpg,apple,z,sounds/animalfarm_english.wav,,,,,,,,,0,1,1,1,0,189,189,13,1012.97311544,9.62160993367e-06,1014.40017248,1.42706730415,,,,z,1,1.41725716309,2018_Nov_13_1540,59.9680734108,chinese_cond2,001,1010,
images/daisy.jpg,daisy,z,sounds/animalfarm_english.wav,,,,,,,,,0,1,1,1,0,190,190,6,1015.50108467,9.94221772999e-06,1016.9841302,1.48305547342,,,,x,0,1.4672632888,2018_Nov_13_1540,59.9680734108,chinese_cond2,001,1010,
images/feather03b.jpg,feather,z,sounds/animalfarm_english.wav,,,,,,,,,0,1,1,1,0,191,191,114,1018.08352282,9.30088572204e-06,1018.98461449,0.901101283613,,,,x,0,0.88378760987,2018_Nov_13_1540,59.9680734108,chinese_cond2,001,1010,
images/printer03a.jpg,printer,z,sounds/animalfarm_english.wav,,,,,,,,,0,1,1,1,0,192,192,72,1020.18306811,9.30076930672e-06,1021.0017694,0.818711237167,,,,z,1,0.800434124656,2018_Nov_13_1540,59.9680734108,chinese_cond2,001,1010,
images/handbag02a.jpg,candle,x,sounds/animalfarm_english.wav,,,,,,,,,0,1,1,1,0,193,193,144,1022.11719603,9.30088572204e-06,1023.51889834,1.40171225253,,,,x,1,1.38374848221,2018_Nov_13_1540,59.9680734108,chinese_cond2,001,1010,
images/thumbtack02a.jpg,thumb tack,z,sounds/animalfarm_english.wav,,,,,,,,,0,1,1,1,0,194,194,60,1024.62843273,9.62149351835e-06,1025.70291674,1.07449395407,,,,x,0,1.05049009016,2018_Nov_13_1540,59.9680734108,chinese_cond2,001,1010,
images/banana04a.jpg,banana,z,sounds/animalfarm_english.wav,,,,,,,,,0,1,1,1,0,195,195,118,1026.80850469,9.30088572204e-06,1028.27026605,1.46177066187,,,,z,1,1.45065038523,2018_Nov_13_1540,59.9680734108,chinese_cond2,001,1010,
images/cupcake.jpg,scissors,x,sounds/animalfarm_english.wav,,,,,,,,,0,1,1,1,0,196,196,219,1029.4637713,8.98016151041e-06,1030.32070835,0.856946348213,,,,x,1,0.833774749073,2018_Nov_13_1540,59.9680734108,chinese_cond2,001,1010,
images/lychee02a.jpg,lychee,z,sounds/animalfarm_english.wav,,,,,,,,,0,1,1,1,0,197,197,62,1031.5057755,9.30076930672e-06,1032.63793787,1.13217231049,,,,z,1,1.11717647035,2018_Nov_13_1540,59.9680734108,chinese_cond2,001,1010,
images/dryingmachine01.jpg,drying machine,z,sounds/animalfarm_english.wav,,,,,,,,,0,1,1,1,0,198,198,18,1033.75775289,9.94221772999e-06,1034.70510437,0.947361415834,,,,z,1,0.93379726354,2018_Nov_13_1540,59.9680734108,chinese_cond2,001,1010,
images/corn01.jpg,corn,z,sounds/animalfarm_english.wav,,,,,,,,,0,1,1,1,0,199,199,22,1035.80333438,9.62160993367e-06,1036.6555899,0.852266101516,,,,z,1,0.833781163441,2018_Nov_13_1540,59.9680734108,chinese_cond2,001,1010,
images/coffeepot03b.jpg,coffee pot,z,sounds/animalfarm_english.wav,,,,,,,,,0,1,1,1,0,200,200,107,1037.77587991,9.62149351835e-06,1039.13952478,1.36365481943,,,,z,1,1.35056725505,2018_Nov_13_1540,59.9680734108,chinese_cond2,001,1010,
images/graduationcap.jpg,graduation cap,z,sounds/animalfarm_english.wav,,,,,,,,,0,1,1,1,0,201,201,35,1040.24082825,8.98004509509e-06,1041.07336053,0.832542227348,,,,z,1,0.817134263692,2018_Nov_13_1540,59.9680734108,chinese_cond2,001,1010,
images/chameleon.jpg,50 dollar bill,x,sounds/animalfarm_english.wav,,,,,,,,,0,1,1,1,0,202,202,120,1042.30213105,8.98004509509e-06,1043.52393491,1.2218134841,,,,x,1,1.20053540764,2018_Nov_13_1540,59.9680734108,chinese_cond2,001,1010,
images/seagull.jpg,seagull,z,sounds/animalfarm_english.wav,,,,,,,,,0,1,1,1,0,203,203,50,1044.6301845,9.30088572204e-06,1045.75780356,1.12762868998,,,,x,0,1.1171816017,2018_Nov_13_1540,59.9680734108,chinese_cond2,001,1010,
images/leek.jpg,donut,x,sounds/animalfarm_english.wav,,,,,,,,,0,1,1,1,0,204,204,169,1046.93670362,8.98016151041e-06,1047.87499286,0.93829854927,,,,x,1,0.91714010085,2018_Nov_13_1540,59.9680734108,chinese_cond2,001,1010,
images/cauliflower01.jpg,glue stick,x,sounds/animalfarm_english.wav,,,,,,,,,0,1,1,1,0,205,205,181,1048.99154041,9.62160993367e-06,1050.10870148,1.11717133888,,,,x,1,1.10034547816,2018_Nov_13_1540,59.9680734108,chinese_cond2,001,1010,
images/mitten01.jpg,mitten,z,sounds/animalfarm_english.wav,,,,,,,,,0,1,1,1,0,206,206,102,1051.22811496,9.94233414531e-06,1052.17603892,0.947934219381,,,,x,0,0.933805281529,2018_Nov_13_1540,59.9680734108,chinese_cond2,001,1010,
images/bowl02b (1).jpg,bowl,z,sounds/animalfarm_english.wav,,,,,,,,,0,1,1,1,0,207,207,24,1053.35715193,9.94233414531e-06,1054.19319127,0.836049606209,,,,z,1,0.817103474634,2018_Nov_13_1540,59.9680734108,chinese_cond2,001,1010,
images/parkfountain.jpg,park fountain,z,sounds/animalfarm_english.wav,,,,,,,,,0,1,1,1,0,208,208,93,1055.37943802,9.62160993367e-06,1056.76047868,1.38105059729,,,,x,0,1.36722986994,2018_Nov_13_1540,59.9680734108,chinese_cond2,001,1010,
,,,sounds/animalfarm_english.wav,,,,,,,,,0,1,1,1,,,,,,,,,,,,,,,2018_Nov_13_1540,59.9680734108,chinese_cond2,001,1010,
