images,name,corrAns,sounds,trials_3.thisRepN,trials_3.thisTrialN,trials_3.thisN,trials_3.thisIndex,trials_4.thisRepN,trials_4.thisTrialN,trials_4.thisN,trials_4.thisIndex,trials_2.thisRepN,trials_2.thisTrialN,trials_2.thisN,trials_2.thisIndex,trials.thisRepN,trials.thisTrialN,trials.thisN,trials.thisIndex,begin_global,begin_routine,end_global,end_routine,key_resp_2.keys,key_resp_2.corr,key_resp_2.rt,begin_book,key_resp_1.keys,key_resp_1.corr,key_resp_1.rt,date,frameRate,expName,session,participant,
images/volleyball.jpg,volley ball,z,,0,0,0,0,,,,,,,,,,,,,,,,,,,,,,,,2018_Nov_14_1236,59.9879748964,spanish_cond1,001,1015,
images/puma.jpg,puma,z,,,,,,0,0,0,0,,,,,,,,,48.1796384754,1.02635240182e-05,49.3156950092,1.13606711803,z,1,1.11726249906,,,,,2018_Nov_14_1236,59.9879748964,spanish_cond1,001,1015,
images/handfan01b.jpg,handfan,z,sounds/animalfarm_spanish.wav,,,,,,,,,0,0,0,1,0,0,0,69,91.5836475188,9.62195917964e-06,92.6282362435,1.04459866742,,,,81.3133972727,z,1,1.03388359479,2018_Nov_14_1236,59.9879748964,spanish_cond1,001,1015,
images/computermouse02a.jpg,world map,x,sounds/animalfarm_spanish.wav,,,,,,,,,0,0,0,1,0,1,1,239,93.738947756,9.94268339127e-06,94.7957051187,1.05676794692,,,,,x,1,1.03403915069,2018_Nov_14_1236,59.9879748964,spanish_cond1,001,1015,
images/chameleon.jpg,50 dollar bill,x,sounds/animalfarm_spanish.wav,,,,,,,,,0,0,0,1,0,2,2,120,95.9092230514,9.30123496801e-06,96.7961339398,0.88692083105,,,,,x,1,0.867172613391,2018_Nov_14_1236,59.9879748964,spanish_cond1,001,1015,
images/lily.jpg,kiwi,x,sounds/animalfarm_spanish.wav,,,,,,,,,0,0,0,1,0,3,3,190,97.897442822,8.98051075637e-06,98.9300745931,1.03264203446,,,,,x,1,1.01720993081,2018_Nov_14_1236,59.9879748964,spanish_cond1,001,1015,
images/calculator02b.jpg,dice,x,sounds/animalfarm_spanish.wav,,,,,,,,,0,0,0,1,0,4,4,165,100.033533995,9.94268339127e-06,100.863979068,0.830455656745,,,,,x,1,0.817146489746,2018_Nov_14_1236,59.9879748964,spanish_cond1,001,1015,
images/chessknight02b (1).jpg,cockroach,x,sounds/animalfarm_spanish.wav,,,,,,,,,0,0,0,1,0,5,5,155,101.974170029,8.98051075637e-06,102.847896516,0.873736750102,,,,,x,1,0.850517231273,2018_Nov_14_1236,59.9879748964,spanish_cond1,001,1015,
images/broadsword.jpg,teapot,x,sounds/animalfarm_spanish.wav,,,,,,,,,0,0,0,1,0,6,6,231,103.942290379,9.62195917964e-06,104.83179921,0.889519095072,,,,,x,1,0.867179669556,2018_Nov_14_1236,59.9879748964,spanish_cond1,001,1015,
images/cockroach02.jpg,belt,x,sounds/animalfarm_spanish.wav,,,,,,,,,0,0,0,1,0,7,7,129,105.931838629,9.30123496801e-06,106.782371255,0.850543210632,,,,,x,1,0.833840039209,2018_Nov_14_1236,59.9879748964,spanish_cond1,001,1015,
images/lemon02.jpg,lemon,z,sounds/animalfarm_spanish.wav,,,,,,,,,0,0,0,1,0,8,8,14,107.896099589,9.30135138333e-06,108.599566817,0.703477812116,,,,,z,1,0.683796948637,2018_Nov_14_1236,59.9879748964,spanish_cond1,001,1015,
images/gorilla.jpg,gorilla,z,sounds/animalfarm_spanish.wav,,,,,,,,,0,0,0,1,0,9,9,80,109.712390682,8.98051075637e-06,110.500111776,0.787730715703,,,,,z,1,0.76715340151,2018_Nov_14_1236,59.9879748964,spanish_cond1,001,1015,
images/swallow.jpg,mattress,x,sounds/animalfarm_spanish.wav,,,,,,,,,0,0,0,1,0,10,10,202,111.603268405,9.62195917964e-06,112.400668602,0.797410459956,,,,,x,1,0.78382931056,2018_Nov_14_1236,59.9879748964,spanish_cond1,001,1015,
images/radio03a.jpg,radio,z,sounds/animalfarm_spanish.wav,,,,,,,,,0,0,0,1,0,11,11,37,113.516647524,8.98051075637e-06,114.30121773,0.784580148291,,,,,z,1,0.767152760061,2018_Nov_14_1236,59.9879748964,spanish_cond1,001,1015,
images/ant.jpg,ant,z,sounds/animalfarm_spanish.wav,,,,,,,,,0,0,0,1,0,12,12,98,115.397398721,9.30135138333e-06,116.168416323,0.771027544281,,,,,z,1,0.750473322812,2018_Nov_14_1236,59.9879748964,spanish_cond1,001,1015,
images/lightbulb03b.jpg,treadmill,x,sounds/animalfarm_spanish.wav,,,,,,,,,0,0,0,1,0,13,13,234,117.273105418,9.30123496801e-06,118.06895615,0.795860674465,,,,,x,1,0.783781842096,2018_Nov_14_1236,59.9879748964,spanish_cond1,001,1015,
images/marker01a.jpg,marker,z,sounds/animalfarm_spanish.wav,,,,,,,,,0,0,0,1,0,14,14,95,119.169101089,8.9806271717e-06,119.91949936,0.750409176107,,,,,x,0,0.733783301315,2018_Nov_14_1236,59.9879748964,spanish_cond1,001,1015,
images/glasses01b.jpg,calculator,x,sounds/animalfarm_spanish.wav,,,,,,,,,0,0,0,1,0,15,15,142,121.013576659,9.30135138333e-06,121.920095284,0.906528888037,,,,,x,1,0.883847560384,2018_Nov_14_1236,59.9879748964,spanish_cond1,001,1015,
images/ceilingfan02.jpg,paper clip,x,sounds/animalfarm_spanish.wav,,,,,,,,,0,0,0,1,0,16,16,208,123.020025973,9.62207559496e-06,123.853993664,0.833977954695,,,,,x,1,0.817162205698,2018_Nov_14_1236,59.9879748964,spanish_cond1,001,1015,
images/snowman.jpg,globe,x,sounds/animalfarm_spanish.wav,,,,,,,,,0,0,0,1,0,17,17,180,124.966986235,9.30123496801e-06,125.75456781,0.787592479493,,,,,x,1,0.767162382021,2018_Nov_14_1236,59.9879748964,spanish_cond1,001,1015,
images/globe.jpg,cloud,x,sounds/animalfarm_spanish.wav,,,,,,,,,0,0,0,1,0,18,18,154,126.884829647,9.30135138333e-06,127.705126704,0.820306679234,,,,,x,1,0.800493994029,2018_Nov_14_1236,59.9879748964,spanish_cond1,001,1015,
images/cookingpot.jpg,grasshopper,x,sounds/animalfarm_spanish.wav,,,,,,,,,0,0,0,1,0,19,19,183,128.820316622,9.30123496801e-06,129.588989981,0.768683301401,,,,,x,1,0.750465625199,2018_Nov_14_1236,59.9879748964,spanish_cond1,001,1015,
images/nametag01a.jpg,name tag,z,sounds/animalfarm_spanish.wav,,,,,,,,,0,0,0,1,0,20,20,108,130.71029597,9.30135138333e-06,131.639591501,0.929306435748,,,,,x,0,0.917188473628,2018_Nov_14_1236,59.9879748964,spanish_cond1,001,1015,
images/diploma01.jpg,glasses,x,sounds/animalfarm_spanish.wav,,,,,,,,,0,0,0,1,0,21,21,179,132.772262048,9.62195917964e-06,134.490412788,1.71816068178,,,,,x,1,1.70073906682,2018_Nov_14_1236,59.9879748964,spanish_cond1,001,1015,
images/ear.jpg,bullet,x,sounds/animalfarm_spanish.wav,,,,,,,,,0,0,0,1,0,22,22,139,135.597319115,9.30135138333e-06,136.440979059,0.843670207541,,,,,x,1,0.833824964706,2018_Nov_14_1236,59.9879748964,spanish_cond1,001,1015,
images/coin01b.jpg,arrow,x,sounds/animalfarm_spanish.wav,,,,,,,,,0,0,0,1,0,23,23,124,137.545335874,8.65978654474e-06,138.308195613,0.762869040249,,,,,x,1,0.750470757019,2018_Nov_14_1236,59.9879748964,spanish_cond1,001,1015,
images/gamecontroller01.jpg,game controller,z,sounds/animalfarm_spanish.wav,,,,,,,,,0,0,0,1,0,24,24,112,139.430036907,9.62195917964e-06,140.225436366,0.795409722836,,,,,z,1,0.783834763104,2018_Nov_14_1236,59.9879748964,spanish_cond1,001,1015,
images/candycane01a.jpg,lip,x,sounds/animalfarm_spanish.wav,,,,,,,,,0,0,0,1,0,25,25,200,141.321180839,9.30123496801e-06,142.209336816,0.888166240184,,,,,x,1,0.867182556191,2018_Nov_14_1236,59.9879748964,spanish_cond1,001,1015,
images/hanger02a.jpg,hanger,z,sounds/animalfarm_spanish.wav,,,,,,,,,0,0,0,1,0,26,26,88,143.304397805,9.30123496801e-06,144.159901804,0.855514262803,,,,,z,1,0.833836190403,2018_Nov_14_1236,59.9879748964,spanish_cond1,001,1015,
images/paperclip04.jpg,eye drops,x,sounds/animalfarm_spanish.wav,,,,,,,,,0,0,0,1,0,27,27,174,145.266796585,9.30135138333e-06,146.144083216,0.877296894556,,,,,x,1,0.867446199292,2018_Nov_14_1236,59.9879748964,spanish_cond1,001,1015,
images/bat.jpg,hand,x,sounds/animalfarm_spanish.wav,,,,,,,,,0,0,0,1,0,28,28,185,147.244409691,9.30123496801e-06,148.161070879,0.916671771673,,,,,x,1,0.900506149977,2018_Nov_14_1236,59.9879748964,spanish_cond1,001,1015,
images/electricguitar02.jpg,electric guitar,z,sounds/animalfarm_spanish.wav,,,,,,,,,0,0,0,1,0,29,29,100,149.265534498,9.62207559496e-06,150.094975032,0.829451118712,,,,,z,1,0.817177280202,2018_Nov_14_1236,59.9879748964,spanish_cond1,001,1015,
images/fireextinguisher02.jpg,fire extinguisher,z,sounds/animalfarm_spanish.wav,,,,,,,,,0,0,0,1,0,30,30,175,151.207356285,9.62195917964e-06,152.1789149,0.971569520072,,,,,z,1,0.950555045856,2018_Nov_14_1236,59.9879748964,spanish_cond1,001,1015,
images/scooter.jpg,pen,x,sounds/animalfarm_spanish.wav,,,,,,,,,0,0,0,1,0,31,31,212,153.273327045,9.62195917964e-06,153.996084803,0.722768342705,,,,,x,1,0.700457141735,2018_Nov_14_1236,59.9879748964,spanish_cond1,001,1015,
images/kiwi03.jpg,backpack,x,sounds/animalfarm_spanish.wav,,,,,,,,,0,0,0,1,0,32,32,125,155.126611567,9.30123496801e-06,156.413710918,1.28710961493,,,,,x,1,1.26748904935,2018_Nov_14_1236,59.9879748964,spanish_cond1,001,1015,
images/donut.jpg,rhinoceros,x,sounds/animalfarm_spanish.wav,,,,,,,,,0,0,0,1,0,33,33,216,157.541064021,9.30135138333e-06,158.297350643,0.756297526765,,,,,x,1,0.733809922356,2018_Nov_14_1236,59.9879748964,spanish_cond1,001,1015,
images/boxingglove02a.jpg,bracelet,x,sounds/animalfarm_spanish.wav,,,,,,,,,0,0,0,1,0,34,34,135,159.410422435,8.9806271717e-06,160.281252696,0.870839882991,,,,,x,1,0.850508250762,2018_Nov_14_1236,59.9879748964,spanish_cond1,001,1015,
images/pingpongpaddle01c (1).jpg,ping pong paddle,z,sounds/animalfarm_spanish.wav,,,,,,,,,0,0,0,1,0,35,35,10,161.477539818,9.30123496801e-06,162.265149297,0.787619741983,,,,,x,0,0.76714345871,2018_Nov_14_1236,59.9879748964,spanish_cond1,001,1015,
images/orange.jpg,bat,x,sounds/animalfarm_spanish.wav,,,,,,,,,0,0,0,1,0,36,36,128,163.391511653,8.98051075637e-06,164.132366813,0.740864460706,,,,,x,1,0.717128239921,2018_Nov_14_1236,59.9879748964,spanish_cond1,001,1015,
images/carrot02.jpg,corkscrew,x,sounds/animalfarm_spanish.wav,,,,,,,,,0,0,0,1,0,37,37,161,165.236308278,9.62195917964e-06,165.966209097,0.729911083006,,,,,x,1,0.717113806983,2018_Nov_14_1236,59.9879748964,spanish_cond1,001,1015,
images/fork01.jpg,cooking pot,x,sounds/animalfarm_spanish.wav,,,,,,,,,0,0,0,1,0,38,38,160,167.061995265,9.30123496801e-06,167.950133281,0.888147958321,,,,,x,1,0.867158180452,2018_Nov_14_1236,59.9879748964,spanish_cond1,001,1015,
images/dolphin01.jpg,dolphin,z,sounds/animalfarm_spanish.wav,,,,,,,,,0,0,0,1,0,39,39,99,169.052672177,9.94268339127e-06,169.750802396,0.698140481953,,,,,z,1,0.68391658226,2018_Nov_14_1236,59.9879748964,spanish_cond1,001,1015,
images/coffeepot03b.jpg,coffee pot,z,sounds/animalfarm_spanish.wav,,,,,,,,,0,0,0,1,0,40,40,107,170.873921813,9.62195917964e-06,171.567844968,0.693933417555,,,,,z,1,0.683745310409,2018_Nov_14_1236,59.9879748964,spanish_cond1,001,1015,
images/leek.jpg,donut,x,sounds/animalfarm_spanish.wav,,,,,,,,,0,0,0,1,0,41,41,169,172.670778687,9.62195917964e-06,173.418368614,0.747600510716,,,,,x,1,0.733775924426,2018_Nov_14_1236,59.9879748964,spanish_cond1,001,1015,
images/sock03.jpg,sock,z,sounds/animalfarm_spanish.wav,,,,,,,,,0,0,0,1,0,42,42,90,174.525839753,9.30123496801e-06,175.268931389,0.74310222012,,,,,z,1,0.733796772198,2018_Nov_14_1236,59.9879748964,spanish_cond1,001,1015,
images/toucan.jpg,toucan,z,sounds/animalfarm_spanish.wav,,,,,,,,,0,0,0,1,0,43,43,81,176.371436929,9.30123496801e-06,177.302870471,0.931443484616,,,,,z,1,0.917196492082,2018_Nov_14_1236,59.9879748964,spanish_cond1,001,1015,
images/cupcake.jpg,scissors,x,sounds/animalfarm_spanish.wav,,,,,,,,,0,0,0,1,0,44,44,219,178.423415359,9.30123496801e-06,179.353469104,0.930064329528,,,,,x,1,0.917209642124,2018_Nov_14_1236,59.9879748964,spanish_cond1,001,1015,
images/pictureframe04.jpg,picture frame,z,sounds/animalfarm_spanish.wav,,,,,,,,,0,0,0,1,0,45,45,41,180.477020871,9.30123496801e-06,181.320540975,0.843530688202,,,,,z,1,0.833670050371,2018_Nov_14_1236,59.9879748964,spanish_cond1,001,1015,
images/cat.jpg,black olive,x,sounds/animalfarm_spanish.wav,,,,,,,,,0,0,0,1,0,46,46,133,182.452758005,1.02635240182e-05,184.7383374,2.28558997856,,,,,x,1,2.26756730839,2018_Nov_14_1236,59.9879748964,spanish_cond1,001,1015,
images/corkscrew02a.jpg,masquerade mask,x,sounds/animalfarm_spanish.wav,,,,,,,,,0,0,0,1,0,47,47,201,185.844452477,9.30123496801e-06,186.905632116,1.06118958211,,,,,x,1,1.05053865619,2018_Nov_14_1236,59.9879748964,spanish_cond1,001,1015,
images/raisin.jpg,ruler,x,sounds/animalfarm_spanish.wav,,,,,,,,,0,0,0,1,0,48,48,218,188.013158743,9.30123496801e-06,188.806193433,0.793045273749,,,,,x,1,0.783811670262,2018_Nov_14_1236,59.9879748964,spanish_cond1,001,1015,
images/panda.jpg,panda,z,sounds/animalfarm_spanish.wav,,,,,,,,,0,0,0,1,0,49,49,83,189.917356538,9.62195917964e-06,190.723424564,0.806077968446,,,,,z,1,0.783814556897,2018_Nov_14_1236,59.9879748964,spanish_cond1,001,1015,
images/rubberglove02a.jpg,lady bug,x,sounds/animalfarm_spanish.wav,,,,,,,,,0,0,0,1,0,50,50,192,191.829734327,9.30135138333e-06,192.707338163,0.877616024693,,,,,x,1,0.867173254956,2018_Nov_14_1236,59.9879748964,spanish_cond1,001,1015,
images/electrictoothbrush01a.jpg,banjo,x,sounds/animalfarm_spanish.wav,,,,,,,,,0,0,0,1,0,51,51,127,193.804305594,9.94268339127e-06,195.424782647,1.62048763712,,,,,x,1,1.60071536456,2018_Nov_14_1236,59.9879748964,spanish_cond1,001,1015,
images/highlighter03b.jpg,coin,x,sounds/animalfarm_spanish.wav,,,,,,,,,0,0,0,1,0,52,52,156,196.528388624,9.62195917964e-06,197.508727967,0.98034992686,,,,,x,1,0.967202409636,2018_Nov_14_1236,59.9879748964,spanish_cond1,001,1015,
images/aquarium.jpg,computer mouse,x,sounds/animalfarm_spanish.wav,,,,,,,,,0,0,0,1,0,53,53,159,198.645425327,9.62195917964e-06,199.575996415,0.9305810316,,,,,x,1,0.917183662765,2018_Nov_14_1236,59.9879748964,spanish_cond1,001,1015,
images/diaper01a.jpg,camera,x,sounds/animalfarm_spanish.wav,,,,,,,,,0,0,0,1,0,54,54,143,200.69781622,9.30123496801e-06,201.526552423,0.82874614594,,,,,x,1,0.817150338553,2018_Nov_14_1236,59.9879748964,spanish_cond1,001,1015,
images/clothespin02a.jpg,clothes pin,z,sounds/animalfarm_spanish.wav,,,,,,,,,0,0,0,1,0,55,55,79,202.633867686,1.02635240182e-05,203.477145316,0.843288213597,,,,,z,1,0.83379898523,2018_Nov_14_1236,59.9879748964,spanish_cond1,001,1015,
images/knife04.jpg,tooth brush,x,sounds/animalfarm_spanish.wav,,,,,,,,,0,0,0,1,0,56,56,233,204.576035866,9.62207559496e-06,205.477730013,0.901704411139,,,,,x,1,0.883859427529,2018_Nov_14_1236,59.9879748964,spanish_cond1,001,1015,
images/medal01.jpg,medal,z,sounds/animalfarm_spanish.wav,,,,,,,,,0,0,0,1,0,57,57,115,206.58040458,9.62207559496e-06,207.578321414,0.997927097953,,,,,z,1,0.983865810093,2018_Nov_14_1236,59.9879748964,spanish_cond1,001,1015,
images/leaf01a.jpg,leaf,z,sounds/animalfarm_spanish.wav,,,,,,,,,0,0,0,1,0,58,58,68,208.683254267,9.30123496801e-06,209.395513769,0.712270727498,,,,,z,1,0.700451047858,2018_Nov_14_1236,59.9879748964,spanish_cond1,001,1015,
images/cauliflower01.jpg,glue stick,x,sounds/animalfarm_spanish.wav,,,,,,,,,0,0,0,1,0,59,59,181,210.513051458,9.62195917964e-06,211.32942562,0.816384747042,,,,,x,1,0.800500729587,2018_Nov_14_1236,59.9879748964,spanish_cond1,001,1015,
images/gluestick.jpg,squirrel,x,sounds/animalfarm_spanish.wav,,,,,,,,,0,0,0,1,0,60,60,226,212.439223362,9.30123496801e-06,213.563404088,1.12419131002,,,,,z,0,1.1005715155,2018_Nov_14_1236,59.9879748964,spanish_cond1,001,1015,
images/binder03b.jpg,dj mixer,x,sounds/animalfarm_spanish.wav,,,,,,,,,0,0,0,1,0,61,61,167,214.678039778,9.62195917964e-06,215.530629911,0.852600076119,,,,,x,1,0.833831700147,2018_Nov_14_1236,59.9879748964,spanish_cond1,001,1015,
images/showerhead01.jpg,skateboard,x,sounds/animalfarm_spanish.wav,,,,,,,,,0,0,0,1,0,62,62,223,216.639858672,9.30123496801e-06,217.431165248,0.791316518909,,,,,x,1,0.767122931778,2018_Nov_14_1236,59.9879748964,spanish_cond1,001,1015,
images/battery03b.jpg,battery,z,sounds/animalfarm_spanish.wav,,,,,,,,,0,0,0,1,0,63,63,34,218.542941597,8.9806271717e-06,219.198373495,0.655441841227,,,,,z,1,0.633776277304,2018_Nov_14_1236,59.9879748964,spanish_cond1,001,1015,
images/belt02a.jpg,snowman,x,sounds/animalfarm_spanish.wav,,,,,,,,,0,0,0,1,0,64,64,224,220.3800095,8.9806271717e-06,221.298996007,0.918996770633,,,,,x,1,0.900532770786,2018_Nov_14_1236,59.9879748964,spanish_cond1,001,1015,
images/handbag02a.jpg,candle,x,sounds/animalfarm_spanish.wav,,,,,,,,,0,0,0,1,0,65,65,144,222.415624095,8.9806271717e-06,224.049771461,1.63415698835,,,,,x,1,1.61737876502,2018_Nov_14_1236,59.9879748964,spanish_cond1,001,1015,
images/cheetah.jpg,cheetah,z,sounds/animalfarm_spanish.wav,,,,,,,,,0,0,0,1,0,66,66,82,225.154150086,9.94268339127e-06,225.98351589,0.829376387759,,,,,z,1,0.817007291247,2018_Nov_14_1236,59.9879748964,spanish_cond1,001,1015,
images/hat05.jpg,hat,z,sounds/animalfarm_spanish.wav,,,,,,,,,0,0,0,1,0,67,67,15,227.089545331,8.98051075637e-06,227.81751373,0.727978662238,,,,,z,1,0.717102581169,2018_Nov_14_1236,59.9879748964,spanish_cond1,001,1015,
images/cloud.jpg,ceiling fan,x,sounds/animalfarm_spanish.wav,,,,,,,,,0,0,0,1,0,68,68,149,228.925110918,9.62195917964e-06,229.651395785,0.726294810069,,,,,x,1,0.717122466769,2018_Nov_14_1236,59.9879748964,spanish_cond1,001,1015,
images/swan.jpg,swan,z,sounds/animalfarm_spanish.wav,,,,,,,,,0,0,0,1,0,69,69,54,230.745403164,9.30123496801e-06,232.218799423,1.47340652253,,,,,z,1,1.45067067025,2018_Nov_14_1236,59.9879748964,spanish_cond1,001,1015,
images/bed.jpg,bed,z,sounds/animalfarm_spanish.wav,,,,,,,,,0,0,0,1,0,70,70,103,233.340313889,9.62195917964e-06,234.152724104,0.812420798815,,,,,z,1,0.800452298718,2018_Nov_14_1236,59.9879748964,spanish_cond1,001,1015,
images/screw03c.jpg,screw,z,sounds/animalfarm_spanish.wav,,,,,,,,,0,0,0,1,0,71,71,84,235.248895473,9.30123496801e-06,236.10328364,0.85439778876,,,,,z,1,0.833833303768,2018_Nov_14_1236,59.9879748964,spanish_cond1,001,1015,
images/croissant02b.jpg,croissant,z,sounds/animalfarm_spanish.wav,,,,,,,,,0,0,0,1,0,72,72,39,237.215831674,9.30123496801e-06,238.053824253,0.838003162993,,,,,z,1,0.817144886008,2018_Nov_14_1236,59.9879748964,spanish_cond1,001,1015,
images/nailpolish02b.jpg,nail polish,z,sounds/animalfarm_spanish.wav,,,,,,,,,0,0,0,1,0,73,73,94,239.165153178,9.62207559496e-06,240.071108914,0.905965679558,,,,,z,1,0.883854616433,2018_Nov_14_1236,59.9879748964,spanish_cond1,001,1015,
images/floorlamp.jpg,floor lamp,z,sounds/animalfarm_spanish.wav,,,,,,,,,0,0,0,1,0,74,74,26,241.165492514,9.62195917964e-06,242.321752387,1.15627077746,,,,,z,1,1.13390473125,2018_Nov_14_1236,59.9879748964,spanish_cond1,001,1015,
images/nailclipper03a.jpg,aquarium,x,sounds/animalfarm_spanish.wav,,,,,,,,,0,0,0,1,0,75,75,123,243.423832633,9.94279980659e-06,244.355693393,0.931871343404,,,,,x,1,0.917214773828,2018_Nov_14_1236,59.9879748964,spanish_cond1,001,1015,
images/radish01.jpg,raisin,x,sounds/animalfarm_spanish.wav,,,,,,,,,0,0,0,1,0,76,76,214,245.468049628,9.30135138333e-06,246.656345669,1.18830630463,,,,,x,1,1.16727386904,2018_Nov_14_1236,59.9879748964,spanish_cond1,001,1015,
images/fryingpan01.jpg,frying pan,z,sounds/animalfarm_spanish.wav,,,,,,,,,0,0,0,1,0,77,77,45,247.758616111,9.30123496801e-06,248.773624525,1.0150183572,,,,,z,1,1.00055422785,2018_Nov_14_1236,59.9879748964,spanish_cond1,001,1015,
images/axe01.jpg,axe,z,sounds/animalfarm_spanish.wav,,,,,,,,,0,0,0,1,0,78,78,104,249.878358523,9.62195917964e-06,250.590794429,0.712445848039,,,,,z,1,0.700448802672,2018_Nov_14_1236,59.9879748964,spanish_cond1,001,1015,
images/remotecontrol01c.jpg,remote control,z,sounds/animalfarm_spanish.wav,,,,,,,,,0,0,0,1,0,79,79,85,251.702935451,9.30123496801e-06,252.591251474,0.888327248394,,,,,z,1,0.867029245477,2018_Nov_14_1236,59.9879748964,spanish_cond1,001,1015,
images/redfox.jpg,red fox,z,sounds/animalfarm_spanish.wav,,,,,,,,,0,0,0,1,0,80,80,1,253.706515161,9.62195917964e-06,254.558642155,0.852136615897,,,,,z,1,0.833841963555,2018_Nov_14_1236,59.9879748964,spanish_cond1,001,1015,
images/magnifyingglass01b.jpg,magnifying glass,z,sounds/animalfarm_spanish.wav,,,,,,,,,0,0,0,1,0,81,81,64,255.752725515,9.62207559496e-06,256.525875034,0.773159782169,,,,,z,1,0.75047492655,2018_Nov_14_1236,59.9879748964,spanish_cond1,001,1015,
images/egg01b (1).jpg,egg,z,sounds/animalfarm_spanish.wav,,,,,,,,,0,0,0,1,0,82,82,19,257.640340093,9.62207559496e-06,258.643161909,1.00283175823,,,,,x,0,0.983886016416,2018_Nov_14_1236,59.9879748964,spanish_cond1,001,1015,
images/bowl02b (1).jpg,bowl,z,sounds/animalfarm_spanish.wav,,,,,,,,,0,0,0,1,0,83,83,24,259.762847872,9.30135138333e-06,260.593708936,0.830871007056,,,,,z,1,0.817152262898,2018_Nov_14_1236,59.9879748964,spanish_cond1,001,1015,
images/parkbench03.jpg,park bench,z,sounds/animalfarm_spanish.wav,,,,,,,,,0,0,0,1,0,84,84,71,261.703235658,9.30135138333e-06,262.610989428,0.907764033647,,,,,z,1,0.883863276336,2018_Nov_14_1236,59.9879748964,spanish_cond1,001,1015,
images/seagull.jpg,seagull,z,sounds/animalfarm_spanish.wav,,,,,,,,,0,0,0,1,0,85,85,50,263.720737777,9.62195917964e-06,264.494854629,0.77412711503,,,,,z,1,0.750473002088,2018_Nov_14_1236,59.9879748964,spanish_cond1,001,1015,
images/plate01b.jpg,plate,z,sounds/animalfarm_spanish.wav,,,,,,,,,0,0,0,1,0,86,86,3,265.59598807,8.98051075637e-06,266.478785227,0.882807100075,,,,,z,1,0.867181914742,2018_Nov_14_1236,59.9879748964,spanish_cond1,001,1015,
images/ashtray02b.jpg,ashtray,z,sounds/animalfarm_spanish.wav,,,,,,,,,0,0,0,1,0,87,87,43,267.594149304,9.62195917964e-06,268.646061342,1.05192230153,,,,,z,1,1.03387204837,2018_Nov_14_1236,59.9879748964,spanish_cond1,001,1015,
images/cigar.jpg,crocodile,x,sounds/animalfarm_spanish.wav,,,,,,,,,0,0,0,1,0,88,88,162,269.745962524,9.30135138333e-06,270.813346436,1.06739385566,,,,,x,1,1.05055084417,2018_Nov_14_1236,59.9879748964,spanish_cond1,001,1015,
images/lightswitch02a.jpg,fork,x,sounds/animalfarm_spanish.wav,,,,,,,,,0,0,0,1,0,89,89,177,271.92702217,9.62207559496e-06,272.897295605,0.970284340088,,,,,x,1,0.950533556635,2018_Nov_14_1236,59.9879748964,spanish_cond1,001,1015,
images/blueberry02.jpg,blueberry,z,sounds/animalfarm_spanish.wav,,,,,,,,,0,0,0,1,0,90,90,46,274.010952416,9.62195917964e-06,274.764510235,0.753568082582,,,,,z,1,0.73381280899,2018_Nov_14_1236,59.9879748964,spanish_cond1,001,1015,
images/birthdaycandle.jpg,birthday candle,z,sounds/animalfarm_spanish.wav,,,,,,,,,0,0,0,1,0,91,91,55,275.862442432,9.94268339127e-06,277.215221959,1.35278979014,,,,,z,1,1.33397971874,2018_Nov_14_1236,59.9879748964,spanish_cond1,001,1015,
images/mitten01.jpg,mitten,z,sounds/animalfarm_spanish.wav,,,,,,,,,0,0,0,1,0,92,92,102,278.337534731,1.02634076029e-05,279.765964121,1.4284399735,,,,,z,1,1.41734675574,2018_Nov_14_1236,59.9879748964,spanish_cond1,001,1015,
images/bicycle.jpg,hand bag,x,sounds/animalfarm_spanish.wav,,,,,,,,,0,0,0,1,0,93,93,186,280.877948946,8.9806271717e-06,282.400087432,1.52214874933,,,,,x,1,1.50072309421,2018_Nov_14_1236,59.9879748964,spanish_cond1,001,1015,
images/ladder.jpg,ladder,z,sounds/animalfarm_spanish.wav,,,,,,,,,0,0,0,1,0,94,94,113,283.494337606,8.98051075637e-06,284.467319958,0.972992615774,,,,,z,1,0.950524576008,2018_Nov_14_1236,59.9879748964,spanish_cond1,001,1015,
images/cactus.jpg,cactus,z,sounds/animalfarm_spanish.wav,,,,,,,,,0,0,0,1,0,95,95,70,285.58136197,8.98051075637e-06,286.434569195,0.85321716778,,,,,z,1,0.833839397761,2018_Nov_14_1236,59.9879748964,spanish_cond1,001,1015,
images/ostrich.jpg,ostrich,z,sounds/animalfarm_spanish.wav,,,,,,,,,0,0,0,1,0,96,96,76,287.536610313,9.62207559496e-06,288.235083396,0.698483667104,,,,,z,1,0.683723500581,2018_Nov_14_1236,59.9879748964,spanish_cond1,001,1015,
images/doll.jpg,carrot,x,sounds/animalfarm_spanish.wav,,,,,,,,,0,0,0,1,0,97,97,146,289.347800456,9.30135138333e-06,290.102140224,0.754350031493,,,,,x,1,0.733646027278,2018_Nov_14_1236,59.9879748964,spanish_cond1,001,1015,
images/blackolive.jpg,tank,x,sounds/animalfarm_spanish.wav,,,,,,,,,0,0,0,1,0,98,98,229,291.219182058,9.30135138333e-06,292.119565367,0.900393893127,,,,,x,1,0.883850447019,2018_Nov_14_1236,59.9879748964,spanish_cond1,001,1015,
images/butterfly.jpg,butterfly,z,sounds/animalfarm_spanish.wav,,,,,,,,,0,0,0,1,0,99,99,91,293.229054564,9.62195917964e-06,293.936745855,0.707701875363,,,,,z,1,0.683781553409,2018_Nov_14_1236,59.9879748964,spanish_cond1,001,1015,
images/acousticguitar02.jpg,acoustic guitar,z,sounds/animalfarm_spanish.wav,,,,,,,,,0,0,0,1,0,100,100,97,295.051952451,9.62207559496e-06,295.703917538,0.651975030312,,,,,z,1,0.633747090469,2018_Nov_14_1236,59.9879748964,spanish_cond1,001,1015,
images/bandaid01.jpg,door handle,x,sounds/animalfarm_spanish.wav,,,,,,,,,0,0,0,1,0,101,101,170,296.813647285,9.62195917964e-06,297.671196924,0.857559581869,,,,,x,1,0.83387275401,2018_Nov_14_1236,59.9879748964,spanish_cond1,001,1015,
images/weight01.jpg,weight,z,sounds/animalfarm_spanish.wav,,,,,,,,,0,0,0,1,0,102,102,67,298.778231865,9.30123496801e-06,299.538371462,0.760149538866,,,,,z,1,0.750477171503,2018_Nov_14_1236,59.9879748964,spanish_cond1,001,1015,
images/charcoalbarbecue.jpg,charcoal barbecue,z,sounds/animalfarm_spanish.wav,,,,,,,,,0,0,0,1,0,103,103,77,300.657549062,9.30135138333e-06,301.505614604,0.848075806047,,,,,z,1,0.833819191554,2018_Nov_14_1236,59.9879748964,spanish_cond1,001,1015,
images/dragonfly02.jpg,dragon fly,z,sounds/animalfarm_spanish.wav,,,,,,,,,0,0,0,1,0,104,104,29,302.604927561,8.98051075637e-06,303.406157318,0.801239700057,,,,,x,0,0.783813274,2018_Nov_14_1236,59.9879748964,spanish_cond1,001,1015,
images/shotglass.jpg,shot glass,z,sounds/animalfarm_spanish.wav,,,,,,,,,0,0,0,1,0,105,105,86,304.516348921,9.30123496801e-06,305.306701635,0.790362656815,,,,,z,1,0.767133516027,2018_Nov_14_1236,59.9879748964,spanish_cond1,001,1015,
images/hairpin.jpg,hair pin,z,sounds/animalfarm_spanish.wav,,,,,,,,,0,0,0,1,0,106,106,28,306.399459435,9.62195917964e-06,307.273959211,0.87451003911,,,,,z,1,0.850510175107,2018_Nov_14_1236,59.9879748964,spanish_cond1,001,1015,
images/microphone01.jpg,diaper,x,sounds/animalfarm_spanish.wav,,,,,,,,,0,0,0,1,0,107,107,164,308.375154874,8.98051075637e-06,309.257883395,0.882738463115,,,,,x,1,0.867170368205,2018_Nov_14_1236,59.9879748964,spanish_cond1,001,1015,
images/eraser.jpg,eraser,z,sounds/animalfarm_spanish.wav,,,,,,,,,0,0,0,1,0,108,108,110,310.366786931,9.62207559496e-06,311.008356076,0.641579087707,,,,,z,1,0.617096840171,2018_Nov_14_1236,59.9879748964,spanish_cond1,001,1015,
images/paintbrush03a.jpg,paint brush,z,sounds/animalfarm_spanish.wav,,,,,,,,,0,0,0,1,0,109,109,0,312.110483471,9.62195917964e-06,312.975623595,0.865150387166,,,,,z,1,0.850517231273,2018_Nov_14_1236,59.9879748964,spanish_cond1,001,1015,
images/apricot.jpg,apricot,z,sounds/animalfarm_spanish.wav,,,,,,,,,0,0,0,1,0,110,110,32,314.094472443,9.30123496801e-06,315.126233742,1.03177188383,,,,,z,1,1.01722019434,2018_Nov_14_1236,59.9879748964,spanish_cond1,001,1015,
images/spoon02b.jpg,spoon,z,sounds/animalfarm_spanish.wav,,,,,,,,,0,0,0,1,0,111,111,38,316.220483596,9.62207559496e-06,316.876768325,0.656294672284,,,,,z,1,0.63379969087,2018_Nov_14_1236,59.9879748964,spanish_cond1,001,1015,
images/bowlingball.jpg,bowling ball,z,sounds/animalfarm_spanish.wav,,,,,,,,,0,0,0,1,0,112,112,20,318.011037731,9.30135138333e-06,318.894010971,0.882983503747,,,,,z,1,0.867192498874,2018_Nov_14_1236,59.9879748964,spanish_cond1,001,1015,
images/peach01.jpg,peach,z,sounds/animalfarm_spanish.wav,,,,,,,,,0,0,0,1,0,113,113,106,320.024494756,8.98051075637e-06,321.061346742,1.03686353203,,,,,z,1,1.01727536053,2018_Nov_14_1236,59.9879748964,spanish_cond1,001,1015,
images/rhinoceros01.jpg,envelope,x,sounds/animalfarm_spanish.wav,,,,,,,,,0,0,0,1,0,114,114,173,322.175270082,9.62195917964e-06,323.095217828,0.919958009501,,,,,x,1,0.900463492377,2018_Nov_14_1236,59.9879748964,spanish_cond1,001,1015,
images/puzzle.jpg,puzzle,z,sounds/animalfarm_spanish.wav,,,,,,,,,0,0,0,1,0,115,115,57,324.339709306,9.62207559496e-06,325.079162218,0.739463495906,,,,,z,1,0.717160634114,2018_Nov_14_1236,59.9879748964,spanish_cond1,001,1015,
images/bottleofredwine02.jpg,pipe,x,sounds/animalfarm_spanish.wav,,,,,,,,,0,0,0,1,0,116,116,213,326.180376163,9.30135138333e-06,327.063038933,0.882673354237,,,,,x,1,0.867184480536,2018_Nov_14_1236,59.9879748964,spanish_cond1,001,1015,
images/bench02.jpg,electric toothbrush,x,sounds/animalfarm_spanish.wav,,,,,,,,,0,0,0,1,0,117,117,172,328.17497629,1.05842482299e-05,330.747441427,2.5724750798,,,,,x,1,2.55100259767,2018_Nov_14_1236,59.9879748964,spanish_cond1,001,1015,
images/parrot01.jpg,chameleon,x,sounds/animalfarm_spanish.wav,,,,,,,,,0,0,0,1,0,118,118,150,331.863164404,9.62195917964e-06,332.781384999,0.918231179123,,,,,z,0,0.900539826951,2018_Nov_14_1236,59.9879748964,spanish_cond1,001,1015,
images/gps.jpg,gps,z,sounds/animalfarm_spanish.wav,,,,,,,,,0,0,0,1,0,119,119,21,333.901710826,9.94268339127e-06,334.815273405,0.913572842255,,,,,z,1,0.900509998784,2018_Nov_14_1236,59.9879748964,spanish_cond1,001,1015,
images/hairband.jpg,hairband,z,sounds/animalfarm_spanish.wav,,,,,,,,,0,0,0,1,0,120,120,66,335.927054885,9.62207559496e-06,337.13261923,1.20557428827,,,,,z,1,1.18392796838,2018_Nov_14_1236,59.9879748964,spanish_cond1,001,1015,
images/corn01.jpg,corn,z,sounds/animalfarm_spanish.wav,,,,,,,,,0,0,0,1,0,121,121,22,338.234093291,9.94279980659e-06,339.133216116,0.89913340949,,,,,z,1,0.883855899447,2018_Nov_14_1236,59.9879748964,spanish_cond1,001,1015,
images/feather03b.jpg,feather,z,sounds/animalfarm_spanish.wav,,,,,,,,,0,0,0,1,0,122,122,114,340.323801234,8.9806271717e-06,341.050430569,0.726639598957,,,,,z,1,0.717134333914,2018_Nov_14_1236,59.9879748964,spanish_cond1,001,1015,
images/grasshopper.jpg,cauliflower,x,sounds/animalfarm_spanish.wav,,,,,,,,,0,0,0,1,0,123,123,148,342.145586495,9.62207559496e-06,343.000994275,0.855417722021,,,,,x,1,0.833834265941,2018_Nov_14_1236,59.9879748964,spanish_cond1,001,1015,
images/lipstick04.jpg,lipstick,z,sounds/animalfarm_spanish.wav,,,,,,,,,0,0,0,1,0,124,124,56,344.102922494,9.62195917964e-06,345.168277124,1.06536489399,,,,,z,1,1.05054475018,2018_Nov_14_1236,59.9879748964,spanish_cond1,001,1015,
images/umbrella01.jpg,umbrella,z,sounds/animalfarm_spanish.wav,,,,,,,,,0,0,0,1,0,125,125,53,346.283515473,9.30123496801e-06,347.118846282,0.835341073107,,,,,z,1,0.817149376264,2018_Nov_14_1236,59.9879748964,spanish_cond1,001,1015,
images/cherry01.jpg,highlighter,x,sounds/animalfarm_spanish.wav,,,,,,,,,0,0,0,1,0,126,126,187,348.229922148,9.62195917964e-06,349.086084293,0.856172408443,,,,,x,1,0.83381534263,2018_Nov_14_1236,59.9879748964,spanish_cond1,001,1015,
images/bullet (2).jpg,rubber glove,x,sounds/animalfarm_spanish.wav,,,,,,,,,0,0,0,1,0,127,127,217,350.192660586,9.62207559496e-06,351.253407876,1.06075787463,,,,,x,1,1.05056944664,2018_Nov_14_1236,59.9879748964,spanish_cond1,001,1015,
images/giraffe.jpg,lettuce,x,sounds/animalfarm_spanish.wav,,,,,,,,,0,0,0,1,0,128,128,195,352.356468606,8.98051075637e-06,353.504059046,1.14760038233,,,,,x,1,1.13387618586,2018_Nov_14_1236,59.9879748964,spanish_cond1,001,1015,
images/triangleruler02.jpg,bottle of red wine,x,sounds/animalfarm_spanish.wav,,,,,,,,,0,0,0,1,0,129,129,134,354.618629627,8.9806271717e-06,355.554631379,0.936012336751,,,,,x,1,0.917177247931,2018_Nov_14_1236,59.9879748964,spanish_cond1,001,1015,
images/saltshaker03c.jpg,salt shaker,z,sounds/animalfarm_spanish.wav,,,,,,,,,0,0,0,1,0,130,130,63,356.668675315,9.62207559496e-06,357.388495153,0.719829780282,,,,,z,1,0.700444953982,2018_Nov_14_1236,59.9879748964,spanish_cond1,001,1015,
images/bowtie.jpg,bowtie,z,sounds/animalfarm_spanish.wav,,,,,,,,,0,0,0,1,0,131,131,89,358.501601263,9.30123496801e-06,359.372409714,0.870818393771,,,,,z,1,0.850497666514,2018_Nov_14_1236,59.9879748964,spanish_cond1,001,1015,
images/envelope02a.jpg,grand piano,x,sounds/animalfarm_spanish.wav,,,,,,,,,0,0,0,1,0,132,132,182,360.497460591,9.30123496801e-06,362.94012286,2.44267221238,,,,,x,1,2.43429336417,2018_Nov_14_1236,59.9879748964,spanish_cond1,001,1015,
images/candle08a.jpg,screw driver,x,sounds/animalfarm_spanish.wav,,,,,,,,,0,0,0,1,0,133,133,221,364.055786181,9.62207559496e-06,365.007379763,0.951603845111,,,,,x,1,0.933855081559,2018_Nov_14_1236,59.9879748964,spanish_cond1,001,1015,
images/8ball.jpg,nail clipper,x,sounds/animalfarm_spanish.wav,,,,,,,,,0,0,0,1,0,134,134,206,366.125414268,9.94279980659e-06,367.141334528,1.01592988253,,,,,x,1,1.00054107781,2018_Nov_14_1236,59.9879748964,spanish_cond1,001,1015,
images/lip.jpg,boxing glove,x,sounds/animalfarm_spanish.wav,,,,,,,,,0,0,0,1,0,135,135,136,368.246332811,9.30135138333e-06,369.158580702,0.912257833988,,,,,x,1,0.900497490074,2018_Nov_14_1236,59.9879748964,spanish_cond1,001,1015,
images/printer03a.jpg,printer,z,sounds/animalfarm_spanish.wav,,,,,,,,,0,0,0,1,0,136,136,72,370.270610109,9.30123496801e-06,371.109186103,0.838585936232,,,,,z,1,0.817184015526,2018_Nov_14_1236,59.9879748964,spanish_cond1,001,1015,
images/tulip02.jpg,sport shorts,x,sounds/animalfarm_spanish.wav,,,,,,,,,0,0,0,1,0,137,137,225,372.205489615,9.30123496801e-06,373.659896833,1.45441748179,,,,,x,1,1.43399925134,2018_Nov_14_1236,59.9879748964,spanish_cond1,001,1015,
images/watermelon01.jpg,orange,x,sounds/animalfarm_spanish.wav,,,,,,,,,0,0,0,1,0,138,138,207,374.790799176,9.30123496801e-06,377.461014654,2.6702254212,,,,,x,1,2.65103335597,2018_Nov_14_1236,59.9879748964,spanish_cond1,001,1015,
images/lighter02b.jpg,stapler,x,sounds/animalfarm_spanish.wav,,,,,,,,,0,0,0,1,0,139,139,227,378.563372336,9.30123496801e-06,379.444918311,0.881555917789,,,,,x,1,0.867169406149,2018_Nov_14_1236,59.9879748964,spanish_cond1,001,1015,
images/doorhandle.jpg,doll,x,sounds/animalfarm_spanish.wav,,,,,,,,,0,0,0,1,0,140,140,168,380.549484565,9.30135138333e-06,382.212236569,1.6627625887,,,,,x,1,1.65057470684,2018_Nov_14_1236,59.9879748964,spanish_cond1,001,1015,
images/dice05a.jpg,band aid,x,sounds/animalfarm_spanish.wav,,,,,,,,,0,0,0,1,0,141,141,126,383.327119545,8.65978654474e-06,384.479725939,1.15261601657,,,,,x,1,1.13393199351,2018_Nov_14_1236,59.9879748964,spanish_cond1,001,1015,
images/headphones02b.jpg,headphones,z,sounds/animalfarm_spanish.wav,,,,,,,,,0,0,0,1,0,142,142,101,385.589705217,8.98051075637e-06,386.530296028,0.940600432805,,,,,z,1,0.91717821022,2018_Nov_14_1236,59.9879748964,spanish_cond1,001,1015,
images/icecube02 (2).jpg,aloe,x,sounds/animalfarm_spanish.wav,,,,,,,,,0,0,0,1,0,143,143,122,387.64303586,9.30123496801e-06,388.780957461,1.13793154329,,,,,x,1,1.11723844404,2018_Nov_14_1236,59.9879748964,spanish_cond1,001,1015,
images/flower01.jpg,bus,x,sounds/animalfarm_spanish.wav,,,,,,,,,0,0,0,1,0,144,144,140,389.89733698,8.98051075637e-06,390.964919748,1.06759238977,,,,,x,1,1.05054442957,2018_Nov_14_1236,59.9879748964,spanish_cond1,001,1015,
images/beachumbrella01.jpg,beach umbrella,z,sounds/animalfarm_spanish.wav,,,,,,,,,0,0,0,1,0,145,145,92,392.073058976,9.30135138333e-06,392.915502377,0.842453664402,,,,,z,1,0.833838756313,2018_Nov_14_1236,59.9879748964,spanish_cond1,001,1015,
images/eyedrops.jpg,bicycle,x,sounds/animalfarm_spanish.wav,,,,,,,,,0,0,0,1,0,146,146,131,394.093603896,9.94268339127e-06,395.066138183,0.972545512952,,,,,x,1,0.950541574974,2018_Nov_14_1236,59.9879748964,spanish_cond1,001,1015,
images/camera01a.jpg,bull,x,sounds/animalfarm_spanish.wav,,,,,,,,,0,0,0,1,0,147,147,138,396.179053457,8.98051075637e-06,397.266756814,1.08771362074,,,,,x,1,1.06722482899,2018_Nov_14_1236,59.9879748964,spanish_cond1,001,1015,
images/basketball01.jpg,basket ball,z,sounds/animalfarm_spanish.wav,,,,,,,,,0,0,0,1,0,148,148,33,398.407392143,9.30135138333e-06,399.234004447,0.82662224723,,,,,z,1,0.817163167871,2018_Nov_14_1236,59.9879748964,spanish_cond1,001,1015,
images/stapler03a.jpg,candy cane,x,sounds/animalfarm_spanish.wav,,,,,,,,,0,0,0,1,0,149,149,145,400.346713169,9.30123496801e-06,401.918106414,1.57140318758,,,,,x,1,1.55069469323,2018_Nov_14_1236,59.9879748964,spanish_cond1,001,1015,
images/lion.jpg,lion,z,sounds/animalfarm_spanish.wav,,,,,,,,,0,0,0,1,0,150,150,44,403.032396032,9.30123496801e-06,403.785335156,0.752949387184,,,,,z,1,0.733816016116,2018_Nov_14_1236,59.9879748964,spanish_cond1,001,1015,
images/bull.jpg,button,x,sounds/animalfarm_spanish.wav,,,,,,,,,0,0,0,1,0,151,151,141,404.946252403,9.62195917964e-06,405.869297795,0.923055976629,,,,,x,1,0.900523790275,2018_Nov_14_1236,59.9879748964,spanish_cond1,001,1015,
images/mailbox01.jpg,mail box,z,sounds/animalfarm_spanish.wav,,,,,,,,,0,0,0,1,0,152,152,73,406.99120067,9.30135138333e-06,407.936538982,0.945348895737,,,,,z,1,0.933870156063,2018_Nov_14_1236,59.9879748964,spanish_cond1,001,1015,
images/flipflop01b.jpg,flip flop,z,sounds/animalfarm_spanish.wav,,,,,,,,,0,0,0,1,0,153,153,27,409.055867327,9.62195917964e-06,409.837089393,0.781232008827,,,,,z,1,0.767149552703,2018_Nov_14_1236,59.9879748964,spanish_cond1,001,1015,
images/mushroom01.jpg,shower head,x,sounds/animalfarm_spanish.wav,,,,,,,,,0,0,0,1,0,154,154,222,411.041441685,9.62207559496e-06,411.871036172,0.829605070991,,,,,x,1,0.817191392416,2018_Nov_14_1236,59.9879748964,spanish_cond1,001,1015,
images/cola.jpg,comb,x,sounds/animalfarm_spanish.wav,,,,,,,,,0,0,0,1,0,155,155,157,412.994170023,9.62195917964e-06,413.754897845,0.760738085257,,,,,x,1,0.750481982599,2018_Nov_14_1236,59.9879748964,spanish_cond1,001,1015,
images/lychee02a.jpg,lychee,z,sounds/animalfarm_spanish.wav,,,,,,,,,0,0,0,1,0,156,156,62,414.880563568,9.30135138333e-06,416.138929025,1.25837604178,,,,,x,0,1.23396082746,2018_Nov_14_1236,59.9879748964,spanish_cond1,001,1015,
images/daisy.jpg,daisy,z,sounds/animalfarm_spanish.wav,,,,,,,,,0,0,0,1,0,157,157,6,417.242800249,9.94268339127e-06,418.172860409,0.930070744245,,,,,z,1,0.917205793317,2018_Nov_14_1236,59.9879748964,spanish_cond1,001,1015,
images/dryingmachine01.jpg,drying machine,z,sounds/animalfarm_spanish.wav,,,,,,,,,0,0,0,1,0,158,158,18,419.296516094,9.30135138333e-06,420.523540092,1.2270342618,,,,,z,1,1.21729101229,2018_Nov_14_1236,59.9879748964,spanish_cond1,001,1015,
images/masquerademask02b.jpg,mirror,x,sounds/animalfarm_spanish.wav,,,,,,,,,0,0,0,1,0,159,159,204,421.6307524,8.98051075637e-06,422.457422436,0.826680299942,,,,,x,1,0.817167337402,2018_Nov_14_1236,59.9879748964,spanish_cond1,001,1015,
images/honeycomb.jpg,honey comb,z,sounds/animalfarm_spanish.wav,,,,,,,,,0,0,0,1,0,160,160,59,423.57280319,9.30123496801e-06,424.841470615,1.26867768855,,,,,z,1,1.25064603798,2018_Nov_14_1236,59.9879748964,spanish_cond1,001,1015,
images/tissuebox03.jpg,tissue box,z,sounds/animalfarm_spanish.wav,,,,,,,,,0,0,0,1,0,161,161,58,425.969081589,9.30123496801e-06,426.708688452,0.739617127343,,,,,z,1,0.717170256074,2018_Nov_14_1236,59.9879748964,spanish_cond1,001,1015,
images/baseball01a.jpg,baseball,z,sounds/animalfarm_spanish.wav,,,,,,,,,0,0,0,1,0,162,162,74,427.843799784,8.9806271717e-06,428.642549628,0.798759466154,,,,,z,1,0.783809104469,2018_Nov_14_1236,59.9879748964,spanish_cond1,001,1015,
images/comb02a.jpg,diploma,x,sounds/animalfarm_spanish.wav,,,,,,,,,0,0,0,1,0,163,163,166,429.748354235,9.62207559496e-06,430.559763119,0.811418826692,,,,,x,1,0.800478598918,2018_Nov_14_1236,59.9879748964,spanish_cond1,001,1015,
images/broom02.jpg,broom,z,sounds/animalfarm_spanish.wav,,,,,,,,,0,0,0,1,0,164,164,116,431.655353639,9.94279980659e-06,432.727052063,1.07170836581,,,,,z,1,1.05054699536,2018_Nov_14_1236,59.9879748964,spanish_cond1,001,1015,
images/button07.jpg,radish,x,sounds/animalfarm_spanish.wav,,,,,,,,,0,0,0,1,0,165,165,215,433.841197671,8.98051075637e-06,434.811029777,0.969842048245,,,,,x,1,0.950554725016,2018_Nov_14_1236,59.9879748964,spanish_cond1,001,1015,
images/scissors04a.jpg,leek,x,sounds/animalfarm_spanish.wav,,,,,,,,,0,0,0,1,0,166,166,194,435.907272028,9.30135138333e-06,437.878575981,1.97131421615,,,,,x,1,1.95083215972,2018_Nov_14_1236,59.9879748964,spanish_cond1,001,1015,
images/atm.jpg,atm,z,sounds/animalfarm_spanish.wav,,,,,,,,,0,0,0,1,0,167,167,96,439.017782761,9.62195917964e-06,439.962512641,0.944740784587,,,,,z,1,0.933843535138,2018_Nov_14_1236,59.9879748964,spanish_cond1,001,1015,
images/desktopcomputer.jpg,desktop computer,z,sounds/animalfarm_spanish.wav,,,,,,,,,0,0,0,1,0,168,168,16,441.100948378,9.62195917964e-06,441.796362302,0.695424187928,,,,,z,1,0.683781232685,2018_Nov_14_1236,59.9879748964,spanish_cond1,001,1015,
images/50dollarbill.jpg,cherry,x,sounds/animalfarm_spanish.wav,,,,,,,,,0,0,0,1,0,169,169,151,442.919263621,9.30123496801e-06,443.730275437,0.811021758243,,,,,x,1,0.800500408863,2018_Nov_14_1236,59.9879748964,spanish_cond1,001,1015,
images/razor04a.jpg,razor,z,sounds/animalfarm_spanish.wav,,,,,,,,,0,0,0,1,0,170,170,36,444.833078938,9.30123496801e-06,445.564137927,0.731069573201,,,,,z,1,0.717135937535,2018_Nov_14_1236,59.9879748964,spanish_cond1,001,1015,
images/flashlight05.jpg,flash light,z,sounds/animalfarm_spanish.wav,,,,,,,,,0,0,0,1,0,171,171,8,446.667827937,9.62207559496e-06,447.414709362,0.746891689138,,,,,z,1,0.733838467509,2018_Nov_14_1236,59.9879748964,spanish_cond1,001,1015,
images/tank.jpg,wallet,x,sounds/animalfarm_spanish.wav,,,,,,,,,0,0,0,1,0,172,172,237,448.52140176,8.98051075637e-06,449.248537214,0.727146999678,,,,,x,1,0.717142031528,2018_Nov_14_1236,59.9879748964,spanish_cond1,001,1015,
images/pipe.jpg,icecube,x,sounds/animalfarm_spanish.wav,,,,,,,,,0,0,0,1,0,173,173,188,450.360032279,9.62207559496e-06,451.215778753,0.855757058365,,,,,z,0,0.833839397645,2018_Nov_14_1236,59.9879748964,spanish_cond1,001,1015,
images/lettuce.jpg,mushroom,x,sounds/animalfarm_spanish.wav,,,,,,,,,0,0,0,1,0,174,174,205,452.341755908,9.30135138333e-06,453.699825296,1.35807901027,,,,,x,1,1.33397105883,2018_Nov_14_1236,59.9879748964,spanish_cond1,001,1015,
images/banana04a.jpg,banana,z,sounds/animalfarm_spanish.wav,,,,,,,,,0,0,0,1,0,175,175,118,454.80744686,9.62195917964e-06,455.650465337,0.843028419302,,,,,z,1,0.833900978556,2018_Nov_14_1236,59.9879748964,spanish_cond1,001,1015,
images/highheelshoe02a.jpg,high heel shoe,z,sounds/animalfarm_spanish.wav,,,,,,,,,0,0,0,1,0,176,176,75,456.759195035,9.62195917964e-06,457.851034575,1.09184980288,,,,,z,1,1.06723541312,2018_Nov_14_1236,59.9879748964,spanish_cond1,001,1015,
images/bus.jpg,microphone,x,sounds/animalfarm_spanish.wav,,,,,,,,,0,0,0,1,0,177,177,203,458.971531994,8.98051075637e-06,459.818262002,0.846739629284,,,,,x,1,0.833824643982,2018_Nov_14_1236,59.9879748964,spanish_cond1,001,1015,
images/antelope.jpg,antelope,z,sounds/animalfarm_spanish.wav,,,,,,,,,0,0,0,1,0,178,178,12,460.924143585,9.62195917964e-06,461.818862415,0.894729414606,,,,,z,1,0.883854295826,2018_Nov_14_1236,59.9879748964,spanish_cond1,001,1015,
images/puma.jpg,puma,z,sounds/animalfarm_spanish.wav,,,,,,,,,0,0,0,1,0,179,179,4,462.918814273,9.30135138333e-06,463.81942819,0.900624500704,,,,,z,1,0.883843390853,2018_Nov_14_1236,59.9879748964,spanish_cond1,001,1015,
images/dresser02.jpg,dresser,z,sounds/animalfarm_spanish.wav,,,,,,,,,0,0,0,1,0,180,180,87,464.943276314,9.30135138333e-06,465.986571841,1.04330578982,,,,,z,1,1.0337306048,2018_Nov_14_1236,59.9879748964,spanish_cond1,001,1015,
images/barrel01.jpg,barrel,z,sounds/animalfarm_spanish.wav,,,,,,,,,0,0,0,1,0,181,181,9,467.188970865,9.94268339127e-06,468.037455286,0.848494042875,,,,,z,1,0.833959352109,2018_Nov_14_1236,59.9879748964,spanish_cond1,001,1015,
images/teapot.jpg,light switch,x,sounds/animalfarm_spanish.wav,,,,,,,,,0,0,0,1,0,182,182,197,469.154767178,9.62195917964e-06,470.121281614,0.966525019961,,,,,x,1,0.950526821194,2018_Nov_14_1236,59.9879748964,spanish_cond1,001,1015,
images/squirrel.jpg,binder,x,sounds/animalfarm_spanish.wav,,,,,,,,,0,0,0,1,0,183,183,132,471.226804937,9.94268339127e-06,472.121840652,0.895045978716,,,,,x,1,0.88383088226,2018_Nov_14_1236,59.9879748964,spanish_cond1,001,1015,
images/table02.jpg,table,z,sounds/animalfarm_spanish.wav,,,,,,,,,0,0,0,1,0,184,184,49,473.238808076,9.62195917964e-06,474.172446984,0.933649170562,,,,,z,1,0.917195850634,2018_Nov_14_1236,59.9879748964,spanish_cond1,001,1015,
images/dreamcatcher.jpg,dream catcher,z,sounds/animalfarm_spanish.wav,,,,,,,,,0,0,0,1,0,185,185,48,475.272779552,9.62207559496e-06,476.056319882,0.783550272346,,,,,z,1,0.767140251468,2018_Nov_14_1236,59.9879748964,spanish_cond1,001,1015,
images/banjo.jpg,knife,x,sounds/animalfarm_spanish.wav,,,,,,,,,0,0,0,1,0,186,186,191,477.234915331,9.30123496801e-06,478.173618303,0.938712914707,,,,,x,1,0.917196171358,2018_Nov_14_1236,59.9879748964,spanish_cond1,001,1015,
images/pineapple01a.jpg,pineapple,z,sounds/animalfarm_spanish.wav,,,,,,,,,0,0,0,1,0,187,187,51,479.289129917,9.30135138333e-06,480.024166325,0.735046671587,,,,,z,1,0.717151012039,2018_Nov_14_1236,59.9879748964,spanish_cond1,001,1015,
images/tie01.jpg,bench,x,sounds/animalfarm_spanish.wav,,,,,,,,,0,0,0,1,0,188,188,130,481.125149021,9.30123496801e-06,482.174763002,1.04962392361,,,,,x,1,1.03387557645,2018_Nov_14_1236,59.9879748964,spanish_cond1,001,1015,
images/notebook02b.jpg,notebook,z,sounds/animalfarm_spanish.wav,,,,,,,,,0,0,0,1,0,189,189,7,483.283740307,9.30135138333e-06,484.108662986,0.824932301184,,,,,z,1,0.800489183166,2018_Nov_14_1236,59.9879748964,spanish_cond1,001,1015,
images/thumbtack02a.jpg,thumb tack,z,sounds/animalfarm_spanish.wav,,,,,,,,,0,0,0,1,0,190,190,60,485.221627653,9.62207559496e-06,486.009207945,0.787590555148,,,,,z,1,0.767139609903,2018_Nov_14_1236,59.9879748964,spanish_cond1,001,1015,
images/ruler02b.jpg,watermelon,x,sounds/animalfarm_spanish.wav,,,,,,,,,0,0,0,1,0,191,191,238,487.113554176,9.30123496801e-06,487.976471294,0.86292706104,,,,,x,1,0.850518514169,2018_Nov_14_1236,59.9879748964,spanish_cond1,001,1015,
images/graduationcap.jpg,graduation cap,z,sounds/animalfarm_spanish.wav,,,,,,,,,0,0,0,1,0,192,192,35,489.081279381,8.9806271717e-06,489.843670528,0.762400448322,,,,,z,1,0.750477813068,2018_Nov_14_1236,59.9879748964,spanish_cond1,001,1015,
images/hand01a.jpg,cupcake,x,sounds/animalfarm_spanish.wav,,,,,,,,,0,0,0,1,0,193,193,163,490.957156388,9.30123496801e-06,491.660902012,0.703756208997,,,,,x,1,0.683833191521,2018_Nov_14_1236,59.9879748964,spanish_cond1,001,1015,
images/beermug01b.jpg,beer mug,z,sounds/animalfarm_spanish.wav,,,,,,,,,0,0,0,1,0,194,194,111,492.780208227,9.30123496801e-06,494.428333811,1.64813584741,,,,,x,0,1.6340687864,2018_Nov_14_1236,59.9879748964,spanish_cond1,001,1015,
images/treadmill.jpg,lily,x,sounds/animalfarm_spanish.wav,,,,,,,,,0,0,0,1,0,195,195,199,495.535329944,9.62195917964e-06,496.629031663,1.09371230367,,,,,x,1,1.0839677715,2018_Nov_14_1236,59.9879748964,spanish_cond1,001,1015,
images/pepper05a.jpg,lighter,x,sounds/animalfarm_spanish.wav,,,,,,,,,0,0,0,1,0,196,196,198,497.824564099,9.30123496801e-06,498.679585715,0.85503187927,,,,,x,1,0.83384901972,2018_Nov_14_1236,59.9879748964,spanish_cond1,001,1015,
images/key03b.jpg,cigar,x,sounds/animalfarm_spanish.wav,,,,,,,,,0,0,0,1,0,197,197,153,499.783533273,9.94279980659e-06,502.380653213,2.59713052353,,,,,x,1,2.58433805848,2018_Nov_14_1236,59.9879748964,spanish_cond1,001,1015,
images/crocodile.jpg,triangle ruler,x,sounds/animalfarm_spanish.wav,,,,,,,,,0,0,0,1,0,198,198,235,503.480723101,9.94279980659e-06,504.231190009,0.750477171619,,,,,x,1,0.73381248815,2018_Nov_14_1236,59.9879748964,spanish_cond1,001,1015,
images/tape01a.jpg,tie,x,sounds/animalfarm_spanish.wav,,,,,,,,,0,0,0,1,0,199,199,232,505.359476768,1.02634076029e-05,506.265101828,0.905635644449,,,,,z,0,0.883845635923,2018_Nov_14_1236,59.9879748964,spanish_cond1,001,1015,
images/worldmap.jpg,scooter,x,sounds/animalfarm_spanish.wav,,,,,,,,,0,0,0,1,0,200,200,220,507.398701542,9.94279980659e-06,508.382372025,0.983681067592,,,,,x,1,0.967191825388,2018_Nov_14_1236,59.9879748964,spanish_cond1,001,1015,
images/sportshorts02.jpg,tape,x,sounds/animalfarm_spanish.wav,,,,,,,,,0,0,0,1,0,201,201,230,509.492350661,9.62207559496e-06,510.399629745,0.907289027004,,,,,z,0,0.8837949601,2018_Nov_14_1236,59.9879748964,spanish_cond1,001,1015,
images/cake.jpg,cake,z,sounds/animalfarm_spanish.wav,,,,,,,,,0,0,0,1,0,202,202,23,511.516337695,9.30123496801e-06,512.416899012,0.900570938131,,,,,z,1,0.883862314164,2018_Nov_14_1236,59.9879748964,spanish_cond1,001,1015,
images/backpack01b.jpg,swallow,x,sounds/animalfarm_spanish.wav,,,,,,,,,0,0,0,1,0,203,203,228,513.549136569,9.30123496801e-06,514.417309872,0.868183566141,,,,,x,1,0.850340827717,2018_Nov_14_1236,59.9879748964,spanish_cond1,001,1015,
images/flamingo.jpg,flamingo,z,sounds/animalfarm_spanish.wav,,,,,,,,,0,0,0,1,0,204,204,52,515.519758641,9.30123496801e-06,516.38469542,0.864946721238,,,,,z,1,0.850490610348,2018_Nov_14_1236,59.9879748964,spanish_cond1,001,1015,
images/pen03c.jpg,pepper,x,sounds/animalfarm_spanish.wav,,,,,,,,,0,0,0,1,0,205,205,211,517.481080398,9.94279980659e-06,518.435290525,0.954220070154,,,,,x,1,0.933846742497,2018_Nov_14_1236,59.9879748964,spanish_cond1,001,1015,
images/straw.jpg,straw,z,sounds/animalfarm_spanish.wav,,,,,,,,,0,0,0,1,0,206,206,109,519.607110795,9.30123496801e-06,520.369035275,0.761934742914,,,,,x,0,0.750308144954,2018_Nov_14_1236,59.9879748964,spanish_cond1,001,1015,
images/grandpiano.jpg,tulip,x,sounds/animalfarm_spanish.wav,,,,,,,,,0,0,0,1,0,207,207,236,521.486017132,9.30123496801e-06,522.186407561,0.700400692644,,,,,x,1,0.683802080341,2018_Nov_14_1236,59.9879748964,spanish_cond1,001,1015,
images/aloe02.jpg,broad sword,x,sounds/animalfarm_spanish.wav,,,,,,,,,0,0,0,1,0,208,208,137,523.309111949,9.62207559496e-06,524.103628429,0.794527063728,,,,,z,0,0.783828989952,2018_Nov_14_1236,59.9879748964,spanish_cond1,001,1015,
images/hairdryer03a.jpg,hairdryer,z,sounds/animalfarm_spanish.wav,,,,,,,,,0,0,0,1,0,209,209,119,525.204674951,9.30123496801e-06,525.737434534,0.532769526122,,,,,z,1,0.517078911071,2018_Nov_14_1236,59.9879748964,spanish_cond1,001,1015,
images/computerkeyboard01a.jpg,computer keyboard,z,sounds/animalfarm_spanish.wav,,,,,,,,,0,0,0,1,0,210,210,61,526.855902671,3.91295179725e-05,527.521280202,0.665398699231,,,,,z,1,0.65042845218,2018_Nov_14_1236,59.9879748964,spanish_cond1,001,1015,
images/skateboard.jpg,key,x,sounds/animalfarm_spanish.wav,,,,,,,,,0,0,0,1,0,211,211,189,528.61436932,1.02635240182e-05,529.355138844,0.740780428634,,,,,x,1,0.717131126439,2018_Nov_14_1236,59.9879748964,spanish_cond1,001,1015,
images/lock02a.jpg,lock,z,sounds/animalfarm_spanish.wav,,,,,,,,,0,0,0,1,0,212,212,65,530.558454205,9.62207559496e-06,531.205673074,0.647229133174,,,,,z,1,0.633765372331,2018_Nov_14_1236,59.9879748964,spanish_cond1,001,1015,
images/lollipop03b.jpg,lollipop,z,sounds/animalfarm_spanish.wav,,,,,,,,,0,0,0,1,0,213,213,42,532.299987395,9.62195917964e-06,532.98955274,0.689575608354,,,,,z,1,0.66713579325,2018_Nov_14_1236,59.9879748964,spanish_cond1,001,1015,
images/screwdriver02b.jpg,cola,x,sounds/animalfarm_spanish.wav,,,,,,,,,0,0,0,1,0,214,214,158,534.086269357,9.30123496801e-06,534.873404149,0.787145056063,,,,,x,1,0.767131591565,2018_Nov_14_1236,59.9879748964,spanish_cond1,001,1015,
images/lamp04b.jpg,parking meter,x,sounds/animalfarm_spanish.wav,,,,,,,,,0,0,0,1,0,215,215,209,536.08066229,9.62195917964e-06,536.89065353,0.810001504258,,,,,x,1,0.800474108546,2018_Nov_14_1236,59.9879748964,spanish_cond1,001,1015,
images/tent.jpg,tent,z,sounds/animalfarm_spanish.wav,,,,,,,,,0,0,0,1,0,216,216,11,538.019262947,9.30123496801e-06,538.857898918,0.838645592681,,,,,z,1,0.817144565284,2018_Nov_14_1236,59.9879748964,spanish_cond1,001,1015,
images/parkingmeter.jpg,ear,x,sounds/animalfarm_spanish.wav,,,,,,,,,0,0,0,1,0,217,217,171,539.961490463,9.30123496801e-06,540.775159236,0.813679357991,,,,,x,1,0.800515162526,2018_Nov_14_1236,59.9879748964,spanish_cond1,001,1015,
images/wallet01.jpg,lamp,x,sounds/animalfarm_spanish.wav,,,,,,,,,0,0,0,1,0,218,218,193,541.882982862,9.30135138333e-06,542.809082602,0.926109682652,,,,,x,1,0.917214773945,2018_Nov_14_1236,59.9879748964,spanish_cond1,001,1015,
images/djmixer01.jpg,light bulb,x,sounds/animalfarm_spanish.wav,,,,,,,,,0,0,0,1,0,219,219,196,543.933420167,8.9806271717e-06,544.909682984,0.976272759726,,,,,x,1,0.967221653671,2018_Nov_14_1236,59.9879748964,spanish_cond1,001,1015,
images/apple06.jpg,apple,z,sounds/animalfarm_spanish.wav,,,,,,,,,0,0,0,1,0,220,220,13,546.038938359,9.30123496801e-06,546.826877551,0.787949456135,,,,,z,1,0.767130629392,2018_Nov_14_1236,59.9879748964,spanish_cond1,001,1015,
images/mattress.jpg,cat,x,sounds/animalfarm_spanish.wav,,,,,,,,,0,0,0,1,0,221,221,147,547.933085321,8.98051075637e-06,548.660790718,0.727715339861,,,,,x,1,0.717167369439,2018_Nov_14_1236,59.9879748964,spanish_cond1,001,1015,
images/hammer02a.jpg,flower,x,sounds/animalfarm_spanish.wav,,,,,,,,,0,0,0,1,0,222,222,176,549.757985548,8.9806271717e-06,550.477943622,0.719967695768,,,,,x,1,0.700454575941,2018_Nov_14_1236,59.9879748964,spanish_cond1,001,1015,
images/toothbrush03a.jpg,parrot,x,sounds/animalfarm_spanish.wav,,,,,,,,,0,0,0,1,0,223,223,210,551.572499456,9.62207559496e-06,552.445209216,0.872720024199,,,,,x,1,0.850524608162,2018_Nov_14_1236,59.9879748964,spanish_cond1,001,1015,
images/candy.jpg,candy,z,sounds/animalfarm_spanish.wav,,,,,,,,,0,0,0,1,0,224,224,31,553.549566031,1.41122145578e-05,554.295729976,0.746178698028,,,,,z,1,0.733807356446,2018_Nov_14_1236,59.9879748964,spanish_cond1,001,1015,
images/drink.jpg,drink,z,sounds/animalfarm_spanish.wav,,,,,,,,,0,0,0,1,0,225,225,117,555.398335584,9.62207559496e-06,556.496383567,1.09805824596,,,,,z,1,1.08392222726,2018_Nov_14_1236,59.9879748964,spanish_cond1,001,1015,
images/pouch01b.jpg,pouch,z,sounds/animalfarm_spanish.wav,,,,,,,,,0,0,0,1,0,226,226,25,557.610840929,9.62207559496e-06,558.413597379,0.80276671343,,,,,x,0,0.783822575235,2018_Nov_14_1236,59.9879748964,spanish_cond1,001,1015,
images/plant01.jpg,plant,z,sounds/animalfarm_spanish.wav,,,,,,,,,0,0,0,1,0,227,227,47,559.527779551,9.30123496801e-06,560.247458265,0.719688657322,,,,,z,1,0.700468046707,2018_Nov_14_1236,59.9879748964,spanish_cond1,001,1015,
images/volleyball.jpg,volley ball,z,sounds/animalfarm_spanish.wav,,,,,,,,,0,0,0,1,0,228,228,2,561.381347601,9.30123496801e-06,562.248044887,0.866706587258,,,,,z,1,0.8505063263,2018_Nov_14_1236,59.9879748964,spanish_cond1,001,1015,
,,,sounds/animalfarm_spanish.wav,,,,,,,,,0,0,0,1,,,,,,,,,,,,,,,,2018_Nov_14_1236,59.9879748964,spanish_cond1,001,1015,
images/pictureframe04.jpg,picture frame,z,sounds/greatgatsby_english.wav,,,,,,,,,0,1,1,0,0,0,0,41,583.396535947,9.94279980659e-06,584.254463732,0.857937727007,,,,573.251396555,z,1,0.833807003568,2018_Nov_14_1236,59.9879748964,spanish_cond1,001,1015,
images/leaf01a.jpg,leaf,z,sounds/greatgatsby_english.wav,,,,,,,,,0,1,1,0,0,1,1,68,585.356671951,8.9806271717e-06,585.938256831,0.581594822928,,,,,z,1,0.567079055356,2018_Nov_14_1236,59.9879748964,spanish_cond1,001,1015,
images/blueberry02.jpg,blueberry,z,sounds/greatgatsby_english.wav,,,,,,,,,0,1,1,0,0,2,2,46,587.049900717,9.62195917964e-06,587.588742695,0.538852882921,,,,,z,1,0.517078911071,2018_Nov_14_1236,59.9879748964,spanish_cond1,001,1015,
images/cupcake.jpg,scissors,x,sounds/greatgatsby_english.wav,,,,,,,,,0,1,1,0,0,3,3,219,588.707376972,9.30123496801e-06,589.372594136,0.665227106656,,,,,x,1,0.65045699745,2018_Nov_14_1236,59.9879748964,spanish_cond1,001,1015,
images/aquarium.jpg,computer mouse,x,sounds/greatgatsby_english.wav,,,,,,,,,0,1,1,0,0,4,4,159,590.507351378,9.62195917964e-06,591.373153175,0.865811740165,,,,,x,1,0.850488044554,2018_Nov_14_1236,59.9879748964,spanish_cond1,001,1015,
images/swallow.jpg,mattress,x,sounds/greatgatsby_english.wav,,,,,,,,,0,1,1,0,0,5,5,202,592.472979305,9.30123496801e-06,593.240400199,0.767431156826,,,,,x,1,0.750494170585,2018_Nov_14_1236,59.9879748964,spanish_cond1,001,1015,
images/toothbrush03a.jpg,parrot,x,sounds/greatgatsby_english.wav,,,,,,,,,0,1,1,0,0,6,6,210,594.332222419,9.30123496801e-06,594.990875767,0.658663290786,,,,,x,1,0.650427810731,2018_Nov_14_1236,59.9879748964,spanish_cond1,001,1015,
images/butterfly.jpg,butterfly,z,sounds/greatgatsby_english.wav,,,,,,,,,0,1,1,0,0,7,7,91,596.098590664,9.62195917964e-06,596.791236336,0.692656255909,,,,,z,1,0.683616054826,2018_Nov_14_1236,59.9879748964,spanish_cond1,001,1015,
images/parrot01.jpg,chameleon,x,sounds/greatgatsby_english.wav,,,,,,,,,0,1,1,0,0,8,8,150,597.903301024,9.30135138333e-06,598.608612471,0.705320748151,,,,,x,1,0.683779628947,2018_Nov_14_1236,59.9879748964,spanish_cond1,001,1015,
images/pen03c.jpg,pepper,x,sounds/greatgatsby_english.wav,,,,,,,,,0,1,1,0,0,9,9,211,599.702155748,9.30123496801e-06,600.44245283,0.740307025495,,,,,x,1,0.717112203245,2018_Nov_14_1236,59.9879748964,spanish_cond1,001,1015,
images/computermouse02a.jpg,world map,x,sounds/greatgatsby_english.wav,,,,,,,,,0,1,1,0,0,10,10,239,601.543803087,9.30123496801e-06,602.443031755,0.89923828945,,,,,x,1,0.883811638225,2018_Nov_14_1236,59.9879748964,spanish_cond1,001,1015,
images/drink.jpg,drink,z,sounds/greatgatsby_english.wav,,,,,,,,,0,1,1,0,0,11,11,117,603.542248491,1.02635240182e-05,604.260266126,0.71802789811,,,,,z,1,0.700463877176,2018_Nov_14_1236,59.9879748964,spanish_cond1,001,1015,
images/cauliflower01.jpg,glue stick,x,sounds/greatgatsby_english.wav,,,,,,,,,0,1,1,0,0,12,12,181,605.3775004,9.94279980659e-06,606.227482968,0.849993152311,,,,,x,1,0.833819191554,2018_Nov_14_1236,59.9879748964,spanish_cond1,001,1015,
images/mitten01.jpg,mitten,z,sounds/greatgatsby_english.wav,,,,,,,,,0,1,1,0,0,13,13,102,607.347532323,9.62195917964e-06,608.244743575,0.897221194929,,,,,z,1,0.883806827245,2018_Nov_14_1236,59.9879748964,spanish_cond1,001,1015,
images/knife04.jpg,tooth brush,x,sounds/greatgatsby_english.wav,,,,,,,,,0,1,1,0,0,14,14,233,609.340616983,9.30123496801e-06,610.295343491,0.954736451502,,,,,x,1,0.93386662798,2018_Nov_14_1236,59.9879748964,spanish_cond1,001,1015,
images/bowlingball.jpg,bowling ball,z,sounds/greatgatsby_english.wav,,,,,,,,,0,1,1,0,0,15,15,20,611.426630073,9.30123496801e-06,612.129202775,0.702582964906,,,,,z,1,0.683788930299,2018_Nov_14_1236,59.9879748964,spanish_cond1,001,1015,
images/cat.jpg,black olive,x,sounds/greatgatsby_english.wav,,,,,,,,,0,1,1,0,0,16,16,133,613.259006283,9.30123496801e-06,614.179805257,0.920809557661,,,,,x,1,0.900523469551,2018_Nov_14_1236,59.9879748964,spanish_cond1,001,1015,
images/dolphin01.jpg,dolphin,z,sounds/greatgatsby_english.wav,,,,,,,,,0,1,1,0,0,17,17,99,615.279855901,9.30123496801e-06,615.930317709,0.650472713402,,,,,z,1,0.633786220104,2018_Nov_14_1236,59.9879748964,spanish_cond1,001,1015,
images/axe01.jpg,axe,z,sounds/greatgatsby_english.wav,,,,,,,,,0,1,1,0,0,18,18,104,617.033040065,9.62195917964e-06,617.847531842,0.814501719316,,,,,z,1,0.800493673305,2018_Nov_14_1236,59.9879748964,spanish_cond1,001,1015,
images/mirror02.jpg,8 ball,x,sounds/greatgatsby_english.wav,,,,,,,,,0,1,1,0,0,19,19,121,618.951679218,9.62195917964e-06,619.664754345,0.713085070485,,,,,x,1,0.700455858838,2018_Nov_14_1236,59.9879748964,spanish_cond1,001,1015,
images/safe.jpg,safe,z,sounds/greatgatsby_english.wav,,,,,,,,,0,1,1,0,0,20,20,78,620.776527807,9.30123496801e-06,621.615293996,0.838776131393,,,,,z,1,0.817155470257,2018_Nov_14_1236,59.9879748964,spanish_cond1,001,1015,
images/volleyball.jpg,volley ball,z,sounds/greatgatsby_english.wav,,,,,,,,,0,1,1,0,0,21,21,2,622.74745586,9.30135138333e-06,623.415816856,0.668371259584,,,,,z,1,0.650454110815,2018_Nov_14_1236,59.9879748964,spanish_cond1,001,1015,
images/dragonfly02.jpg,dragon fly,z,sounds/greatgatsby_english.wav,,,,,,,,,0,1,1,0,0,22,22,29,624.513260576,8.98051075637e-06,625.249688327,0.73643769382,,,,,z,1,0.717139144894,2018_Nov_14_1236,59.9879748964,spanish_cond1,001,1015,
images/ladybug03.jpg,giraffe,x,sounds/greatgatsby_english.wav,,,,,,,,,0,1,1,0,0,23,23,178,626.353811327,9.62195917964e-06,627.116905522,0.763104458805,,,,,x,1,0.750471719191,2018_Nov_14_1236,59.9879748964,spanish_cond1,001,1015,
images/chessknight02b (1).jpg,cockroach,x,sounds/greatgatsby_english.wav,,,,,,,,,0,1,1,0,0,24,24,155,628.226297857,9.62195917964e-06,629.084142892,0.857855298324,,,,,x,1,0.833851906355,2018_Nov_14_1236,59.9879748964,spanish_cond1,001,1015,
images/battery03b.jpg,battery,z,sounds/greatgatsby_english.wav,,,,,,,,,0,1,1,0,0,25,25,34,630.193337334,9.62195917964e-06,630.851306236,0.65797948651,,,,,z,1,0.633773069945,2018_Nov_14_1236,59.9879748964,spanish_cond1,001,1015,
images/radish01.jpg,raisin,x,sounds/greatgatsby_english.wav,,,,,,,,,0,1,1,0,0,26,26,214,631.961881116,9.30135138333e-06,632.735198379,0.773327846662,,,,,x,1,0.750476209447,2018_Nov_14_1236,59.9879748964,spanish_cond1,001,1015,
images/umbrella01.jpg,umbrella,z,sounds/greatgatsby_english.wav,,,,,,,,,0,1,1,0,0,27,27,53,633.848006207,9.30135138333e-06,634.669070138,0.821073874366,,,,,z,1,0.800479881815,2018_Nov_14_1236,59.9879748964,spanish_cond1,001,1015,
images/straw.jpg,straw,z,sounds/greatgatsby_english.wav,,,,,,,,,0,1,1,0,0,28,28,109,635.760038886,8.98051075637e-06,636.78636856,1.0263392959,,,,,z,1,1.01721057226,2018_Nov_14_1236,59.9879748964,spanish_cond1,001,1015,
images/comb02a.jpg,diploma,x,sounds/greatgatsby_english.wav,,,,,,,,,0,1,1,0,0,29,29,166,637.890464939,9.94268339127e-06,638.853876917,0.963432184537,,,,,x,1,0.950739146909,2018_Nov_14_1236,59.9879748964,spanish_cond1,001,1015,
images/croissant02b.jpg,croissant,z,sounds/greatgatsby_english.wav,,,,,,,,,0,1,1,0,0,30,30,39,639.965175693,9.62195917964e-06,640.670705239,0.705540450756,,,,,z,1,0.683653901448,2018_Nov_14_1236,59.9879748964,spanish_cond1,001,1015,
images/key03b.jpg,cigar,x,sounds/greatgatsby_english.wav,,,,,,,,,0,1,1,0,0,31,31,153,641.7719086,9.30123496801e-06,642.571381378,0.799482720555,,,,,x,1,0.783815198345,2018_Nov_14_1236,59.9879748964,spanish_cond1,001,1015,
images/masquerademask02b.jpg,mirror,x,sounds/greatgatsby_english.wav,,,,,,,,,0,1,1,0,0,32,32,204,643.674826988,9.62195917964e-06,644.505277193,0.830460467725,,,,,x,1,0.817163809203,2018_Nov_14_1236,59.9879748964,spanish_cond1,001,1015,
images/acousticguitar02.jpg,acoustic guitar,z,sounds/greatgatsby_english.wav,,,,,,,,,0,1,1,0,0,33,33,97,645.617726761,9.94268339127e-06,646.472523543,0.85480768641,,,,,z,1,0.833848057548,2018_Nov_14_1236,59.9879748964,spanish_cond1,001,1015,
images/bowtie.jpg,bowtie,z,sounds/greatgatsby_english.wav,,,,,,,,,0,1,1,0,0,34,34,89,647.581546071,9.62195917964e-06,648.473110485,0.89157499827,,,,,z,1,0.867187687894,2018_Nov_14_1236,59.9879748964,spanish_cond1,001,1015,
images/scissors04a.jpg,leek,x,sounds/greatgatsby_english.wav,,,,,,,,,0,1,1,0,0,35,35,194,649.565218479,9.30123496801e-06,650.390317241,0.825108704623,,,,,x,1,0.800482127001,2018_Nov_14_1236,59.9879748964,spanish_cond1,001,1015,
images/thumbtack02a.jpg,thumb tack,z,sounds/greatgatsby_english.wav,,,,,,,,,0,1,1,0,0,36,36,60,651.498798692,9.30123496801e-06,652.607634874,1.1088464458,,,,,z,1,1.0839138882,2018_Nov_14_1236,59.9879748964,spanish_cond1,001,1015,
images/tulip02.jpg,sport shorts,x,sounds/greatgatsby_english.wav,,,,,,,,,0,1,1,0,0,37,37,225,653.700457463,9.30123496801e-06,654.441498006,0.741050486336,,,,,x,1,0.717134333798,2018_Nov_14_1236,59.9879748964,spanish_cond1,001,1015,
images/giraffe.jpg,lettuce,x,sounds/greatgatsby_english.wav,,,,,,,,,0,1,1,0,0,38,38,195,655.540736873,9.30123496801e-06,656.808852636,1.26812634722,,,,,x,1,1.25061653042,2018_Nov_14_1236,59.9879748964,spanish_cond1,001,1015,
images/coffeepot03b.jpg,coffee pot,z,sounds/greatgatsby_english.wav,,,,,,,,,0,1,1,0,0,39,39,107,657.928727191,1.02635240182e-05,658.826103621,0.897387014353,,,,,z,1,0.883847560384,2018_Nov_14_1236,59.9879748964,spanish_cond1,001,1015,
images/printer03a.jpg,printer,z,sounds/greatgatsby_english.wav,,,,,,,,,0,1,1,0,0,40,40,72,659.934608806,9.30135138333e-06,660.776676307,0.84207808529,,,,,z,1,0.833836511127,2018_Nov_14_1236,59.9879748964,spanish_cond1,001,1015,
images/corn01.jpg,corn,z,sounds/greatgatsby_english.wav,,,,,,,,,0,1,1,0,0,41,41,22,661.874735194,9.62207559496e-06,662.660589297,0.785864686943,,,,,z,1,0.767171362531,2018_Nov_14_1236,59.9879748964,spanish_cond1,001,1015,
images/pineapple01a.jpg,pineapple,z,sounds/greatgatsby_english.wav,,,,,,,,,0,1,1,0,0,42,42,51,663.772058383,9.30123496801e-06,664.427753283,0.655705484329,,,,,z,1,0.633786220104,2018_Nov_14_1236,59.9879748964,spanish_cond1,001,1015,
images/paintbrush03a.jpg,paint brush,z,sounds/greatgatsby_english.wav,,,,,,,,,0,1,1,0,0,43,43,0,665.526478975,9.94268339127e-06,666.461674403,0.93520665355,,,,,z,1,0.917211245862,2018_Nov_14_1236,59.9879748964,spanish_cond1,001,1015,
images/electrictoothbrush01a.jpg,banjo,x,sounds/greatgatsby_english.wav,,,,,,,,,0,1,1,0,0,44,44,127,667.55521768,9.94268339127e-06,668.445580305,0.890373529634,,,,,x,1,0.867183839087,2018_Nov_14_1236,59.9879748964,spanish_cond1,001,1015,
images/plate01b.jpg,plate,z,sounds/greatgatsby_english.wav,,,,,,,,,0,1,1,0,0,45,45,3,669.543226408,9.62195917964e-06,670.412841088,0.869625264313,,,,,z,1,0.850543852197,2018_Nov_14_1236,59.9879748964,spanish_cond1,001,1015,
images/banana04a.jpg,banana,z,sounds/greatgatsby_english.wav,,,,,,,,,0,1,1,0,0,46,46,118,671.518628055,9.30135138333e-06,672.230019651,0.711402180605,,,,,z,1,0.700483121211,2018_Nov_14_1236,59.9879748964,spanish_cond1,001,1015,
images/bicycle.jpg,hand bag,x,sounds/greatgatsby_english.wav,,,,,,,,,0,1,1,0,0,47,47,186,673.338389487,9.30123496801e-06,674.44731323,1.10893336462,,,,,x,1,1.10057311913,2018_Nov_14_1236,59.9879748964,spanish_cond1,001,1015,
images/apricot.jpg,apricot,z,sounds/greatgatsby_english.wav,,,,,,,,,0,1,1,0,0,48,48,32,675.563258475,9.30123496801e-06,676.347849849,0.784601316671,,,,,z,1,0.767143137986,2018_Nov_14_1236,59.9879748964,spanish_cond1,001,1015,
images/glasses01b.jpg,calculator,x,sounds/greatgatsby_english.wav,,,,,,,,,0,1,1,0,0,49,49,142,677.438929891,9.30135138333e-06,678.365137077,0.92621744913,,,,,x,1,0.917217981303,2018_Nov_14_1236,59.9879748964,spanish_cond1,001,1015,
images/cigar.jpg,crocodile,x,sounds/greatgatsby_english.wav,,,,,,,,,0,1,1,0,0,50,50,162,679.462164805,9.62207559496e-06,680.565616189,1.1034619679,,,,,x,1,1.08375320048,2018_Nov_14_1236,59.9879748964,spanish_cond1,001,1015,
images/candy.jpg,candy,z,sounds/greatgatsby_english.wav,,,,,,,,,0,1,1,0,0,51,51,31,681.666832379,1.02635240182e-05,682.499649278,0.832826841273,,,,,z,1,0.817129811505,2018_Nov_14_1236,59.9879748964,spanish_cond1,001,1015,
images/handfan01b.jpg,handfan,z,sounds/greatgatsby_english.wav,,,,,,,,,0,1,1,0,0,52,52,69,683.612889134,9.62195917964e-06,684.55026042,0.93738154904,,,,,z,1,0.91718077613,2018_Nov_14_1236,59.9879748964,spanish_cond1,001,1015,
images/globe.jpg,cloud,x,sounds/greatgatsby_english.wav,,,,,,,,,0,1,1,0,0,53,53,154,685.676680188,9.62207559496e-06,686.484157518,0.807487913989,,,,,x,1,0.783837970463,2018_Nov_14_1236,59.9879748964,spanish_cond1,001,1015,
images/mattress.jpg,cat,x,sounds/greatgatsby_english.wav,,,,,,,,,0,1,1,0,0,54,54,147,687.586504615,8.98051075637e-06,688.468051873,0.88155752141,,,,,x,1,0.867183197639,2018_Nov_14_1236,59.9879748964,spanish_cond1,001,1015,
images/treadmill.jpg,lily,x,sounds/greatgatsby_english.wav,,,,,,,,,0,1,1,0,0,55,55,199,689.572266282,9.30123496801e-06,690.485304461,0.91304844257,,,,,x,1,0.900524752447,2018_Nov_14_1236,59.9879748964,spanish_cond1,001,1015,
images/donut.jpg,rhinoceros,x,sounds/greatgatsby_english.wav,,,,,,,,,0,1,1,0,0,56,56,216,691.609117305,9.30123496801e-06,692.43589992,0.826792877517,,,,,x,1,0.817190750968,2018_Nov_14_1236,59.9879748964,spanish_cond1,001,1015,
images/computerkeyboard01a.jpg,computer keyboard,z,sounds/greatgatsby_english.wav,,,,,,,,,0,1,1,0,0,57,57,61,693.551489471,9.62195917964e-06,694.569842177,1.01836361003,,,,,z,1,1.00055679376,2018_Nov_14_1236,59.9879748964,spanish_cond1,001,1015,
images/seagull.jpg,seagull,z,sounds/greatgatsby_english.wav,,,,,,,,,0,1,1,0,0,58,58,50,695.675891183,9.62195917964e-06,696.687126806,1.01124652848,,,,,z,1,1.00056641584,2018_Nov_14_1236,59.9879748964,spanish_cond1,001,1015,
images/lion.jpg,lion,z,sounds/greatgatsby_english.wav,,,,,,,,,0,1,1,0,0,59,59,44,697.797927162,9.62195917964e-06,698.537647886,0.739731308538,,,,,z,1,0.717136578984,2018_Nov_14_1236,59.9879748964,spanish_cond1,001,1015,
images/belt02a.jpg,snowman,x,sounds/greatgatsby_english.wav,,,,,,,,,0,1,1,0,0,60,60,224,699.63951677,9.62207559496e-06,701.138401098,1.49889459123,,,,,x,1,1.48402473365,2018_Nov_14_1236,59.9879748964,spanish_cond1,001,1015,
images/gamecontroller01.jpg,game controller,z,sounds/greatgatsby_english.wav,,,,,,,,,0,1,1,0,0,61,61,112,702.257168158,8.98051075637e-06,703.122401295,0.865243079257,,,,,z,1,0.850582019542,2018_Nov_14_1236,59.9879748964,spanish_cond1,001,1015,
images/antelope.jpg,antelope,z,sounds/greatgatsby_english.wav,,,,,,,,,0,1,1,0,0,62,62,12,704.225965577,9.30123496801e-06,705.006192727,0.780237413477,,,,,z,1,0.767149231979,2018_Nov_14_1236,59.9879748964,spanish_cond1,001,1015,
images/ostrich.jpg,ostrich,z,sounds/greatgatsby_english.wav,,,,,,,,,0,1,1,0,0,63,63,76,706.104857801,1.15464208648e-05,706.806713021,0.701865804265,,,,,z,1,0.683777704602,2018_Nov_14_1236,59.9879748964,spanish_cond1,001,1015,
images/basketball01.jpg,basket ball,z,sounds/greatgatsby_english.wav,,,,,,,,,0,1,1,0,0,64,64,33,707.944735653,9.62195917964e-06,708.557255623,0.612530233106,,,,,z,1,0.600473531289,2018_Nov_14_1236,59.9879748964,spanish_cond1,001,1015,
images/ant.jpg,ant,z,sounds/greatgatsby_english.wav,,,,,,,,,0,1,1,0,0,65,65,98,709.650638212,9.62207559496e-06,710.257740668,0.607112719677,,,,,z,1,0.583776774467,2018_Nov_14_1236,59.9879748964,spanish_cond1,001,1015,
images/egg01b (1).jpg,egg,z,sounds/greatgatsby_english.wav,,,,,,,,,0,1,1,0,0,66,66,19,711.368555778,8.98051075637e-06,712.008229386,0.639683871996,,,,,x,0,0.617092029075,2018_Nov_14_1236,59.9879748964,spanish_cond1,001,1015,
images/hairpin.jpg,hair pin,z,sounds/greatgatsby_english.wav,,,,,,,,,0,1,1,0,0,67,67,28,713.098028738,9.62195917964e-06,713.958826127,0.860807331745,,,,,z,1,0.850544493645,2018_Nov_14_1236,59.9879748964,spanish_cond1,001,1015,
images/icecube02 (2).jpg,aloe,x,sounds/greatgatsby_english.wav,,,,,,,,,0,1,1,0,0,68,68,122,715.067944555,9.62195917964e-06,716.026062182,0.958128531463,,,,,z,0,0.93385027058,2018_Nov_14_1236,59.9879748964,spanish_cond1,001,1015,
images/charcoalbarbecue.jpg,charcoal barbecue,z,sounds/greatgatsby_english.wav,,,,,,,,,0,1,1,0,0,69,69,77,717.141130862,9.62195917964e-06,717.876612128,0.735491529224,,,,,z,1,0.71714139008,2018_Nov_14_1236,59.9879748964,spanish_cond1,001,1015,
images/tank.jpg,wallet,x,sounds/greatgatsby_english.wav,,,,,,,,,0,1,1,0,0,70,70,237,718.979759777,9.94268339127e-06,719.893851566,0.914101732196,,,,,x,1,0.900527318357,2018_Nov_14_1236,59.9879748964,spanish_cond1,001,1015,
images/fryingpan01.jpg,frying pan,z,sounds/greatgatsby_english.wav,,,,,,,,,0,1,1,0,0,71,71,45,720.993341247,9.30135138333e-06,721.877761638,0.884430333623,,,,,z,1,0.867182556191,2018_Nov_14_1236,59.9879748964,spanish_cond1,001,1015,
images/graduationcap.jpg,graduation cap,z,sounds/greatgatsby_english.wav,,,,,,,,,0,1,1,0,0,72,72,35,722.978528159,9.62195917964e-06,723.761661798,0.783144223387,,,,,z,1,0.767162061296,2018_Nov_14_1236,59.9879748964,spanish_cond1,001,1015,
images/worldmap.jpg,scooter,x,sounds/greatgatsby_english.wav,,,,,,,,,0,1,1,0,0,73,73,220,724.891468835,9.30123496801e-06,725.728891791,0.837433539913,,,,,x,1,0.817179525155,2018_Nov_14_1236,59.9879748964,spanish_cond1,001,1015,
images/cake.jpg,cake,z,sounds/greatgatsby_english.wav,,,,,,,,,0,1,1,0,0,74,74,23,726.841278817,9.94279980659e-06,727.529417859,0.688149626134,,,,,z,1,0.667136113974,2018_Nov_14_1236,59.9879748964,spanish_cond1,001,1015,
images/screw03c.jpg,screw,z,sounds/greatgatsby_english.wav,,,,,,,,,0,1,1,0,0,75,75,84,728.62268306,9.62207559496e-06,729.396625753,0.773952956777,,,,,z,1,0.750480378978,2018_Nov_14_1236,59.9879748964,spanish_cond1,001,1015,
images/desktopcomputer.jpg,desktop computer,z,sounds/greatgatsby_english.wav,,,,,,,,,0,1,1,0,0,76,76,16,730.531043016,9.30123496801e-06,731.330519643,0.799486890202,,,,,z,1,0.783824178856,2018_Nov_14_1236,59.9879748964,spanish_cond1,001,1015,
images/shotglass.jpg,shot glass,z,sounds/greatgatsby_english.wav,,,,,,,,,0,1,1,0,0,77,77,86,732.439393993,9.62195917964e-06,733.297740014,0.858356925892,,,,,z,1,0.833834586781,2018_Nov_14_1236,59.9879748964,spanish_cond1,001,1015,
images/binder03b.jpg,dj mixer,x,sounds/greatgatsby_english.wav,,,,,,,,,0,1,1,0,0,78,78,167,734.409486855,9.94268339127e-06,735.315014091,0.90553782077,,,,,z,0,0.883858465357,2018_Nov_14_1236,59.9879748964,spanish_cond1,001,1015,
images/scooter.jpg,pen,x,sounds/greatgatsby_english.wav,,,,,,,,,0,1,1,0,0,79,79,212,736.406117868,9.94279980659e-06,737.282259159,0.876151875127,,,,,x,1,0.867206611205,2018_Nov_14_1236,59.9879748964,spanish_cond1,001,1015,
images/cactus.jpg,cactus,z,sounds/greatgatsby_english.wav,,,,,,,,,0,1,1,0,0,80,80,70,738.392523889,9.30123496801e-06,739.116104971,0.723591345362,,,,,x,0,0.700456500286,2018_Nov_14_1236,59.9879748964,spanish_cond1,001,1015,
images/tissuebox03.jpg,tissue box,z,sounds/greatgatsby_english.wav,,,,,,,,,0,1,1,0,0,81,81,58,740.240186269,9.30135138333e-06,740.899947432,0.659771425882,,,,,z,1,0.650446413318,2018_Nov_14_1236,59.9879748964,spanish_cond1,001,1015,
images/remotecontrol01c.jpg,remote control,z,sounds/greatgatsby_english.wav,,,,,,,,,0,1,1,0,0,82,82,85,742.008053624,9.30135138333e-06,743.100624116,1.09258075512,,,,,z,1,1.08392832114,2018_Nov_14_1236,59.9879748964,spanish_cond1,001,1015,
images/pingpongpaddle01c (1).jpg,ping pong paddle,z,sounds/greatgatsby_english.wav,,,,,,,,,0,1,1,0,0,83,83,10,744.210552717,9.30135138333e-06,744.901187068,0.690643972484,,,,,z,1,0.667189676431,2018_Nov_14_1236,59.9879748964,spanish_cond1,001,1015,
images/cloud.jpg,ceiling fan,x,sounds/greatgatsby_english.wav,,,,,,,,,0,1,1,0,0,84,84,149,746.005430984,9.62207559496e-06,746.734975789,0.729555709986,,,,,x,1,0.717127598356,2018_Nov_14_1236,59.9879748964,spanish_cond1,001,1015,
images/bus.jpg,microphone,x,sounds/greatgatsby_english.wav,,,,,,,,,0,1,1,0,0,85,85,203,747.851753981,9.62207559496e-06,748.702309379,0.850565982866,,,,,z,0,0.833921505604,2018_Nov_14_1236,59.9879748964,spanish_cond1,001,1015,
images/djmixer01.jpg,light bulb,x,sounds/greatgatsby_english.wav,,,,,,,,,0,1,1,0,0,86,86,196,749.82202036,9.30123496801e-06,750.752823339,0.930813563522,,,,,x,1,0.917199699441,2018_Nov_14_1236,59.9879748964,spanish_cond1,001,1015,
images/bottleofredwine02.jpg,pipe,x,sounds/greatgatsby_english.wav,,,,,,,,,0,1,1,0,0,87,87,213,751.849823805,9.62195917964e-06,754.85385607,3.00404284871,,,,,None,0,,2018_Nov_14_1236,59.9879748964,spanish_cond1,001,1015,
images/bed.jpg,bed,z,sounds/greatgatsby_english.wav,,,,,,,,,0,1,1,0,0,88,88,103,755.972384184,9.30135138333e-06,756.871271591,0.898897349602,,,,,z,1,0.883865521522,2018_Nov_14_1236,59.9879748964,spanish_cond1,001,1015,
images/skateboard.jpg,key,x,sounds/greatgatsby_english.wav,,,,,,,,,0,1,1,0,0,89,89,189,757.961261459,9.30135138333e-06,758.688451116,0.727200241527,,,,,x,1,0.717070507933,2018_Nov_14_1236,59.9879748964,spanish_cond1,001,1015,
images/elbow.jpg,elbow,z,sounds/greatgatsby_english.wav,,,,,,,,,0,1,1,0,0,90,90,105,759.800484372,9.62195917964e-06,760.839084357,1.0386102479,,,,,z,1,1.01720255392,2018_Nov_14_1236,59.9879748964,spanish_cond1,001,1015,
images/ruler02b.jpg,watermelon,x,sounds/greatgatsby_english.wav,,,,,,,,,0,1,1,0,0,91,91,238,761.939857934,9.62207559496e-06,762.772999736,0.833152386127,,,,,x,1,0.817188185058,2018_Nov_14_1236,59.9879748964,spanish_cond1,001,1015,
images/candle08a.jpg,screw driver,x,sounds/greatgatsby_english.wav,,,,,,,,,0,1,1,0,0,92,92,221,763.885649122,9.30135138333e-06,764.556836424,0.671197565272,,,,,z,0,0.650458921795,2018_Nov_14_1236,59.9879748964,spanish_cond1,001,1015,
images/lipstick04.jpg,lipstick,z,sounds/greatgatsby_english.wav,,,,,,,,,0,1,1,0,0,93,93,56,765.655223742,9.62195917964e-06,766.407386049,0.752173211658,,,,,z,1,0.733824355295,2018_Nov_14_1236,59.9879748964,spanish_cond1,001,1015,
images/lock02a.jpg,lock,z,sounds/greatgatsby_english.wav,,,,,,,,,0,1,1,0,0,94,94,65,767.516519231,9.30135138333e-06,768.207901532,0.69139256503,,,,,z,1,0.667117190664,2018_Nov_14_1236,59.9879748964,spanish_cond1,001,1015,
images/carrot02.jpg,corkscrew,x,sounds/greatgatsby_english.wav,,,,,,,,,0,1,1,0,0,95,95,161,769.308643999,9.62207559496e-06,770.008413808,0.6997800729,,,,,x,1,0.683789571747,2018_Nov_14_1236,59.9879748964,spanish_cond1,001,1015,
images/chameleon.jpg,50 dollar bill,x,sounds/greatgatsby_english.wav,,,,,,,,,0,1,1,0,0,96,96,120,771.117501446,8.98051075637e-06,771.892304026,0.774812202435,,,,,x,1,0.750493208296,2018_Nov_14_1236,59.9879748964,spanish_cond1,001,1015,
images/lamp04b.jpg,parking meter,x,sounds/greatgatsby_english.wav,,,,,,,,,0,1,1,0,0,97,97,209,773.013133726,9.62207559496e-06,774.059586876,1.0464634134,,,,,x,1,1.03389353759,2018_Nov_14_1236,59.9879748964,spanish_cond1,001,1015,
images/cheetah.jpg,cheetah,z,sounds/greatgatsby_english.wav,,,,,,,,,0,1,1,0,0,98,98,82,775.161184418,8.98051075637e-06,775.893462837,0.732288361411,,,,,z,1,0.717143314425,2018_Nov_14_1236,59.9879748964,spanish_cond1,001,1015,
images/flower01.jpg,bus,x,sounds/greatgatsby_english.wav,,,,,,,,,0,1,1,0,0,99,99,140,777.006645924,9.30123496801e-06,777.910720557,0.904084896902,,,,,x,1,0.883865200798,2018_Nov_14_1236,59.9879748964,spanish_cond1,001,1015,
images/eraser.jpg,eraser,z,sounds/greatgatsby_english.wav,,,,,,,,,0,1,1,0,0,100,100,110,779.01591994,9.30123496801e-06,779.711221287,0.695311610471,,,,,z,1,0.683786364389,2018_Nov_14_1236,59.9879748964,spanish_cond1,001,1015,
images/8ball.jpg,nail clipper,x,sounds/greatgatsby_english.wav,,,,,,,,,0,1,1,0,0,101,101,206,780.826989808,9.30135138333e-06,781.845204918,1.01822537382,,,,,x,1,1.000566095,2018_Nov_14_1236,59.9879748964,spanish_cond1,001,1015,
images/birthdaycandle.jpg,birthday candle,z,sounds/greatgatsby_english.wav,,,,,,,,,0,1,1,0,0,102,102,55,782.940602357,9.30135138333e-06,784.129194115,1.18860202108,,,,,z,1,1.16727964231,2018_Nov_14_1236,59.9879748964,spanish_cond1,001,1015,
images/toucan.jpg,toucan,z,sounds/greatgatsby_english.wav,,,,,,,,,0,1,1,0,0,103,103,81,785.228977587,8.98051075637e-06,785.92970158,0.700734255719,,,,,z,1,0.68378796801,2018_Nov_14_1236,59.9879748964,spanish_cond1,001,1015,
images/cherry01.jpg,highlighter,x,sounds/greatgatsby_english.wav,,,,,,,,,0,1,1,0,0,104,104,187,787.03721666,9.62207559496e-06,787.896960438,0.859754362958,,,,,x,1,0.850523966597,2018_Nov_14_1236,59.9879748964,spanish_cond1,001,1015,
images/snowman.jpg,globe,x,sounds/greatgatsby_english.wav,,,,,,,,,0,1,1,0,0,105,105,180,789.006818799,9.94279980659e-06,789.947538866,0.940730009228,,,,,x,1,0.917193926289,2018_Nov_14_1236,59.9879748964,spanish_cond1,001,1015,
images/redfox.jpg,red fox,z,sounds/greatgatsby_english.wav,,,,,,,,,0,1,1,0,0,106,106,1,791.059070815,9.94279980659e-06,791.848104993,0.789045082638,,,,,z,1,0.767167193,2018_Nov_14_1236,59.9879748964,spanish_cond1,001,1015,
images/blackolive.jpg,tank,x,sounds/greatgatsby_english.wav,,,,,,,,,0,1,1,0,0,107,107,229,792.961816007,9.62195917964e-06,794.082056198,1.12025077525,,,,,x,1,1.10055612028,2018_Nov_14_1236,59.9879748964,spanish_cond1,001,1015,
images/flamingo.jpg,flamingo,z,sounds/greatgatsby_english.wav,,,,,,,,,0,1,1,0,0,108,108,52,795.178969746,9.30123496801e-06,795.915935688,0.736976205721,,,,,z,1,0.717122145928,2018_Nov_14_1236,59.9879748964,spanish_cond1,001,1015,
images/fireextinguisher02.jpg,fire extinguisher,z,sounds/greatgatsby_english.wav,,,,,,,,,0,1,1,0,0,109,109,175,797.024764493,9.30123496801e-06,797.716542901,0.691788350348,,,,,z,1,0.667173960479,2018_Nov_14_1236,59.9879748964,spanish_cond1,001,1015,
images/ceilingfan02.jpg,paper clip,x,sounds/greatgatsby_english.wav,,,,,,,,,0,1,1,0,0,110,110,208,798.813985659,9.94279980659e-06,799.600370576,0.786395180505,,,,,x,1,0.767182267504,2018_Nov_14_1236,59.9879748964,spanish_cond1,001,1015,
images/sunglasses03a.jpg,sun glasses,z,sounds/greatgatsby_english.wav,,,,,,,,,0,1,1,0,0,111,111,17,800.708822519,9.62207559496e-06,802.117744241,1.40893134405,,,,,z,1,1.38399782416,2018_Nov_14_1236,59.9879748964,spanish_cond1,001,1015,
images/gorilla.jpg,gorilla,z,sounds/greatgatsby_english.wav,,,,,,,,,0,1,1,0,0,112,112,80,803.227301433,9.30123496801e-06,803.968279754,0.740988263977,,,,,z,1,0.717121825204,2018_Nov_14_1236,59.9879748964,spanish_cond1,001,1015,
images/grandpiano.jpg,tulip,x,sounds/greatgatsby_english.wav,,,,,,,,,0,1,1,0,0,113,113,236,805.081941376,9.94279980659e-06,806.018854653,0.936923541245,,,,,x,1,0.91717821022,2018_Nov_14_1236,59.9879748964,spanish_cond1,001,1015,
images/mailbox01.jpg,mail box,z,sounds/greatgatsby_english.wav,,,,,,,,,0,1,1,0,0,114,114,73,807.137352298,9.30123496801e-06,808.069622955,0.932280599605,,,,,z,1,0.917349482072,2018_Nov_14_1236,59.9879748964,spanish_cond1,001,1015,
images/beachumbrella01.jpg,beach umbrella,z,sounds/greatgatsby_english.wav,,,,,,,,,0,1,1,0,0,115,115,92,809.174225131,9.30135138333e-06,809.98671585,0.812501303037,,,,,z,1,0.800504578277,2018_Nov_14_1236,59.9879748964,spanish_cond1,001,1015,
images/tent.jpg,tent,z,sounds/greatgatsby_english.wav,,,,,,,,,0,1,1,0,0,116,116,11,811.111935112,9.94279980659e-06,812.82086636,1.70894183207,,,,,z,1,1.70075061312,2018_Nov_14_1236,59.9879748964,spanish_cond1,001,1015,
images/rhinoceros01.jpg,envelope,x,sounds/greatgatsby_english.wav,,,,,,,,,0,1,1,0,0,117,117,173,813.932000599,9.62207559496e-06,815.204876692,1.27288667741,,,,,x,1,1.25062903913,2018_Nov_14_1236,59.9879748964,spanish_cond1,001,1015,
images/diaper01a.jpg,camera,x,sounds/greatgatsby_english.wav,,,,,,,,,0,1,1,0,0,118,118,143,816.324270467,9.30123496801e-06,817.672275872,1.3480163099,,,,,x,1,1.33399639698,2018_Nov_14_1236,59.9879748964,spanish_cond1,001,1015,
images/pipe.jpg,icecube,x,sounds/greatgatsby_english.wav,,,,,,,,,0,1,1,0,0,119,119,188,818.780246394,9.30123496801e-06,819.906245039,1.12600890803,,,,,x,1,1.1172442172,2018_Nov_14_1236,59.9879748964,spanish_cond1,001,1015,
images/baseball01a.jpg,baseball,z,sounds/greatgatsby_english.wav,,,,,,,,,0,1,1,0,0,120,120,74,821.037495698,9.62207559496e-06,821.873477277,0.835992162582,,,,,z,1,0.817152583622,2018_Nov_14_1236,59.9879748964,spanish_cond1,001,1015,
images/lily.jpg,kiwi,x,sounds/greatgatsby_english.wav,,,,,,,,,0,1,1,0,0,121,121,190,822.971651628,9.62195917964e-06,823.840721381,0.869080016972,,,,,x,1,0.850506005576,2018_Nov_14_1236,59.9879748964,spanish_cond1,001,1015,
images/plant01.jpg,plant,z,sounds/greatgatsby_english.wav,,,,,,,,,0,1,1,0,0,122,122,47,824.950885402,9.30135138333e-06,826.108045894,1.15717075649,,,,,z,1,1.13392237155,2018_Nov_14_1236,59.9879748964,spanish_cond1,001,1015,
images/watermelon01.jpg,orange,x,sounds/greatgatsby_english.wav,,,,,,,,,0,1,1,0,0,123,123,207,827.236182229,9.62195917964e-06,828.208667124,0.972495157737,,,,,x,1,0.950536763994,2018_Nov_14_1236,59.9879748964,spanish_cond1,001,1015,
images/bowl02b (1).jpg,bowl,z,sounds/greatgatsby_english.wav,,,,,,,,,0,1,1,0,0,124,124,24,829.325633906,9.62195917964e-06,830.525997554,1.20037423214,,,,,x,0,1.18393919407,2018_Nov_14_1236,59.9879748964,spanish_cond1,001,1015,
images/calculator02b.jpg,dice,x,sounds/greatgatsby_english.wav,,,,,,,,,0,1,1,0,0,125,125,165,831.626443342,9.30123496801e-06,832.543245652,0.916812252952,,,,,x,1,0.900517375674,2018_Nov_14_1236,59.9879748964,spanish_cond1,001,1015,
images/stapler03a.jpg,candy cane,x,sounds/greatgatsby_english.wav,,,,,,,,,0,1,1,0,0,126,126,145,833.653095674,9.94279980659e-06,834.527170477,0.874085387681,,,,,x,1,0.850520759355,2018_Nov_14_1236,59.9879748964,spanish_cond1,001,1015,
images/rubberglove02a.jpg,lady bug,x,sounds/greatgatsby_english.wav,,,,,,,,,0,1,1,0,0,127,127,192,835.630934897,9.62207559496e-06,836.561066902,0.93014226784,,,,,x,1,0.917181738303,2018_Nov_14_1236,59.9879748964,spanish_cond1,001,1015,
images/squirrel.jpg,binder,x,sounds/greatgatsby_english.wav,,,,,,,,,0,1,1,0,0,128,128,132,837.662962085,8.98051075637e-06,838.478317277,0.815365134506,,,,,x,1,0.800504257553,2018_Nov_14_1236,59.9879748964,spanish_cond1,001,1015,
images/lemon02.jpg,lemon,z,sounds/greatgatsby_english.wav,,,,,,,,,0,1,1,0,0,129,129,14,839.589757176,8.9806271717e-06,840.262158775,0.672411863226,,,,,z,1,0.650440640049,2018_Nov_14_1236,59.9879748964,spanish_cond1,001,1015,
images/mushroom01.jpg,shower head,x,sounds/greatgatsby_english.wav,,,,,,,,,0,1,1,0,0,130,130,222,841.377021224,9.30123496801e-06,842.229567096,0.852555814898,,,,,x,1,0.834009386599,2018_Nov_14_1236,59.9879748964,spanish_cond1,001,1015,
images/gluestick.jpg,squirrel,x,sounds/greatgatsby_english.wav,,,,,,,,,0,1,1,0,0,131,131,226,843.335478828,9.62207559496e-06,844.613428288,1.27795940218,,,,,x,1,1.2672962884,2018_Nov_14_1236,59.9879748964,spanish_cond1,001,1015,
images/hand01a.jpg,cupcake,x,sounds/greatgatsby_english.wav,,,,,,,,,0,1,1,0,0,132,132,163,845.7248653,8.98051075637e-06,846.697372325,0.972516967566,,,,,x,1,0.950541254133,2018_Nov_14_1236,59.9879748964,spanish_cond1,001,1015,
images/parkbench03.jpg,park bench,z,sounds/greatgatsby_english.wav,,,,,,,,,0,1,1,0,0,133,133,71,847.801381785,9.30123496801e-06,848.697945797,0.896574274986,,,,,z,1,0.883853333653,2018_Nov_14_1236,59.9879748964,spanish_cond1,001,1015,
images/bullet (2).jpg,rubber glove,x,sounds/greatgatsby_english.wav,,,,,,,,,0,1,1,0,0,134,134,217,849.801259906,9.30123496801e-06,850.848579037,1.04732971522,,,,,x,1,1.03390283883,2018_Nov_14_1236,59.9879748964,spanish_cond1,001,1015,
images/corkscrew02a.jpg,masquerade mask,x,sounds/greatgatsby_english.wav,,,,,,,,,0,1,1,0,0,135,135,201,851.951109274,9.62207559496e-06,853.382638875,1.43153986521,,,,,x,1,1.41733681306,2018_Nov_14_1236,59.9879748964,spanish_cond1,001,1015,
images/orange.jpg,bat,x,sounds/greatgatsby_english.wav,,,,,,,,,0,1,1,0,0,136,136,128,854.506361593,9.62207559496e-06,855.31653886,0.810187529773,,,,,x,1,0.800493994146,2018_Nov_14_1236,59.9879748964,spanish_cond1,001,1015,
images/hat05.jpg,hat,z,sounds/greatgatsby_english.wav,,,,,,,,,0,1,1,0,0,137,137,15,856.419349417,9.30135138333e-06,857.367162831,0.947823998053,,,,,z,1,0.933898701333,2018_Nov_14_1236,59.9879748964,spanish_cond1,001,1015,
images/weight01.jpg,weight,z,sounds/greatgatsby_english.wav,,,,,,,,,0,1,1,0,0,138,138,67,858.470874651,9.62195917964e-06,859.134318798,0.663454732159,,,,,z,1,0.6504499414,2018_Nov_14_1236,59.9879748964,spanish_cond1,001,1015,
images/backpack01b.jpg,swallow,x,sounds/greatgatsby_english.wav,,,,,,,,,0,1,1,0,0,139,139,228,860.265094131,9.62195917964e-06,861.55167678,1.28659323358,,,,,x,1,1.26726934663,2018_Nov_14_1236,59.9879748964,spanish_cond1,001,1015,
images/radio03a.jpg,radio,z,sounds/greatgatsby_english.wav,,,,,,,,,0,1,1,0,0,140,140,37,862.663982981,8.9806271717e-06,863.552256987,0.888283628738,,,,,z,1,0.867179669556,2018_Nov_14_1236,59.9879748964,spanish_cond1,001,1015,
images/broadsword.jpg,teapot,x,sounds/greatgatsby_english.wav,,,,,,,,,0,1,1,0,0,141,141,231,864.643581108,9.62207559496e-06,865.669541938,1.02597077284,,,,,x,1,1.01722147723,2018_Nov_14_1236,59.9879748964,spanish_cond1,001,1015,
images/feather03b.jpg,feather,z,sounds/greatgatsby_english.wav,,,,,,,,,0,1,1,0,0,142,142,114,866.76951304,9.62195917964e-06,867.570100688,0.800597911817,,,,,z,1,0.783828027663,2018_Nov_14_1236,59.9879748964,spanish_cond1,001,1015,
images/parkingmeter.jpg,ear,x,sounds/greatgatsby_english.wav,,,,,,,,,0,1,1,0,0,143,143,171,868.670645262,9.62195917964e-06,869.620669814,0.950035136309,,,,,x,1,0.933842572966,2018_Nov_14_1236,59.9879748964,spanish_cond1,001,1015,
images/puzzle.jpg,puzzle,z,sounds/greatgatsby_english.wav,,,,,,,,,0,1,1,0,0,144,144,57,870.739878525,9.62207559496e-06,871.654617876,0.914749935153,,,,,z,1,0.900527639082,2018_Nov_14_1236,59.9879748964,spanish_cond1,001,1015,
images/arrow02.jpg,hammer,x,sounds/greatgatsby_english.wav,,,,,,,,,0,1,1,0,0,145,145,184,872.753096283,9.30123496801e-06,873.721913587,0.968828208861,,,,,x,1,0.95057012036,2018_Nov_14_1236,59.9879748964,spanish_cond1,001,1015,
images/daisy.jpg,daisy,z,sounds/greatgatsby_english.wav,,,,,,,,,0,1,1,0,0,146,146,6,874.822621735,9.62195917964e-06,875.622453735,0.799842904555,,,,,z,1,0.783832838759,2018_Nov_14_1236,59.9879748964,spanish_cond1,001,1015,
images/aloe02.jpg,broad sword,x,sounds/greatgatsby_english.wav,,,,,,,,,0,1,1,0,0,147,147,137,876.743352072,8.9806271717e-06,877.839764633,1.09642282466,,,,,x,1,1.08391228446,2018_Nov_14_1236,59.9879748964,spanish_cond1,001,1015,
images/licenseplate.jpg,license plate,z,sounds/greatgatsby_english.wav,,,,,,,,,0,1,1,0,0,148,148,40,878.956924497,9.94268339127e-06,879.940344167,0.983429612243,,,,,z,1,0.967196957208,2018_Nov_14_1236,59.9879748964,spanish_cond1,001,1015,
images/triangleruler02.jpg,bottle of red wine,x,sounds/greatgatsby_english.wav,,,,,,,,,0,1,1,0,0,149,149,134,881.050592219,9.62207559496e-06,881.940937524,0.890355889336,,,,,x,1,0.867183197639,2018_Nov_14_1236,59.9879748964,spanish_cond1,001,1015,
images/lightswitch02a.jpg,fork,x,sounds/greatgatsby_english.wav,,,,,,,,,0,1,1,0,0,150,150,177,883.051294626,8.98051075637e-06,883.9084225,0.857138137682,,,,,x,1,0.834087645635,2018_Nov_14_1236,59.9879748964,spanish_cond1,001,1015,
images/peach01.jpg,peach,z,sounds/greatgatsby_english.wav,,,,,,,,,0,1,1,0,0,151,151,106,885.035891388,9.30135138333e-06,885.858774842,0.822893396835,,,,,z,1,0.800503295381,2018_Nov_14_1236,59.9879748964,spanish_cond1,001,1015,
images/clothespin02a.jpg,clothes pin,z,sounds/greatgatsby_english.wav,,,,,,,,,0,1,1,0,0,152,152,79,886.962233282,9.30123496801e-06,887.709301054,0.747078035492,,,,,z,1,0.73383141146,2018_Nov_14_1236,59.9879748964,spanish_cond1,001,1015,
images/candycane01a.jpg,lip,x,sounds/greatgatsby_english.wav,,,,,,,,,0,1,1,0,0,153,153,200,888.801871545,9.30123496801e-06,889.559821172,0.757959248265,,,,,x,1,0.733807356446,2018_Nov_14_1236,59.9879748964,spanish_cond1,001,1015,
images/button07.jpg,radish,x,sounds/greatgatsby_english.wav,,,,,,,,,0,1,1,0,0,154,154,215,890.670513119,9.62207559496e-06,891.543740544,0.873237367719,,,,,x,1,0.850521400804,2018_Nov_14_1236,59.9879748964,spanish_cond1,001,1015,
images/lychee02a.jpg,lychee,z,sounds/greatgatsby_english.wav,,,,,,,,,0,1,1,0,0,155,155,62,892.666912563,9.62195917964e-06,893.560981586,0.894079928752,,,,,z,1,0.883853333653,2018_Nov_14_1236,59.9879748964,spanish_cond1,001,1015,
images/grasshopper.jpg,cauliflower,x,sounds/greatgatsby_english.wav,,,,,,,,,0,1,1,0,0,156,156,148,894.653257965,9.62195917964e-06,895.62825645,0.975008748006,,,,,x,1,0.95055023476,2018_Nov_14_1236,59.9879748964,spanish_cond1,001,1015,
images/saltshaker03c.jpg,salt shaker,z,sounds/greatgatsby_english.wav,,,,,,,,,0,1,1,0,0,157,157,63,896.738883289,9.30135138333e-06,897.528836689,0.789963343414,,,,,z,1,0.767185154138,2018_Nov_14_1236,59.9879748964,spanish_cond1,001,1015,
images/banjo.jpg,knife,x,sounds/greatgatsby_english.wav,,,,,,,,,0,1,1,0,0,158,158,191,898.623870095,1.02635240182e-05,899.379339487,0.755479655694,,,,,x,1,0.733805431984,2018_Nov_14_1236,59.9879748964,spanish_cond1,001,1015,
images/doorhandle.jpg,doll,x,sounds/greatgatsby_english.wav,,,,,,,,,0,1,1,0,0,159,159,168,900.480443742,9.62195917964e-06,901.379936052,0.899503215449,,,,,x,1,0.883859748254,2018_Nov_14_1236,59.9879748964,spanish_cond1,001,1015,
images/highlighter03b.jpg,coin,x,sounds/greatgatsby_english.wav,,,,,,,,,0,1,1,0,0,160,160,156,902.48055215,9.62207559496e-06,904.09760537,1.61706348381,,,,,x,1,1.60095463193,2018_Nov_14_1236,59.9879748964,spanish_cond1,001,1015,
images/ashtray02b.jpg,ashtray,z,sounds/greatgatsby_english.wav,,,,,,,,,0,1,1,0,0,161,161,43,905.210708915,9.62195917964e-06,906.064639074,0.853940422414,,,,,z,1,0.833861528314,2018_Nov_14_1236,59.9879748964,spanish_cond1,001,1015,
images/spoon02b.jpg,spoon,z,sounds/greatgatsby_english.wav,,,,,,,,,0,1,1,0,0,162,162,38,907.154850569,9.30135138333e-06,907.93182612,0.776985494187,,,,,z,1,0.767150835716,2018_Nov_14_1236,59.9879748964,spanish_cond1,001,1015,
images/hairband.jpg,hairband,z,sounds/greatgatsby_english.wav,,,,,,,,,0,1,1,0,0,163,163,66,909.040540103,9.62207559496e-06,909.94906171,0.908531870227,,,,,z,1,0.883837617585,2018_Nov_14_1236,59.9879748964,spanish_cond1,001,1015,
images/paperclip04.jpg,eye drops,x,sounds/greatgatsby_english.wav,,,,,,,,,0,1,1,0,0,164,164,174,911.054471814,9.62195917964e-06,911.782944406,0.728483176325,,,,,x,1,0.71713882417,2018_Nov_14_1236,59.9879748964,spanish_cond1,001,1015,
images/cocktailshrimp01.jpg,cocktail shrimp,z,sounds/greatgatsby_english.wav,,,,,,,,,0,1,1,0,0,165,165,30,912.897393429,9.62207559496e-06,913.916893719,1.01951055392,,,,,z,1,1.00055262423,2018_Nov_14_1236,59.9879748964,spanish_cond1,001,1015,
images/eyedrops.jpg,bicycle,x,sounds/greatgatsby_english.wav,,,,,,,,,0,1,1,0,0,166,166,131,915.016124568,9.62195917964e-06,915.984179809,0.96806614555,,,,,x,1,0.950554083567,2018_Nov_14_1236,59.9879748964,spanish_cond1,001,1015,
images/nailpolish02b.jpg,nail polish,z,sounds/greatgatsby_english.wav,,,,,,,,,0,1,1,0,0,167,167,94,917.092544512,9.62195917964e-06,917.868036349,0.775502100587,,,,,z,1,0.767145383172,2018_Nov_14_1236,59.9879748964,spanish_cond1,001,1015,
images/crocodile.jpg,triangle ruler,x,sounds/greatgatsby_english.wav,,,,,,,,,0,1,1,0,0,168,168,235,918.964167948,1.02635240182e-05,920.05201339,1.08785570576,,,,,x,1,1.06723829976,2018_Nov_14_1236,59.9879748964,spanish_cond1,001,1015,
images/bracelet02a.jpg,chess knight,x,sounds/greatgatsby_english.wav,,,,,,,,,0,1,1,0,0,169,169,152,921.16069562,9.62207559496e-06,922.1359632,0.975278164377,,,,,x,1,0.950550876209,2018_Nov_14_1236,59.9879748964,spanish_cond1,001,1015,
images/leek.jpg,donut,x,sounds/greatgatsby_english.wav,,,,,,,,,0,1,1,0,0,170,170,169,923.236135723,9.62207559496e-06,923.986487167,0.750361707527,,,,,x,1,0.733805431984,2018_Nov_14_1236,59.9879748964,spanish_cond1,001,1015,
images/magnifyingglass01b.jpg,magnifying glass,z,sounds/greatgatsby_english.wav,,,,,,,,,0,1,1,0,0,171,171,64,925.092553493,9.62207559496e-06,925.853691533,0.761148624471,,,,,z,1,0.750472360523,2018_Nov_14_1236,59.9879748964,spanish_cond1,001,1015,
images/tape01a.jpg,tie,x,sounds/greatgatsby_english.wav,,,,,,,,,0,1,1,0,0,172,172,232,926.977734664,9.30135138333e-06,928.371125817,1.39340173732,,,,,x,1,1.38401418156,2018_Nov_14_1236,59.9879748964,spanish_cond1,001,1015,
images/boxingglove02a.jpg,bracelet,x,sounds/greatgatsby_english.wav,,,,,,,,,0,1,1,0,0,173,173,135,929.481668624,8.65990296006e-06,930.355025946,0.873366944143,,,,,x,1,0.850523004425,2018_Nov_14_1236,59.9879748964,spanish_cond1,001,1015,
images/nametag01a.jpg,name tag,z,sounds/greatgatsby_english.wav,,,,,,,,,0,1,1,0,0,174,174,108,931.474915254,8.98051075637e-06,932.37226346,0.897357827518,,,,,z,1,0.883856220171,2018_Nov_14_1236,59.9879748964,spanish_cond1,001,1015,
images/showerhead01.jpg,skateboard,x,sounds/greatgatsby_english.wav,,,,,,,,,0,1,1,0,0,175,175,223,933.478384631,9.94268339127e-06,934.422847019,0.94447233039,,,,,x,1,0.933854440111,2018_Nov_14_1236,59.9879748964,spanish_cond1,001,1015,
images/hairdryer03a.jpg,hairdryer,z,sounds/greatgatsby_english.wav,,,,,,,,,0,1,1,0,0,176,176,119,935.520815459,9.30135138333e-06,936.756885432,1.23608087748,,,,,z,1,1.21729678544,2018_Nov_14_1236,59.9879748964,spanish_cond1,001,1015,
images/ladder.jpg,ladder,z,sounds/greatgatsby_english.wav,,,,,,,,,0,1,1,0,0,177,177,113,937.847910307,9.94268339127e-06,938.623911149,0.776012067217,,,,,z,1,0.766939792782,2018_Nov_14_1236,59.9879748964,spanish_cond1,001,1015,
images/bandaid01.jpg,door handle,x,sounds/greatgatsby_english.wav,,,,,,,,,0,1,1,0,0,178,178,170,939.730576926,9.30123496801e-06,940.607973248,0.877406264772,,,,,x,1,0.867168764584,2018_Nov_14_1236,59.9879748964,spanish_cond1,001,1015,
images/dryingmachine01.jpg,drying machine,z,sounds/greatgatsby_english.wav,,,,,,,,,0,1,1,0,0,179,179,18,941.728271171,9.62207559496e-06,942.458522553,0.730261645047,,,,,z,1,0.717140107066,2018_Nov_14_1236,59.9879748964,spanish_cond1,001,1015,
images/microphone01.jpg,diaper,x,sounds/greatgatsby_english.wav,,,,,,,,,0,1,1,0,0,180,180,164,943.556551933,9.30123496801e-06,944.342381339,0.785839669639,,,,,x,1,0.767136723269,2018_Nov_14_1236,59.9879748964,spanish_cond1,001,1015,
images/tie01.jpg,bench,x,sounds/greatgatsby_english.wav,,,,,,,,,0,1,1,0,0,181,181,130,945.439491175,9.62207559496e-06,946.809792707,1.37031243637,,,,,z,0,1.35065498634,2018_Nov_14_1236,59.9879748964,spanish_cond1,001,1015,
images/puma.jpg,puma,z,sounds/greatgatsby_english.wav,,,,,,,,,0,1,1,0,0,182,182,4,947.907594366,9.62207559496e-06,948.626999174,0.719415712985,,,,,z,1,0.700477027218,2018_Nov_14_1236,59.9879748964,spanish_cond1,001,1015,
images/parkfountain.jpg,park fountain,z,sounds/greatgatsby_english.wav,,,,,,,,,0,1,1,0,0,183,183,93,949.746981815,9.30135138333e-06,950.794271118,1.04730020778,,,,,z,1,1.03389321687,2018_Nov_14_1236,59.9879748964,spanish_cond1,001,1015,
images/fork01.jpg,cooking pot,x,sounds/greatgatsby_english.wav,,,,,,,,,0,1,1,0,0,184,184,160,951.88715657,9.62195917964e-06,952.778171247,0.891024619224,,,,,x,1,0.867165236617,2018_Nov_14_1236,59.9879748964,spanish_cond1,001,1015,
images/flipflop01b.jpg,flip flop,z,sounds/greatgatsby_english.wav,,,,,,,,,0,1,1,0,0,185,185,27,953.893781326,1.2187869288e-05,954.578689617,0.684917913051,,,,,z,1,0.667104040505,2018_Nov_14_1236,59.9879748964,spanish_cond1,001,1015,
images/raisin.jpg,ruler,x,sounds/greatgatsby_english.wav,,,,,,,,,0,1,1,0,0,186,186,218,955.682320932,9.30123496801e-06,956.445943055,0.763632707298,,,,,x,1,0.750506679178,2018_Nov_14_1236,59.9879748964,spanish_cond1,001,1015,
images/cookingpot.jpg,grasshopper,x,sounds/greatgatsby_english.wav,,,,,,,,,0,1,1,0,0,187,187,183,957.559139292,9.94268339127e-06,958.546594754,0.987466046354,,,,,x,1,0.967271688045,2018_Nov_14_1236,59.9879748964,spanish_cond1,001,1015,
images/sportshorts02.jpg,tape,x,sounds/greatgatsby_english.wav,,,,,,,,,0,1,1,0,0,188,188,230,959.653190932,9.62207559496e-06,960.830525256,1.17734458775,,,,,x,1,1.16726552998,2018_Nov_14_1236,59.9879748964,spanish_cond1,001,1015,
images/swan.jpg,swan,z,sounds/greatgatsby_english.wav,,,,,,,,,0,1,1,0,0,189,189,54,961.921203419,8.98051075637e-06,962.747727201,0.82653372467,,,,,z,1,0.817148734815,2018_Nov_14_1236,59.9879748964,spanish_cond1,001,1015,
images/headphones02b.jpg,headphones,z,sounds/greatgatsby_english.wav,,,,,,,,,0,1,1,0,0,190,190,101,963.854317605,9.30135138333e-06,964.631628965,0.777321623173,,,,,z,1,0.767145383055,2018_Nov_14_1236,59.9879748964,spanish_cond1,001,1015,
images/broom02.jpg,broom,z,sounds/greatgatsby_english.wav,,,,,,,,,0,1,1,0,0,191,191,116,965.724462458,1.02634076029e-05,966.698911205,0.974459331133,,,,,z,1,0.950538688339,2018_Nov_14_1236,59.9879748964,spanish_cond1,001,1015,
images/atm.jpg,atm,z,sounds/greatgatsby_english.wav,,,,,,,,,0,1,1,0,0,192,192,96,967.836861992,9.62207559496e-06,968.649445403,0.812593995128,,,,,z,1,0.800477636629,2018_Nov_14_1236,59.9879748964,spanish_cond1,001,1015,
images/highheelshoe02a.jpg,high heel shoe,z,sounds/greatgatsby_english.wav,,,,,,,,,0,1,1,0,0,193,193,75,969.755172072,9.94279980659e-06,970.950143544,1.19498141517,,,,,z,1,1.18390519626,2018_Nov_14_1236,59.9879748964,spanish_cond1,001,1015,
images/notebook02b.jpg,notebook,z,sounds/greatgatsby_english.wav,,,,,,,,,0,1,1,0,0,194,194,7,972.056176193,9.94268339127e-06,972.767347125,0.711181515711,,,,,z,1,0.700483762659,2018_Nov_14_1236,59.9879748964,spanish_cond1,001,1015,
images/50dollarbill.jpg,cherry,x,sounds/greatgatsby_english.wav,,,,,,,,,0,1,1,0,0,195,195,151,973.888223972,9.30135138333e-06,974.951276376,1.06306266726,,,,,x,1,1.05054827838,2018_Nov_14_1236,59.9879748964,spanish_cond1,001,1015,
images/apple06.jpg,apple,z,sounds/greatgatsby_english.wav,,,,,,,,,0,1,1,0,0,196,196,13,976.077696785,9.30135138333e-06,976.801845887,0.724159044214,,,,,z,1,0.700480234576,2018_Nov_14_1236,59.9879748964,spanish_cond1,001,1015,
images/envelope02a.jpg,grand piano,x,sounds/greatgatsby_english.wav,,,,,,,,,0,1,1,0,0,197,197,182,977.924007594,1.02635240182e-05,978.869101185,0.945104175946,,,,,x,1,0.933860213379,2018_Nov_14_1236,59.9879748964,spanish_cond1,001,1015,
images/sock03.jpg,sock,z,sounds/greatgatsby_english.wav,,,,,,,,,0,1,1,0,0,198,198,90,979.973508997,9.62207559496e-06,980.669624046,0.69612531201,,,,,z,1,0.683667051489,2018_Nov_14_1236,59.9879748964,spanish_cond1,001,1015,
images/cockroach02.jpg,belt,x,sounds/greatgatsby_english.wav,,,,,,,,,0,1,1,0,0,199,199,129,981.767652463,9.30123496801e-06,982.486841097,0.719199217623,,,,,x,1,0.700475744321,2018_Nov_14_1236,59.9879748964,spanish_cond1,001,1015,
images/dreamcatcher.jpg,dream catcher,z,sounds/greatgatsby_english.wav,,,,,,,,,0,1,1,0,0,200,200,48,983.585932426,9.94279980659e-06,984.37068545,0.784763608011,,,,,z,1,0.767129346379,2018_Nov_14_1236,59.9879748964,spanish_cond1,001,1015,
images/lip.jpg,boxing glove,x,sounds/greatgatsby_english.wav,,,,,,,,,0,1,1,0,0,201,201,136,985.472536372,9.30123496801e-06,986.271077739,0.798551630578,,,,,x,1,0.783640398527,2018_Nov_14_1236,59.9879748964,spanish_cond1,001,1015,
images/bat.jpg,hand,x,sounds/greatgatsby_english.wav,,,,,,,,,0,1,1,0,0,202,202,185,987.368233761,1.02635240182e-05,988.305167566,0.936944709742,,,,,x,1,0.917176285875,2018_Nov_14_1236,59.9879748964,spanish_cond1,001,1015,
