images,name,corrAns,sounds,trials_3.thisRepN,trials_3.thisTrialN,trials_3.thisN,trials_3.thisIndex,trials_4.thisRepN,trials_4.thisTrialN,trials_4.thisN,trials_4.thisIndex,trials_2.thisRepN,trials_2.thisTrialN,trials_2.thisN,trials_2.thisIndex,trials.thisRepN,trials.thisTrialN,trials.thisN,trials.thisIndex,begin_global,begin_routine,end_global,end_routine,key_resp_2.keys,key_resp_2.corr,key_resp_2.rt,begin_book,key_resp_1.keys,key_resp_1.corr,key_resp_1.rt,date,frameRate,expName,session,participant,
images/volleyball.jpg,volley ball,z,,0,0,0,0,,,,,,,,,,,,,,,,,,,,,,,,2018_Nov_14_1402,59.9879751962,chinese_cond1,001,1021,
images/puma.jpg,puma,z,,,,,,0,0,0,0,,,,,,,,,48.1603125023,1.05839480966e-05,49.6253182802,1.46501668255,z,1,1.4506677349,,,,,2018_Nov_14_1402,59.9879751962,chinese_cond1,001,1021,
images/cheetah.jpg,cheetah,z,sounds/animalfarm_chinese.wav,,,,,,,,,0,0,0,1,0,0,0,82,91.7917297026,9.62177091424e-06,92.8867818991,1.09506278045,,,,81.6221751682,z,1,1.08385502043,2018_Nov_14_1402,59.9879751962,chinese_cond1,001,1021,
images/snowman.jpg,globe,x,sounds/animalfarm_chinese.wav,,,,,,,,,0,0,0,1,0,1,1,180,94.0074466096,9.62177182373e-06,95.2207510177,1.2133149921,,,,,x,1,1.200589558,2018_Nov_14_1402,59.9879751962,chinese_cond1,001,1021,
images/croissant02b.jpg,croissant,z,sounds/animalfarm_chinese.wav,,,,,,,,,0,0,0,1,0,2,2,39,96.3397040151,9.30104579311e-06,97.5213675488,1.18167347621,,,,,z,1,1.16725044092,2018_Nov_14_1402,59.9879751962,chinese_cond1,001,1021,
images/table02.jpg,table,z,sounds/animalfarm_chinese.wav,,,,,,,,,0,0,0,1,0,3,3,49,98.6480644684,1.05839480966e-05,99.5052055387,0.857151333465,,,,,z,1,0.833677097843,2018_Nov_14_1402,59.9879751962,chinese_cond1,001,1021,
images/floorlamp.jpg,floor lamp,z,sounds/animalfarm_chinese.wav,,,,,,,,,0,0,0,1,0,4,4,26,100.607901912,9.30104579311e-06,101.639105316,1.03121366779,,,,,z,1,1.01717614481,2018_Nov_14_1402,59.9879751962,chinese_cond1,001,1021,
images/pictureframe04.jpg,picture frame,z,sounds/animalfarm_chinese.wav,,,,,,,,,0,0,0,1,0,5,5,41,102.770734997,8.98031976249e-06,103.856365235,1.08563985902,,,,,z,1,1.06720550725,2018_Nov_14_1402,59.9879751962,chinese_cond1,001,1021,
images/battery03b.jpg,battery,z,sounds/animalfarm_chinese.wav,,,,,,,,,0,0,0,1,0,6,6,34,104.97685515,9.30104488361e-06,105.873564472,0.896721509694,,,,,z,1,0.883817431379,2018_Nov_14_1402,59.9879751962,chinese_cond1,001,1021,
images/notebook02b.jpg,notebook,z,sounds/animalfarm_chinese.wav,,,,,,,,,0,0,0,1,0,7,7,7,106.987818517,8.98031976249e-06,107.640691626,0.652883372264,,,,,z,1,0.633747272628,2018_Nov_14_1402,59.9879751962,chinese_cond1,001,1021,
images/squirrel.jpg,binder,x,sounds/animalfarm_chinese.wav,,,,,,,,,0,0,0,1,0,8,8,132,108.750949108,9.30104579311e-06,109.607889404,0.856950238443,,,,,x,1,0.833805067403,2018_Nov_14_1402,59.9879751962,chinese_cond1,001,1021,
images/showerhead01.jpg,skateboard,x,sounds/animalfarm_chinese.wav,,,,,,,,,0,0,0,1,0,9,9,223,110.723685177,9.30104579311e-06,111.591747278,0.868072043976,,,,,x,1,0.850471258325,2018_Nov_14_1402,59.9879751962,chinese_cond1,001,1021,
images/belt02a.jpg,snowman,x,sounds/animalfarm_chinese.wav,,,,,,,,,0,0,0,1,0,10,10,224,112.703715511,8.98031976249e-06,114.059084411,1.35537916354,,,,,x,1,1.33395212014,2018_Nov_14_1402,59.9879751962,chinese_cond1,001,1021,
images/key03b.jpg,cigar,x,sounds/animalfarm_chinese.wav,,,,,,,,,0,0,0,1,0,11,11,153,115.1688762,9.62177182373e-06,117.326600766,2.1577341883,,,,,x,1,2.13414032199,2018_Nov_14_1402,59.9879751962,chinese_cond1,001,1021,
images/blueberry02.jpg,blueberry,z,sounds/animalfarm_chinese.wav,,,,,,,,,0,0,0,1,0,12,12,46,118.532888979,1.02632229755e-05,119.777254068,1.24437567372,,,,,z,1,1.2339087901,2018_Nov_14_1402,59.9879751962,chinese_cond1,001,1021,
images/grandpiano.jpg,tulip,x,sounds/animalfarm_chinese.wav,,,,,,,,,0,0,0,1,0,13,13,236,120.902278083,8.98031976249e-06,122.444632639,1.54236481972,,,,,x,1,1.53399997242,2018_Nov_14_1402,59.9879751962,chinese_cond1,001,1021,
images/nametag01a.jpg,name tag,z,sounds/animalfarm_chinese.wav,,,,,,,,,0,0,0,1,0,14,14,108,123.577428158,9.62177182373e-06,126.01225525,2.43483671373,,,,,z,1,2.41756723774,2018_Nov_14_1402,59.9879751962,chinese_cond1,001,1021,
images/flipflop01b.jpg,flip flop,z,sounds/animalfarm_chinese.wav,,,,,,,,,0,0,0,1,0,15,15,27,127.136619211,8.98031976249e-06,127.879396227,0.742786958907,,,,,z,1,0.733767510422,2018_Nov_14_1402,59.9879751962,chinese_cond1,001,1021,
images/pineapple01a.jpg,pineapple,z,sounds/animalfarm_chinese.wav,,,,,,,,,0,0,0,1,0,16,16,51,128.998777394,9.30104579311e-06,129.62987034,0.63110288913,,,,,z,1,0.617077553722,2018_Nov_14_1402,59.9879751962,chinese_cond1,001,1021,
images/cactus.jpg,cactus,z,sounds/animalfarm_chinese.wav,,,,,,,,,0,0,0,1,0,17,17,70,130.748703707,8.65959373186e-06,131.813817441,1.06512367665,,,,,z,1,1.05055374898,2018_Nov_14_1402,59.9879751962,chinese_cond1,001,1021,
images/nailpolish02b.jpg,nail polish,z,sounds/animalfarm_chinese.wav,,,,,,,,,0,0,0,1,0,18,18,94,132.930216179,9.30104579311e-06,134.01436755,1.08416099276,,,,,z,1,1.06720069636,2018_Nov_14_1402,59.9879751962,chinese_cond1,001,1021,
images/ear.jpg,bullet,x,sounds/animalfarm_chinese.wav,,,,,,,,,0,0,0,1,0,19,19,139,135.123902757,8.98031976249e-06,136.048241958,0.92434946402,,,,,x,1,0.900482018673,2018_Nov_14_1402,59.9879751962,chinese_cond1,001,1021,
images/ashtray02b.jpg,ashtray,z,sounds/animalfarm_chinese.wav,,,,,,,,,0,0,0,1,0,20,20,43,137.171782295,9.30104579311e-06,138.265493858,1.09372086407,,,,,z,1,1.08385822769,2018_Nov_14_1402,59.9879751962,chinese_cond1,001,1021,
images/coffeepot03b.jpg,coffee pot,z,sounds/animalfarm_chinese.wav,,,,,,,,,0,0,0,1,0,21,21,107,139.394492306,9.62177091424e-06,142.383097563,2.98861552011,,,,,None,0,,2018_Nov_14_1402,59.9879751962,chinese_cond1,001,1021,
images/toothbrush03a.jpg,parrot,x,sounds/animalfarm_chinese.wav,,,,,,,,,0,0,0,1,0,22,22,210,143.484481847,9.30104488361e-06,144.533829346,1.0493577628,,,,,x,1,1.03385580621,2018_Nov_14_1402,59.9879751962,chinese_cond1,001,1021,
images/diaper01a.jpg,camera,x,sounds/animalfarm_chinese.wav,,,,,,,,,0,0,0,1,0,23,23,143,145.661785114,9.30104579311e-06,146.901123791,1.23934893963,,,,,x,1,1.21724067482,2018_Nov_14_1402,59.9879751962,chinese_cond1,001,1021,
images/bracelet02a.jpg,chess knight,x,sounds/animalfarm_chinese.wav,,,,,,,,,0,0,0,1,0,24,24,152,148.018769189,8.98031976249e-06,149.3017519,1.28299297386,,,,,x,1,1.26723860614,2018_Nov_14_1402,59.9879751962,chinese_cond1,001,1021,
images/lychee02a.jpg,lychee,z,sounds/animalfarm_chinese.wav,,,,,,,,,0,0,0,1,0,25,25,62,150.435026583,9.62177091424e-06,151.385644766,0.950627804546,,,,,z,1,0.933821777212,2018_Nov_14_1402,59.9879751962,chinese_cond1,001,1021,
images/plant01.jpg,plant,z,sounds/animalfarm_chinese.wav,,,,,,,,,0,0,0,1,0,26,26,47,152.49702126,9.62177091424e-06,153.802951575,1.30594025714,,,,,z,1,1.28391858827,2018_Nov_14_1402,59.9879751962,chinese_cond1,001,1021,
images/bench02.jpg,electric toothbrush,x,sounds/animalfarm_chinese.wav,,,,,,,,,0,0,0,1,0,27,27,172,154.913878411,8.98032067198e-06,157.503769329,2.58990053975,,,,,x,1,2.56743145851,2018_Nov_14_1402,59.9879751962,chinese_cond1,001,1021,
images/cookingpot.jpg,grasshopper,x,sounds/animalfarm_chinese.wav,,,,,,,,,0,0,0,1,0,28,28,183,158.620058378,8.98031976249e-06,159.53782174,0.917773304011,,,,,x,1,0.900492281897,2018_Nov_14_1402,59.9879751962,chinese_cond1,001,1021,
images/hand01a.jpg,cupcake,x,sounds/animalfarm_chinese.wav,,,,,,,,,0,0,0,1,0,29,29,163,160.647592681,9.30104579311e-06,161.354970559,0.707387820569,,,,,z,0,0.683770220553,2018_Nov_14_1402,59.9879751962,chinese_cond1,001,1021,
images/dice05a.jpg,band aid,x,sounds/animalfarm_chinese.wav,,,,,,,,,0,0,0,1,0,30,30,126,162.466358599,8.98031976249e-06,163.688923321,1.22257498487,,,,,x,1,1.20057737043,2018_Nov_14_1402,59.9879751962,chinese_cond1,001,1021,
images/mirror02.jpg,8 ball,x,sounds/animalfarm_chinese.wav,,,,,,,,,0,0,0,1,0,31,31,121,164.79024346,9.30104579311e-06,166.089560731,1.29932657222,,,,,x,1,1.2839327002,2018_Nov_14_1402,59.9879751962,chinese_cond1,001,1021,
images/bicycle.jpg,hand bag,x,sounds/animalfarm_chinese.wav,,,,,,,,,0,0,0,1,0,32,32,186,167.198852187,9.30104579311e-06,168.740274073,1.5414315079,,,,,x,1,1.51732993279,2018_Nov_14_1402,59.9879751962,chinese_cond1,001,1021,
images/nailclipper03a.jpg,aquarium,x,sounds/animalfarm_chinese.wav,,,,,,,,,0,0,0,1,0,33,33,123,169.837715676,9.94249694486e-06,170.624093429,0.786388336617,,,,,x,1,0.767120418714,2018_Nov_14_1402,59.9879751962,chinese_cond1,001,1021,
images/peach01.jpg,peach,z,sounds/animalfarm_chinese.wav,,,,,,,,,0,0,0,1,0,34,34,106,171.752890781,8.98031976249e-06,173.258129354,1.50524915737,,,,,z,1,1.48398440118,2018_Nov_14_1402,59.9879751962,chinese_cond1,001,1021,
images/plate01b.jpg,plate,z,sounds/animalfarm_chinese.wav,,,,,,,,,0,0,0,1,0,35,35,3,174.357332062,9.30104579311e-06,175.225326811,0.868005012302,,,,,z,1,0.850490822594,2018_Nov_14_1402,59.9879751962,chinese_cond1,001,1021,
images/button07.jpg,radish,x,sounds/animalfarm_chinese.wav,,,,,,,,,0,0,0,1,0,36,36,215,176.339925637,9.62177182373e-06,177.409246651,1.06933063582,,,,,x,1,1.05051846915,2018_Nov_14_1402,59.9879751962,chinese_cond1,001,1021,
images/parkingmeter.jpg,ear,x,sounds/animalfarm_chinese.wav,,,,,,,,,0,0,0,1,0,37,37,171,178.513820231,9.30104579311e-06,179.793194136,1.27938416815,,,,,x,1,1.26725464242,2018_Nov_14_1402,59.9879751962,chinese_cond1,001,1021,
images/volleyball.jpg,volley ball,z,sounds/animalfarm_chinese.wav,,,,,,,,,0,0,0,1,0,38,38,2,180.928451225,9.30104579311e-06,181.827065979,0.898624375347,,,,,z,1,0.88380460235,2018_Nov_14_1402,59.9879751962,chinese_cond1,001,1021,
images/straw.jpg,straw,z,sounds/animalfarm_chinese.wav,,,,,,,,,0,0,0,1,0,39,39,109,182.917685425,8.98031976249e-06,183.894274373,0.976599531291,,,,,z,1,0.967172440424,2018_Nov_14_1402,59.9879751962,chinese_cond1,001,1021,
images/crocodile.jpg,triangle ruler,x,sounds/animalfarm_chinese.wav,,,,,,,,,0,0,0,1,0,40,40,235,184.990741611,9.62177182373e-06,187.978543771,2.98781242293,,,,,None,0,,2018_Nov_14_1402,59.9879751962,chinese_cond1,001,1021,
images/hammer02a.jpg,flower,x,sounds/animalfarm_chinese.wav,,,,,,,,,0,0,0,1,0,41,41,176,189.072418262,8.65959464136e-06,190.095924891,1.02351625069,,,,,x,1,1.00051059533,2018_Nov_14_1402,59.9879751962,chinese_cond1,001,1021,
images/lightbulb03b.jpg,treadmill,x,sounds/animalfarm_chinese.wav,,,,,,,,,0,0,0,1,0,42,42,234,191.196667403,9.30104579311e-06,192.246511707,1.04985456693,,,,,x,1,1.03386414508,2018_Nov_14_1402,59.9879751962,chinese_cond1,001,1021,
images/hanger02a.jpg,hanger,z,sounds/animalfarm_chinese.wav,,,,,,,,,0,0,0,1,0,43,43,88,193.338254335,9.30104579311e-06,194.080310039,0.742065967506,,,,,z,1,0.733768151873,2018_Nov_14_1402,59.9879751962,chinese_cond1,001,1021,
images/calculator02b.jpg,dice,x,sounds/animalfarm_chinese.wav,,,,,,,,,0,0,0,1,0,44,44,165,195.183675767,8.65959373186e-06,196.497814094,1.31414762812,,,,,x,1,1.30078427058,2018_Nov_14_1402,59.9879751962,chinese_cond1,001,1021,
images/orange.jpg,bat,x,sounds/animalfarm_chinese.wav,,,,,,,,,0,0,0,1,0,45,45,128,197.620238947,9.62177091424e-06,200.615226004,2.99499732034,,,,,None,0,,2018_Nov_14_1402,59.9879751962,chinese_cond1,001,1021,
images/dolphin01.jpg,dolphin,z,sounds/animalfarm_chinese.wav,,,,,,,,,0,0,0,1,0,46,46,99,201.713847878,9.30104579311e-06,202.515898213,0.802059957106,,,,,z,1,0.783791099798,2018_Nov_14_1402,59.9879751962,chinese_cond1,001,1021,
images/headphones02b.jpg,headphones,z,sounds/animalfarm_chinese.wav,,,,,,,,,0,0,0,1,0,47,47,101,203.623547233,1.02632229755e-05,204.533093281,0.909556311257,,,,,z,1,0.900457322794,2018_Nov_14_1402,59.9879751962,chinese_cond1,001,1021,
images/computermouse02a.jpg,world map,x,sounds/animalfarm_chinese.wav,,,,,,,,,0,0,0,1,0,48,48,239,205.633643037,9.30104579311e-06,206.68367272,1.05003930494,,,,,x,1,1.03385805129,2018_Nov_14_1402,59.9879751962,chinese_cond1,001,1021,
images/coin01b.jpg,arrow,x,sounds/animalfarm_chinese.wav,,,,,,,,,0,0,0,1,0,49,49,124,207.784898245,8.98032067198e-06,208.717604538,0.93273579995,,,,,x,1,0.917177074911,2018_Nov_14_1402,59.9879751962,chinese_cond1,001,1021,
images/lamp04b.jpg,parking meter,x,sounds/animalfarm_chinese.wav,,,,,,,,,0,0,0,1,0,50,50,209,209.837010079,9.62177091424e-06,211.051512719,1.21451322336,,,,,x,1,1.20058859583,2018_Nov_14_1402,59.9879751962,chinese_cond1,001,1021,
images/aloe02.jpg,broad sword,x,sounds/animalfarm_chinese.wav,,,,,,,,,0,0,0,1,0,51,51,137,212.171039174,9.30104579311e-06,213.03535552,0.86432628838,,,,,x,1,0.850487294611,2018_Nov_14_1402,59.9879751962,chinese_cond1,001,1021,
images/ant.jpg,ant,z,sounds/animalfarm_chinese.wav,,,,,,,,,0,0,0,1,0,52,52,98,214.128237045,8.98031976249e-06,215.219275038,1.09104761526,,,,,z,1,1.06721063886,2018_Nov_14_1402,59.9879751962,chinese_cond1,001,1021,
images/ladder.jpg,ladder,z,sounds/animalfarm_chinese.wav,,,,,,,,,0,0,0,1,0,53,53,113,216.30981751,9.30104579311e-06,217.019752214,0.709944966675,,,,,z,1,0.70044442962,2018_Nov_14_1402,59.9879751962,chinese_cond1,001,1021,
images/bullet (2).jpg,rubber glove,x,sounds/animalfarm_chinese.wav,,,,,,,,,0,0,0,1,0,54,54,217,218.122943146,9.30104488361e-06,218.970260067,0.847326542715,,,,,x,1,0.833804105225,2018_Nov_14_1402,59.9879751962,chinese_cond1,001,1021,
images/djmixer01.jpg,light bulb,x,sounds/animalfarm_chinese.wav,,,,,,,,,0,0,0,1,0,55,55,196,220.089498831,8.98032067198e-06,221.904366969,1.81487776021,,,,,x,1,1.8007202858,2018_Nov_14_1402,59.9879751962,chinese_cond1,001,1021,
images/desktopcomputer.jpg,desktop computer,z,sounds/animalfarm_chinese.wav,,,,,,,,,0,0,0,1,0,56,56,16,223.039072731,9.30104579311e-06,223.904904506,0.865841717371,,,,,z,1,0.850475748485,2018_Nov_14_1402,59.9879751962,chinese_cond1,001,1021,
images/puma.jpg,puma,z,sounds/animalfarm_chinese.wav,,,,,,,,,0,0,0,1,0,57,57,4,225.001870472,9.30104579311e-06,225.788567989,0.786707779426,,,,,z,1,0.766949151183,2018_Nov_14_1402,59.9879751962,chinese_cond1,001,1021,
images/handfan01b.jpg,handfan,z,sounds/animalfarm_chinese.wav,,,,,,,,,0,0,0,1,0,58,58,69,226.901420141,8.98031976249e-06,227.822611419,0.921200899699,,,,,z,1,0.900485867382,2018_Nov_14_1402,59.9879751962,chinese_cond1,001,1021,
images/lip.jpg,boxing glove,x,sounds/animalfarm_chinese.wav,,,,,,,,,0,0,0,1,0,59,59,136,228.923729501,8.98031976249e-06,229.789808556,0.866089317621,,,,,x,1,0.850485370257,2018_Nov_14_1402,59.9879751962,chinese_cond1,001,1021,
images/mailbox01.jpg,mail box,z,sounds/animalfarm_chinese.wav,,,,,,,,,0,0,0,1,0,60,60,73,230.908379248,9.30104488361e-06,232.673899566,1.76552929845,,,,,x,0,1.75070856328,2018_Nov_14_1402,59.9879751962,chinese_cond1,001,1021,
images/globe.jpg,cloud,x,sounds/animalfarm_chinese.wav,,,,,,,,,0,0,0,1,0,61,61,154,233.79987806,9.30104579311e-06,234.641092854,0.841226660389,,,,,x,1,0.817132461965,2018_Nov_14_1402,59.9879751962,chinese_cond1,001,1021,
images/parkbench03.jpg,park bench,z,sounds/animalfarm_chinese.wav,,,,,,,,,0,0,0,1,0,62,62,71,235.745556425,9.30104579311e-06,237.291800743,1.54625426044,,,,,z,1,1.53398746411,2018_Nov_14_1402,59.9879751962,chinese_cond1,001,1021,
images/lily.jpg,kiwi,x,sounds/animalfarm_chinese.wav,,,,,,,,,0,0,0,1,0,63,63,190,238.389573977,9.62177091424e-06,240.47597139,2.08640703493,,,,,x,1,2.06746176709,2018_Nov_14_1402,59.9879751962,chinese_cond1,001,1021,
images/diploma01.jpg,glasses,x,sounds/animalfarm_chinese.wav,,,,,,,,,0,0,0,1,0,64,64,179,241.607266233,9.62177091424e-06,242.959963168,1.35270655618,,,,,x,1,1.3339203683,2018_Nov_14_1402,59.9879751962,chinese_cond1,001,1021,
images/masquerademask02b.jpg,mirror,x,sounds/animalfarm_chinese.wav,,,,,,,,,0,0,0,1,0,65,65,204,244.063154421,9.30104488361e-06,245.01050954,0.947364741147,,,,,x,1,0.933829153903,2018_Nov_14_1402,59.9879751962,chinese_cond1,001,1021,
images/lock02a.jpg,lock,z,sounds/animalfarm_chinese.wav,,,,,,,,,0,0,0,1,0,66,66,65,246.119249027,9.62177091424e-06,248.478096839,2.35885807534,,,,,z,1,2.3508707222,2018_Nov_14_1402,59.9879751962,chinese_cond1,001,1021,
images/electricguitar02.jpg,electric guitar,z,sounds/animalfarm_chinese.wav,,,,,,,,,0,0,0,1,0,67,67,100,249.577855686,9.62177091424e-06,251.59561523,2.0177698081,,,,,z,1,2.00079347541,2018_Nov_14_1402,59.9879751962,chinese_cond1,001,1021,
images/razor04a.jpg,razor,z,sounds/animalfarm_chinese.wav,,,,,,,,,0,0,0,1,0,68,68,36,252.695170416,9.30104579311e-06,253.479425285,0.784264811675,,,,,z,1,0.767115928555,2018_Nov_14_1402,59.9879751962,chinese_cond1,001,1021,
images/cat.jpg,black olive,x,sounds/animalfarm_chinese.wav,,,,,,,,,0,0,0,1,0,69,69,133,254.608804755,9.30104579311e-06,255.496625484,0.887830030768,,,,,x,1,0.867138411426,2018_Nov_14_1402,59.9879751962,chinese_cond1,001,1021,
images/leek.jpg,donut,x,sounds/animalfarm_chinese.wav,,,,,,,,,0,0,0,1,0,70,70,169,256.596316658,9.30104579311e-06,257.697211835,1.10090447858,,,,,x,1,1.08386432148,2018_Nov_14_1402,59.9879751962,chinese_cond1,001,1021,
images/parkfountain.jpg,park fountain,z,sounds/animalfarm_chinese.wav,,,,,,,,,0,0,0,1,0,71,71,93,258.815818449,9.62177182373e-06,260.798028756,1.98222057013,,,,,z,1,1.96742837954,2018_Nov_14_1402,59.9879751962,chinese_cond1,001,1021,
images/apricot.jpg,apricot,z,sounds/animalfarm_chinese.wav,,,,,,,,,0,0,0,1,0,72,72,32,261.912814564,9.30104579311e-06,263.098649456,1.18584483482,,,,,z,1,1.16722702794,2018_Nov_14_1402,59.9879751962,chinese_cond1,001,1021,
images/kiwi03.jpg,backpack,x,sounds/animalfarm_chinese.wav,,,,,,,,,0,0,0,1,0,73,73,125,264.22734161,1.02632229755e-05,265.032492401,0.80516105402,,,,,x,1,0.783786930363,2018_Nov_14_1402,59.9879751962,chinese_cond1,001,1021,
images/lollipop03b.jpg,lollipop,z,sounds/animalfarm_chinese.wav,,,,,,,,,0,0,0,1,0,74,74,42,266.123871647,9.30104579311e-06,267.199738673,1.07587760979,,,,,z,1,1.06720165854,2018_Nov_14_1402,59.9879751962,chinese_cond1,001,1021,
images/gamecontroller01.jpg,game controller,z,sounds/animalfarm_chinese.wav,,,,,,,,,0,0,0,1,0,75,75,112,268.317476761,9.30104579311e-06,269.533688868,1.21622204996,,,,,z,1,1.20057159736,2018_Nov_14_1402,59.9879751962,chinese_cond1,001,1021,
images/gps.jpg,gps,z,sounds/animalfarm_chinese.wav,,,,,,,,,0,0,0,1,0,76,76,21,270.650639575,8.65959373186e-06,271.934564578,1.28394071834,,,,,z,1,1.2674576618,2018_Nov_14_1402,59.9879751962,chinese_cond1,001,1021,
images/bed.jpg,bed,z,sounds/animalfarm_chinese.wav,,,,,,,,,0,0,0,1,0,77,77,103,273.053687239,9.30104579311e-06,274.001540446,0.947862507453,,,,,z,1,0.933829153903,2018_Nov_14_1402,59.9879751962,chinese_cond1,001,1021,
images/toucan.jpg,toucan,z,sounds/animalfarm_chinese.wav,,,,,,,,,0,0,0,1,0,78,78,81,275.101902256,9.62177091424e-06,276.418867139,1.316975146,,,,,z,1,1.30060690927,2018_Nov_14_1402,59.9879751962,chinese_cond1,001,1021,
images/pen03c.jpg,pepper,x,sounds/animalfarm_chinese.wav,,,,,,,,,0,0,0,1,0,79,79,211,277.511452313,9.30104579311e-06,278.536078916,1.02463686633,,,,,x,1,1.0005163684,2018_Nov_14_1402,59.9879751962,chinese_cond1,001,1021,
images/sunglasses03a.jpg,sun glasses,z,sounds/animalfarm_chinese.wav,,,,,,,,,0,0,0,1,0,80,80,17,279.642562419,9.62177091424e-06,281.503538406,1.86098689226,,,,,z,1,1.85074900679,2018_Nov_14_1402,59.9879751962,chinese_cond1,001,1021,
images/icecube02 (2).jpg,aloe,x,sounds/animalfarm_chinese.wav,,,,,,,,,0,0,0,1,0,81,81,122,282.612702534,9.62177091424e-06,283.904175175,1.29148258347,,,,,x,1,1.26725592533,2018_Nov_14_1402,59.9879751962,chinese_cond1,001,1021,
images/eyedrops.jpg,bicycle,x,sounds/animalfarm_chinese.wav,,,,,,,,,0,0,0,1,0,82,82,131,285.002843233,9.62177091424e-06,286.388160539,1.3853275684,,,,,x,1,1.36727359731,2018_Nov_14_1402,59.9879751962,chinese_cond1,001,1021,
images/sportshorts02.jpg,tape,x,sounds/animalfarm_chinese.wav,,,,,,,,,0,0,0,1,0,83,83,230,287.494127673,8.98031976249e-06,288.521895143,1.02777709178,,,,,x,1,1.01700006639,2018_Nov_14_1402,59.9879751962,chinese_cond1,001,1021,
images/lightswitch02a.jpg,fork,x,sounds/animalfarm_chinese.wav,,,,,,,,,0,0,0,1,0,84,84,177,289.632531722,9.62177182373e-06,290.522608116,0.890086977606,,,,,x,1,0.867160220774,2018_Nov_14_1402,59.9879751962,chinese_cond1,001,1021,
images/elbow.jpg,elbow,z,sounds/animalfarm_chinese.wav,,,,,,,,,0,0,0,1,0,85,85,105,291.632599075,9.30104579311e-06,292.823214704,1.19062589302,,,,,z,1,1.16723472536,2018_Nov_14_1402,59.9879751962,chinese_cond1,001,1021,
images/seagull.jpg,seagull,z,sounds/animalfarm_chinese.wav,,,,,,,,,0,0,0,1,0,86,86,50,293.928941615,9.30104579311e-06,295.673964673,1.74503300107,,,,,z,1,1.73404141018,2018_Nov_14_1402,59.9879751962,chinese_cond1,001,1021,
images/rubberglove02a.jpg,lady bug,x,sounds/animalfarm_chinese.wav,,,,,,,,,0,0,0,1,0,87,87,192,296.777107176,9.30104579311e-06,299.541665638,2.76456776277,,,,,x,1,2.75098342522,2018_Nov_14_1402,59.9879751962,chinese_cond1,001,1021,
images/skateboard.jpg,key,x,sounds/animalfarm_chinese.wav,,,,,,,,,0,0,0,1,0,88,88,189,300.630939319,9.30104579311e-06,301.525521909,0.89459285314,,,,,x,1,0.883820638635,2018_Nov_14_1402,59.9879751962,chinese_cond1,001,1021,
images/candle08a.jpg,screw driver,x,sounds/animalfarm_chinese.wav,,,,,,,,,0,0,0,1,0,89,89,221,302.636977622,9.30104579311e-06,303.659423932,1.02245625221,,,,,x,1,1.00051540622,2018_Nov_14_1402,59.9879751962,chinese_cond1,001,1021,
images/cockroach02.jpg,belt,x,sounds/animalfarm_chinese.wav,,,,,,,,,0,0,0,1,0,90,90,129,304.757077214,9.30104488361e-06,306.160083504,1.40301655362,,,,,x,1,1.38395005146,2018_Nov_14_1402,59.9879751962,chinese_cond1,001,1021,
images/dryingmachine01.jpg,drying machine,z,sounds/animalfarm_chinese.wav,,,,,,,,,0,0,0,1,0,91,91,18,307.279483914,8.98031976249e-06,308.42735739,1.14788341877,,,,,z,1,1.13388117561,2018_Nov_14_1402,59.9879751962,chinese_cond1,001,1021,
images/butterfly.jpg,butterfly,z,sounds/animalfarm_chinese.wav,,,,,,,,,0,0,0,1,0,92,92,91,309.533772578,9.30104579311e-06,311.411501032,1.87773839622,,,,,z,1,1.86742449876,2018_Nov_14_1402,59.9879751962,chinese_cond1,001,1021,
images/lighter02b.jpg,stapler,x,sounds/animalfarm_chinese.wav,,,,,,,,,0,0,0,1,0,93,93,227,312.51183975,9.30104579311e-06,315.512436621,3.0006074545,,,,,None,0,,2018_Nov_14_1402,59.9879751962,chinese_cond1,001,1021,
images/lipstick04.jpg,lipstick,z,sounds/animalfarm_chinese.wav,,,,,,,,,0,0,0,1,0,94,94,56,316.612143189,8.98031976249e-06,317.779842004,1.16770747506,,,,,z,1,1.15055730903,2018_Nov_14_1402,59.9879751962,chinese_cond1,001,1021,
images/magnifyingglass01b.jpg,magnifying glass,z,sounds/animalfarm_chinese.wav,,,,,,,,,0,0,0,1,0,95,95,64,318.886016327,9.30104579311e-06,320.280499011,1.39449230563,,,,,z,1,1.38395710743,2018_Nov_14_1402,59.9879751962,chinese_cond1,001,1021,
images/drink.jpg,drink,z,sounds/animalfarm_chinese.wav,,,,,,,,,0,0,0,1,0,96,96,117,321.378903432,9.94249694486e-06,322.181005725,0.802112235398,,,,,z,1,0.783791741249,2018_Nov_14_1402,59.9879751962,chinese_cond1,001,1021,
images/bat.jpg,hand,x,sounds/animalfarm_chinese.wav,,,,,,,,,0,0,0,1,0,97,97,185,323.277495735,9.30104579311e-06,324.698360995,1.42087520274,,,,,x,1,1.4006451077,2018_Nov_14_1402,59.9879751962,chinese_cond1,001,1021,
images/graduationcap.jpg,graduation cap,z,sounds/animalfarm_chinese.wav,,,,,,,,,0,0,0,1,0,98,98,35,325.799550278,9.62177091424e-06,326.815575018,1.01603500272,,,,,z,1,1.00051091606,2018_Nov_14_1402,59.9879751962,chinese_cond1,001,1021,
images/raisin.jpg,ruler,x,sounds/animalfarm_chinese.wav,,,,,,,,,0,0,0,1,0,99,99,218,327.919377574,9.30104579311e-06,329.199530842,1.28016289017,,,,,x,1,1.26724758646,2018_Nov_14_1402,59.9879751962,chinese_cond1,001,1021,
images/daisy.jpg,daisy,z,sounds/animalfarm_chinese.wav,,,,,,,,,0,0,0,1,0,100,100,6,330.300621983,9.94249694486e-06,331.166731827,0.866119786563,,,,,z,1,0.85048665316,2018_Nov_14_1402,59.9879751962,chinese_cond1,001,1021,
images/cauliflower01.jpg,glue stick,x,sounds/animalfarm_chinese.wav,,,,,,,,,0,0,0,1,0,101,101,181,332.281030133,9.94249694486e-06,333.10057798,0.819558110527,,,,,x,1,0.800470761201,2018_Nov_14_1402,59.9879751962,chinese_cond1,001,1021,
images/lemon02.jpg,lemon,z,sounds/animalfarm_chinese.wav,,,,,,,,,0,0,0,1,0,102,102,14,334.211339001,9.94249694486e-06,334.884376777,0.673048359986,,,,,z,1,0.650421481695,2018_Nov_14_1402,59.9879751962,chinese_cond1,001,1021,
images/dresser02.jpg,dresser,z,sounds/animalfarm_chinese.wav,,,,,,,,,0,0,0,1,0,103,103,87,336.004462578,9.62177182373e-06,337.401734934,1.39728165715,,,,,z,1,1.38397314371,2018_Nov_14_1402,59.9879751962,chinese_cond1,001,1021,
images/comb02a.jpg,diploma,x,sounds/animalfarm_chinese.wav,,,,,,,,,0,0,0,1,0,104,104,166,338.50430462,8.98031976249e-06,340.185782935,1.68148761566,,,,,x,1,1.66735451641,2018_Nov_14_1402,59.9879751962,chinese_cond1,001,1021,
images/fryingpan01.jpg,frying pan,z,sounds/animalfarm_chinese.wav,,,,,,,,,0,0,0,1,0,105,105,45,341.28493593,9.30104579311e-06,343.319967838,2.03504217062,,,,,z,1,2.01746287359,2018_Nov_14_1402,59.9879751962,chinese_cond1,001,1021,
images/tie01.jpg,bench,x,sounds/animalfarm_chinese.wav,,,,,,,,,0,0,0,1,0,106,106,130,344.416739445,9.94249694486e-06,345.470543749,1.05381488802,,,,,x,1,1.03387889846,2018_Nov_14_1402,59.9879751962,chinese_cond1,001,1021,
images/umbrella01.jpg,umbrella,z,sounds/animalfarm_chinese.wav,,,,,,,,,0,0,0,1,0,107,107,53,346.662975969,9.30104579311e-06,348.371310572,1.70834422464,,,,,z,1,1.6840402716,2018_Nov_14_1402,59.9879751962,chinese_cond1,001,1021,
images/tape01a.jpg,tie,x,sounds/animalfarm_chinese.wav,,,,,,,,,0,0,0,1,0,108,108,232,349.494797669,9.94249694486e-06,350.505193351,1.01040594574,,,,,x,1,1.00051925493,2018_Nov_14_1402,59.9879751962,chinese_cond1,001,1021,
images/lion.jpg,lion,z,sounds/animalfarm_chinese.wav,,,,,,,,,0,0,0,1,0,109,109,44,351.615741731,9.62177182373e-06,353.556007529,1.94027574072,,,,,z,1,1.91742756169,2018_Nov_14_1402,59.9879751962,chinese_cond1,001,1021,
images/broadsword.jpg,teapot,x,sounds/animalfarm_chinese.wav,,,,,,,,,0,0,0,1,0,110,110,231,354.648619003,9.30104579311e-06,356.273395898,1.6247871584,,,,,x,1,1.60067499933,2018_Nov_14_1402,59.9879751962,chinese_cond1,001,1021,
images/feather03b.jpg,feather,z,sounds/animalfarm_chinese.wav,,,,,,,,,0,0,0,1,0,111,111,114,357.372276918,9.94249694486e-06,358.790738339,1.41847200498,,,,,z,1,1.40059699884,2018_Nov_14_1402,59.9879751962,chinese_cond1,001,1021,
images/scissors04a.jpg,leek,x,sounds/animalfarm_chinese.wav,,,,,,,,,0,0,0,1,0,112,112,194,359.882726643,9.62177182373e-06,361.691528576,1.80881219553,,,,,x,1,1.80072509669,2018_Nov_14_1402,59.9879751962,chinese_cond1,001,1021,
images/parrot01.jpg,chameleon,x,sounds/animalfarm_chinese.wav,,,,,,,,,0,0,0,1,0,113,113,150,362.803233813,9.62177091424e-06,364.175493733,1.37226986246,,,,,x,1,1.35061766961,2018_Nov_14_1402,59.9879751962,chinese_cond1,001,1021,
images/cloud.jpg,ceiling fan,x,sounds/animalfarm_chinese.wav,,,,,,,,,0,0,0,1,0,114,114,149,365.279010843,8.98031976249e-06,366.459684938,1.18068403739,,,,,x,1,1.16742202917,2018_Nov_14_1402,59.9879751962,chinese_cond1,001,1021,
images/giraffe.jpg,lettuce,x,sounds/animalfarm_chinese.wav,,,,,,,,,0,0,0,1,0,115,115,195,367.558455308,9.30104579311e-06,368.193220564,0.634775198538,,,,,x,1,0.617082043882,2018_Nov_14_1402,59.9879751962,chinese_cond1,001,1021,
images/thumbtack02a.jpg,thumb tack,z,sounds/animalfarm_chinese.wav,,,,,,,,,0,0,0,1,0,116,116,60,369.301356125,9.30104579311e-06,370.110416882,0.809070700456,,,,,x,0,0.800456328544,2018_Nov_14_1402,59.9879751962,chinese_cond1,001,1021,
images/8ball.jpg,nail clipper,x,sounds/animalfarm_chinese.wav,,,,,,,,,0,0,0,1,0,117,117,206,371.22615685,8.98032067198e-06,372.027576959,0.801430372533,,,,,z,0,0.783792703426,2018_Nov_14_1402,59.9879751962,chinese_cond1,001,1021,
images/cake.jpg,cake,z,sounds/animalfarm_chinese.wav,,,,,,,,,0,0,0,1,0,118,118,23,373.140411472,9.62177091424e-06,375.478492615,2.33809172691,,,,,z,1,2.31752968076,2018_Nov_14_1402,59.9879751962,chinese_cond1,001,1021,
images/marker01a.jpg,marker,z,sounds/animalfarm_chinese.wav,,,,,,,,,0,0,0,1,0,119,119,95,376.574915272,9.62177182373e-06,377.512373438,0.937468428563,,,,,z,1,0.917170018945,2018_Nov_14_1402,59.9879751962,chinese_cond1,001,1021,
images/dragonfly02.jpg,dragon fly,z,sounds/animalfarm_chinese.wav,,,,,,,,,0,0,0,1,0,120,120,29,378.607947776,9.94249694486e-06,379.49622137,0.888284178376,,,,,z,1,0.867141297957,2018_Nov_14_1402,59.9879751962,chinese_cond1,001,1021,
images/baseball01a.jpg,baseball,z,sounds/animalfarm_chinese.wav,,,,,,,,,0,0,0,1,0,121,121,74,380.626612088,9.62177182373e-06,381.430083238,0.803480772012,,,,,z,1,0.783800080117,2018_Nov_14_1402,59.9879751962,chinese_cond1,001,1021,
images/flower01.jpg,bus,x,sounds/animalfarm_chinese.wav,,,,,,,,,0,0,0,1,0,122,122,140,382.54286419,9.30104579311e-06,383.363916561,0.821061993393,,,,,x,1,0.800461139429,2018_Nov_14_1402,59.9879751962,chinese_cond1,001,1021,
images/dreamcatcher.jpg,dream catcher,z,sounds/animalfarm_chinese.wav,,,,,,,,,0,0,0,1,0,123,123,48,384.461036797,8.98031976249e-06,385.314438526,0.853412313108,,,,,z,1,0.833802822322,2018_Nov_14_1402,59.9879751962,chinese_cond1,001,1021,
images/knife04.jpg,tooth brush,x,sounds/animalfarm_chinese.wav,,,,,,,,,0,0,0,1,0,124,124,233,386.411322067,9.30104579311e-06,387.181606124,0.770293999639,,,,,x,1,0.750449416904,2018_Nov_14_1402,59.9879751962,chinese_cond1,001,1021,
images/gorilla.jpg,gorilla,z,sounds/animalfarm_chinese.wav,,,,,,,,,0,0,0,1,0,125,125,80,388.291199062,8.98031976249e-06,389.498909372,1.2077205735,,,,,z,1,1.18391727329,2018_Nov_14_1402,59.9879751962,chinese_cond1,001,1021,
images/banana04a.jpg,banana,z,sounds/animalfarm_chinese.wav,,,,,,,,,0,0,0,1,0,126,126,118,390.604512482,8.98031976249e-06,391.232668864,0.628166324505,,,,,z,1,0.617076270819,2018_Nov_14_1402,59.9879751962,chinese_cond1,001,1021,
images/50dollarbill.jpg,cherry,x,sounds/animalfarm_chinese.wav,,,,,,,,,0,0,0,1,0,127,127,151,392.352644656,9.30104579311e-06,393.083163215,0.730528822176,,,,,x,1,0.7171026024,2018_Nov_14_1402,59.9879751962,chinese_cond1,001,1021,
images/doll.jpg,carrot,x,sounds/animalfarm_chinese.wav,,,,,,,,,0,0,0,1,0,128,128,146,394.192758719,9.30104579311e-06,395.033687746,0.840938969424,,,,,x,1,0.817136310673,2018_Nov_14_1402,59.9879751962,chinese_cond1,001,1021,
images/handbag02a.jpg,candle,x,sounds/animalfarm_chinese.wav,,,,,,,,,0,0,0,1,0,129,129,144,396.147555958,9.30104579311e-06,397.434334457,1.28678844194,,,,,x,1,1.26726907508,2018_Nov_14_1402,59.9879751962,chinese_cond1,001,1021,
images/swan.jpg,swan,z,sounds/animalfarm_chinese.wav,,,,,,,,,0,0,0,1,0,130,130,54,398.52470021,9.30104579311e-06,399.468200206,0.943509938808,,,,,z,1,0.933831719708,2018_Nov_14_1402,59.9879751962,chinese_cond1,001,1021,
images/redfox.jpg,red fox,z,sounds/animalfarm_chinese.wav,,,,,,,,,0,0,0,1,0,131,131,1,400.579556815,9.94249694486e-06,401.335373897,0.755827345652,,,,,z,1,0.733789319769,2018_Nov_14_1402,59.9879751962,chinese_cond1,001,1021,
images/bowtie.jpg,bowtie,z,sounds/animalfarm_chinese.wav,,,,,,,,,0,0,0,1,0,132,132,89,402.444671126,9.30104579311e-06,403.685991888,1.24133070381,,,,,z,1,1.21724067482,2018_Nov_14_1402,59.9879751962,chinese_cond1,001,1021,
images/rhinoceros01.jpg,envelope,x,sounds/animalfarm_chinese.wav,,,,,,,,,0,0,0,1,0,133,133,173,404.79683758,9.30104579311e-06,407.036881212,2.24005357402,,,,,x,1,2.21751072587,2018_Nov_14_1402,59.9879751962,chinese_cond1,001,1021,
images/beermug01b.jpg,beer mug,z,sounds/animalfarm_chinese.wav,,,,,,,,,0,0,0,1,0,134,134,111,408.151685301,9.30104579311e-06,409.170777462,1.01910178198,,,,,z,1,1.00052438654,2018_Nov_14_1402,59.9879751962,chinese_cond1,001,1021,
images/corkscrew02a.jpg,masquerade mask,x,sounds/animalfarm_chinese.wav,,,,,,,,,0,0,0,1,0,135,135,201,410.273032195,9.30104579311e-06,411.554732003,1.28170942956,,,,,x,1,1.26724373775,2018_Nov_14_1402,59.9879751962,chinese_cond1,001,1021,
images/flashlight05.jpg,flash light,z,sounds/animalfarm_chinese.wav,,,,,,,,,0,0,0,1,0,136,136,8,412.655358092,9.62177091424e-06,413.471908757,0.816560287293,,,,,z,1,0.800456649269,2018_Nov_14_1402,59.9879751962,chinese_cond1,001,1021,
images/safe.jpg,safe,z,sounds/animalfarm_chinese.wav,,,,,,,,,0,0,0,1,0,137,137,78,414.581778803,8.98031976249e-06,415.389117263,0.807348082653,,,,,z,1,0.783820606563,2018_Nov_14_1402,59.9879751962,chinese_cond1,001,1021,
images/licenseplate.jpg,license plate,z,sounds/animalfarm_chinese.wav,,,,,,,,,0,0,0,1,0,138,138,40,416.50481297,9.62177182373e-06,417.339608439,0.834805731625,,,,,z,1,0.817132782689,2018_Nov_14_1402,59.9879751962,chinese_cond1,001,1021,
images/bus.jpg,microphone,x,sounds/animalfarm_chinese.wav,,,,,,,,,0,0,0,1,0,139,139,203,418.456369276,8.98031976249e-06,419.140090105,0.68373077129,,,,,x,1,0.667099860196,2018_Nov_14_1402,59.9879751962,chinese_cond1,001,1021,
images/remotecontrol01c.jpg,remote control,z,sounds/animalfarm_chinese.wav,,,,,,,,,0,0,0,1,0,140,140,85,420.248163765,9.62177182373e-06,421.140622509,0.892468686747,,,,,z,1,0.883824808069,2018_Nov_14_1402,59.9879751962,chinese_cond1,001,1021,
images/screw03c.jpg,screw,z,sounds/animalfarm_chinese.wav,,,,,,,,,0,0,0,1,0,141,141,84,422.233072979,9.62177182373e-06,423.591270359,1.3582076436,,,,,z,1,1.33387097654,2018_Nov_14_1402,59.9879751962,chinese_cond1,001,1021,
images/wallet01.jpg,lamp,x,sounds/animalfarm_chinese.wav,,,,,,,,,0,0,0,1,0,142,142,193,424.694903572,9.62177091424e-06,425.775180577,1.08028694688,,,,,x,1,1.06719235749,2018_Nov_14_1402,59.9879751962,chinese_cond1,001,1021,
images/watermelon01.jpg,orange,x,sounds/animalfarm_chinese.wav,,,,,,,,,0,0,0,1,0,143,143,207,426.903852525,9.62177091424e-06,428.075797428,1.17195548712,,,,,x,1,1.15056211992,2018_Nov_14_1402,59.9879751962,chinese_cond1,001,1021,
images/charcoalbarbecue.jpg,charcoal barbecue,z,sounds/animalfarm_chinese.wav,,,,,,,,,0,0,0,1,0,144,144,77,429.192660898,1.05839490061e-05,430.442925416,1.25027542321,,,,,z,1,1.23374682361,2018_Nov_14_1402,59.9879751962,chinese_cond1,001,1021,
images/printer03a.jpg,printer,z,sounds/animalfarm_chinese.wav,,,,,,,,,0,0,0,1,0,145,145,72,431.550907991,9.62177182373e-06,432.660346339,1.10944861156,,,,,z,1,1.10054109635,2018_Nov_14_1402,59.9879751962,chinese_cond1,001,1021,
images/leaf01a.jpg,leaf,z,sounds/animalfarm_chinese.wav,,,,,,,,,0,0,0,1,0,146,146,68,433.761789316,9.30104579311e-06,434.810761566,1.04898187226,,,,,z,1,1.03369191537,2018_Nov_14_1402,59.9879751962,chinese_cond1,001,1021,
images/swallow.jpg,mattress,x,sounds/animalfarm_chinese.wav,,,,,,,,,0,0,0,1,0,147,147,202,435.910846591,9.94249694486e-06,436.844790565,0.933954557657,,,,,x,1,0.917155265563,2018_Nov_14_1402,59.9879751962,chinese_cond1,001,1021,
images/doorhandle.jpg,doll,x,sounds/animalfarm_chinese.wav,,,,,,,,,0,0,0,1,0,148,148,168,437.946171962,6.73524000376e-05,439.028696933,1.08257564557,,,,,x,1,1.06719299894,2018_Nov_14_1402,59.9879751962,chinese_cond1,001,1021,
images/eraser.jpg,eraser,z,sounds/animalfarm_chinese.wav,,,,,,,,,0,0,0,1,0,149,149,110,440.188901672,8.98032067198e-06,440.845849922,0.656958192441,,,,,z,1,0.633751762788,2018_Nov_14_1402,59.9879751962,chinese_cond1,001,1021,
images/honeycomb.jpg,honey comb,z,sounds/animalfarm_chinese.wav,,,,,,,,,0,0,0,1,0,150,150,59,441.957472091,9.30104488361e-06,442.913067937,0.95560642978,,,,,z,1,0.933834285514,2018_Nov_14_1402,59.9879751962,chinese_cond1,001,1021,
images/radio03a.jpg,radio,z,sounds/animalfarm_chinese.wav,,,,,,,,,0,0,0,1,0,151,151,37,444.025374535,9.94249694486e-06,444.813572727,0.788208775761,,,,,z,1,0.76708257308,2018_Nov_14_1402,59.9879751962,chinese_cond1,001,1021,
images/medal01.jpg,medal,z,sounds/animalfarm_chinese.wav,,,,,,,,,0,0,0,1,0,152,152,115,445.913292766,9.62177182373e-06,446.847445853,0.93416302937,,,,,z,1,0.917164245882,2018_Nov_14_1402,59.9879751962,chinese_cond1,001,1021,
images/sock03.jpg,sock,z,sounds/animalfarm_chinese.wav,,,,,,,,,0,0,0,1,0,153,153,90,447.952553442,9.94249694486e-06,448.647923028,0.695379849894,,,,,z,1,0.68376669257,2018_Nov_14_1402,59.9879751962,chinese_cond1,001,1021,
images/arrow02.jpg,hammer,x,sounds/animalfarm_chinese.wav,,,,,,,,,0,0,0,1,0,154,154,184,449.744794381,9.62177091424e-06,450.515099606,0.770315488261,,,,,x,1,0.750459680127,2018_Nov_14_1402,59.9879751962,chinese_cond1,001,1021,
images/highlighter03b.jpg,coin,x,sounds/animalfarm_chinese.wav,,,,,,,,,0,0,0,1,0,155,155,156,451.61590017,9.30104579311e-06,452.49895684,0.88306629176,,,,,x,1,0.867142580861,2018_Nov_14_1402,59.9879751962,chinese_cond1,001,1021,
images/broom02.jpg,broom,z,sounds/animalfarm_chinese.wav,,,,,,,,,0,0,0,1,0,156,156,116,453.591154898,8.65959464136e-06,455.783157025,2.19201239028,,,,,z,1,2.16748457069,2018_Nov_14_1402,59.9879751962,chinese_cond1,001,1021,
images/pouch01b.jpg,pouch,z,sounds/animalfarm_chinese.wav,,,,,,,,,0,0,0,1,0,157,157,25,456.894315746,9.94249694486e-06,457.666987927,0.772681802569,,,,,z,1,0.750438191505,2018_Nov_14_1402,59.9879751962,chinese_cond1,001,1021,
images/axe01.jpg,axe,z,sounds/animalfarm_chinese.wav,,,,,,,,,0,0,0,1,0,158,158,104,458.769584875,9.62177091424e-06,459.700865222,0.931289968437,,,,,z,1,0.917164245883,2018_Nov_14_1402,59.9879751962,chinese_cond1,001,1021,
images/birthdaycandle.jpg,birthday candle,z,sounds/animalfarm_chinese.wav,,,,,,,,,0,0,0,1,0,159,159,55,460.796413902,9.62177182373e-06,461.63471843,0.838315433097,,,,,z,1,0.817142725187,2018_Nov_14_1402,59.9879751962,chinese_cond1,001,1021,
images/flamingo.jpg,flamingo,z,sounds/animalfarm_chinese.wav,,,,,,,,,0,0,0,1,0,160,160,52,462.731902811,9.94249694486e-06,463.43520619,0.703313641843,,,,,z,1,0.683788181193,2018_Nov_14_1402,59.9879751962,chinese_cond1,001,1021,
images/saltshaker03c.jpg,salt shaker,z,sounds/animalfarm_chinese.wav,,,,,,,,,0,0,0,1,0,161,161,63,464.546495446,8.98031976249e-06,465.569082554,1.0225970508,,,,,z,1,1.00051700985,2018_Nov_14_1402,59.9879751962,chinese_cond1,001,1021,
images/tent.jpg,tent,z,sounds/animalfarm_chinese.wav,,,,,,,,,0,0,0,1,0,162,162,11,466.694619089,9.94249694486e-06,468.586556653,1.89194750746,,,,,z,1,1.86741359409,2018_Nov_14_1402,59.9879751962,chinese_cond1,001,1021,
images/hairpin.jpg,hair pin,z,sounds/animalfarm_chinese.wav,,,,,,,,,0,0,0,1,0,163,163,28,469.676708482,8.98031976249e-06,470.853843368,1.1771441877,,,,,z,1,1.16724787511,2018_Nov_14_1402,59.9879751962,chinese_cond1,001,1021,
images/paintbrush03a.jpg,paint brush,z,sounds/animalfarm_chinese.wav,,,,,,,,,0,0,0,1,0,164,164,0,471.953285338,9.62177091424e-06,472.937716991,0.984441274962,,,,,z,1,0.967175647681,2018_Nov_14_1402,59.9879751962,chinese_cond1,001,1021,
images/egg01b (1).jpg,egg,z,sounds/animalfarm_chinese.wav,,,,,,,,,0,0,0,1,0,165,165,19,474.049111766,8.98031976249e-06,474.704854087,0.655751622311,,,,,z,1,0.633764271091,2018_Nov_14_1402,59.9879751962,chinese_cond1,001,1021,
images/gluestick.jpg,squirrel,x,sounds/animalfarm_chinese.wav,,,,,,,,,0,0,0,1,0,166,166,226,475.811574927,9.30104579311e-06,476.755395649,0.943830664522,,,,,x,1,0.933837492772,2018_Nov_14_1402,59.9879751962,chinese_cond1,001,1021,
images/acousticguitar02.jpg,acoustic guitar,z,sounds/animalfarm_chinese.wav,,,,,,,,,0,0,0,1,0,167,167,97,477.86853421,8.98031976249e-06,478.58924658,0.720722312792,,,,,z,1,0.700472332756,2018_Nov_14_1402,59.9879751962,chinese_cond1,001,1021,
images/camera01a.jpg,bull,x,sounds/animalfarm_chinese.wav,,,,,,,,,0,0,0,1,0,168,168,138,479.698572995,8.98032067198e-06,481.506658426,1.80809505284,,,,,x,1,1.78406724464,2018_Nov_14_1402,59.9879751962,chinese_cond1,001,1021,
images/mitten01.jpg,mitten,z,sounds/animalfarm_chinese.wav,,,,,,,,,0,0,0,1,0,169,169,102,482.630512754,9.62177091424e-06,483.807260845,1.17675771321,,,,,x,0,1.16715743046,2018_Nov_14_1402,59.9879751962,chinese_cond1,001,1021,
images/worldmap.jpg,scooter,x,sounds/animalfarm_chinese.wav,,,,,,,,,0,0,0,1,0,170,170,220,484.937697106,9.30104488361e-06,486.207900821,1.27021365785,,,,,x,1,1.2505871686,2018_Nov_14_1402,59.9879751962,chinese_cond1,001,1021,
images/radish01.jpg,raisin,x,sounds/animalfarm_chinese.wav,,,,,,,,,0,0,0,1,0,171,171,214,487.317223708,9.62177182373e-06,488.158422466,0.84120869975,,,,,x,1,0.817136952124,2018_Nov_14_1402,59.9879751962,chinese_cond1,001,1021,
images/pepper05a.jpg,lighter,x,sounds/animalfarm_chinese.wav,,,,,,,,,0,0,0,1,0,172,172,198,489.357519366,1.02632229755e-05,490.225642406,0.868134585489,,,,,x,1,0.850474465583,2018_Nov_14_1402,59.9879751962,chinese_cond1,001,1021,
images/glasses01b.jpg,calculator,x,sounds/animalfarm_chinese.wav,,,,,,,,,0,0,0,1,0,173,173,142,491.3174232,9.62177182373e-06,492.092801343,0.775387765405,,,,,x,1,0.767124908874,2018_Nov_14_1402,59.9879751962,chinese_cond1,001,1021,
images/beachumbrella01.jpg,beach umbrella,z,sounds/animalfarm_chinese.wav,,,,,,,,,0,0,0,1,0,174,174,92,493.197674161,9.62177182373e-06,494.22669631,1.02903241222,,,,,z,1,1.01719282254,2018_Nov_14_1402,59.9879751962,chinese_cond1,001,1021,
images/bandaid01.jpg,door handle,x,sounds/animalfarm_chinese.wav,,,,,,,,,0,0,0,1,0,175,175,170,495.332762869,8.98032067198e-06,496.344075186,1.01132161765,,,,,x,1,1.00067031674,2018_Nov_14_1402,59.9879751962,chinese_cond1,001,1021,
images/puzzle.jpg,puzzle,z,sounds/animalfarm_chinese.wav,,,,,,,,,0,0,0,1,0,176,176,57,497.463178283,8.98031976249e-06,498.59480636,1.13163962361,,,,,z,1,1.11749754404,2018_Nov_14_1402,59.9879751962,chinese_cond1,001,1021,
images/basketball01.jpg,basket ball,z,sounds/animalfarm_chinese.wav,,,,,,,,,0,0,0,1,0,177,177,33,499.73229987,9.30104579311e-06,500.39501573,0.662726123654,,,,,z,1,0.650434631449,2018_Nov_14_1402,59.9879751962,chinese_cond1,001,1021,
images/triangleruler02.jpg,bottle of red wine,x,sounds/animalfarm_chinese.wav,,,,,,,,,0,0,0,1,0,178,178,134,501.504778011,9.30104579311e-06,502.395533061,0.890764991762,,,,,x,1,0.86715156118,2018_Nov_14_1402,59.9879751962,chinese_cond1,001,1021,
images/barrel01.jpg,barrel,z,sounds/animalfarm_chinese.wav,,,,,,,,,0,0,0,1,0,179,179,9,503.52544301,8.65959464136e-06,504.91287486,1.38744147157,,,,,z,1,1.36728706779,2018_Nov_14_1402,59.9879751962,chinese_cond1,001,1021,
images/lettuce.jpg,mushroom,x,sounds/animalfarm_chinese.wav,,,,,,,,,0,0,0,1,0,180,180,205,506.035574575,9.62177182373e-06,507.330171085,1.29460677264,,,,,x,1,1.28392339915,2018_Nov_14_1402,59.9879751962,chinese_cond1,001,1021,
images/weight01.jpg,weight,z,sounds/animalfarm_chinese.wav,,,,,,,,,0,0,0,1,0,181,181,67,508.434535873,9.30104579311e-06,509.447412369,1.0128864384,,,,,z,1,1.00052182073,2018_Nov_14_1402,59.9879751962,chinese_cond1,001,1021,
images/binder03b.jpg,dj mixer,x,sounds/animalfarm_chinese.wav,,,,,,,,,0,0,0,1,0,182,182,167,510.559476178,9.30104488361e-06,512.981676619,2.42221070461,,,,,x,1,2.40089399085,2018_Nov_14_1402,59.9879751962,chinese_cond1,001,1021,
images/computerkeyboard01a.jpg,computer keyboard,z,sounds/animalfarm_chinese.wav,,,,,,,,,0,0,0,1,0,183,183,61,514.097870413,9.30104579311e-06,516.182803714,2.0849435635,,,,,x,0,2.06774400572,2018_Nov_14_1402,59.9879751962,chinese_cond1,001,1021,
images/cigar.jpg,crocodile,x,sounds/animalfarm_chinese.wav,,,,,,,,,0,0,0,1,0,184,184,162,517.280017922,8.98031976249e-06,518.383147275,1.10313929535,,,,,x,1,1.0839082609,2018_Nov_14_1402,59.9879751962,chinese_cond1,001,1021,
images/ruler02b.jpg,watermelon,x,sounds/animalfarm_chinese.wav,,,,,,,,,0,0,0,1,0,185,185,238,519.484113654,9.30104579311e-06,520.283614861,0.799511149869,,,,,z,0,0.7837923827,2018_Nov_14_1402,59.9879751962,chinese_cond1,001,1021,
images/blackolive.jpg,tank,x,sounds/animalfarm_chinese.wav,,,,,,,,,0,0,0,1,0,186,186,229,521.398157238,8.98032067198e-06,523.234400463,1.83625252531,,,,,x,1,1.81739641923,2018_Nov_14_1402,59.9879751962,chinese_cond1,001,1021,
images/cocktailshrimp01.jpg,cocktail shrimp,z,sounds/animalfarm_chinese.wav,,,,,,,,,0,0,0,1,0,187,187,30,524.347644542,8.98031976249e-06,525.268277116,0.92064283696,,,,,z,1,0.90049196117,2018_Nov_14_1402,59.9879751962,chinese_cond1,001,1021,
images/ostrich.jpg,ostrich,z,sounds/animalfarm_chinese.wav,,,,,,,,,0,0,0,1,0,188,188,76,526.367397397,9.30104579311e-06,527.018742248,0.651355114244,,,,,z,1,0.633710389172,2018_Nov_14_1402,59.9879751962,chinese_cond1,001,1021,
images/tulip02.jpg,sport shorts,x,sounds/animalfarm_chinese.wav,,,,,,,,,0,0,0,1,0,189,189,225,528.111720312,9.30104579311e-06,529.035946938,0.924236568569,,,,,x,1,0.900500300039,2018_Nov_14_1402,59.9879751962,chinese_cond1,001,1021,
images/chameleon.jpg,50 dollar bill,x,sounds/animalfarm_chinese.wav,,,,,,,,,0,0,0,1,0,190,190,120,530.14656235,9.30104579311e-06,531.136499901,0.989947493993,,,,,x,1,0.967175647682,2018_Nov_14_1402,59.9879751962,chinese_cond1,001,1021,
images/aquarium.jpg,computer mouse,x,sounds/animalfarm_chinese.wav,,,,,,,,,0,0,0,1,0,191,191,159,532.271927616,8.98031976249e-06,534.020588346,1.7486706721,,,,,x,1,1.73403820292,2018_Nov_14_1402,59.9879751962,chinese_cond1,001,1021,
images/hat05.jpg,hat,z,sounds/animalfarm_chinese.wav,,,,,,,,,0,0,0,1,0,192,192,15,535.122726656,9.30104579311e-06,535.804396765,0.681680051085,,,,,z,1,0.667084465362,2018_Nov_14_1402,59.9879751962,chinese_cond1,001,1021,
images/treadmill.jpg,lily,x,sounds/animalfarm_chinese.wav,,,,,,,,,0,0,0,1,0,193,193,199,536.908243902,8.65959373186e-06,538.671847884,1.7636139245,,,,,x,1,1.7507387115,2018_Nov_14_1402,59.9879751962,chinese_cond1,001,1021,
images/mushroom01.jpg,shower head,x,sounds/animalfarm_chinese.wav,,,,,,,,,0,0,0,1,0,194,194,222,539.786777056,9.30104579311e-06,541.239178314,1.4524115206,,,,,x,1,1.43396498124,2018_Nov_14_1402,59.9879751962,chinese_cond1,001,1021,
images/bowlingball.jpg,bowling ball,z,sounds/animalfarm_chinese.wav,,,,,,,,,0,0,0,1,0,195,195,20,542.369381086,8.98031976249e-06,543.256375947,0.887005765686,,,,,z,1,0.867138411427,2018_Nov_14_1402,59.9879751962,chinese_cond1,001,1021,
images/bottleofredwine02.jpg,pipe,x,sounds/animalfarm_chinese.wav,,,,,,,,,0,0,0,1,0,196,196,213,544.352868523,8.98031976249e-06,545.973601387,1.62074248644,,,,,x,1,1.60050661834,2018_Nov_14_1402,59.9879751962,chinese_cond1,001,1021,
images/bowl02b (1).jpg,bowl,z,sounds/animalfarm_chinese.wav,,,,,,,,,0,0,0,1,0,197,197,24,547.089985051,9.30104579311e-06,549.141280639,2.05130553005,,,,,z,1,2.03412874379,2018_Nov_14_1402,59.9879751962,chinese_cond1,001,1021,
images/fireextinguisher02.jpg,fire extinguisher,x,sounds/animalfarm_chinese.wav,,,,,,,,,0,0,0,1,0,198,198,175,550.251014375,9.62177182373e-06,551.258508773,1.00750466095,,,,,z,0,0.983847611668,2018_Nov_14_1402,59.9879751962,chinese_cond1,001,1021,
images/hairband.jpg,hairband,z,sounds/animalfarm_chinese.wav,,,,,,,,,0,0,0,1,0,199,199,66,552.366366906,9.30104579311e-06,553.942552893,1.57619593006,,,,,x,0,1.56733941023,2018_Nov_14_1402,59.9879751962,chinese_cond1,001,1021,
images/panda.jpg,panda,z,sounds/animalfarm_chinese.wav,,,,,,,,,0,0,0,1,0,200,200,83,555.049950785,9.30104579311e-06,556.176479323,1.12653816043,,,,,z,1,1.11721241888,2018_Nov_14_1402,59.9879751962,chinese_cond1,001,1021,
images/stapler03a.jpg,candy cane,x,sounds/animalfarm_chinese.wav,,,,,,,,,0,0,0,1,0,201,201,145,557.28538655,9.30104579311e-06,558.74383028,1.45845367229,,,,,x,1,1.43396498124,2018_Nov_14_1402,59.9879751962,chinese_cond1,001,1021,
images/boxingglove02a.jpg,bracelet,x,sounds/animalfarm_chinese.wav,,,,,,,,,0,0,0,1,0,202,202,135,559.855153533,9.30104579311e-06,561.361204825,1.5060615556,,,,,x,1,1.48399049497,2018_Nov_14_1402,59.9879751962,chinese_cond1,001,1021,
,,,sounds/animalfarm_chinese.wav,,,,,,,,,0,0,0,1,,,,,,,,,,,,,,,,2018_Nov_14_1402,59.9879751962,chinese_cond1,001,1021,
images/teapot.jpg,light switch,x,sounds/greatgatsby_english.wav,,,,,,,,,0,1,1,0,0,0,0,197,582.504305262,9.30104579311e-06,584.700743025,2.19644770615,,,,572.364268397,x,1,2.18419117305,2018_Nov_14_1402,59.9879751962,chinese_cond1,001,1021,
images/flashlight05.jpg,flash light,z,sounds/greatgatsby_english.wav,,,,,,,,,0,1,1,0,0,1,1,8,585.800446065,8.98031976249e-06,587.684843369,1.88440724596,,,,,z,1,1.86741070756,2018_Nov_14_1402,59.9879751962,chinese_cond1,001,1021,
images/lighter02b.jpg,stapler,x,sounds/greatgatsby_english.wav,,,,,,,,,0,1,1,0,0,2,2,227,588.78472794,9.30104488361e-06,590.702315223,1.91759786705,,,,,x,1,1.90075206972,2018_Nov_14_1402,59.9879751962,chinese_cond1,001,1021,
images/cocktailshrimp01.jpg,cocktail shrimp,z,sounds/greatgatsby_english.wav,,,,,,,,,0,1,1,0,0,3,3,30,591.814578202,8.98031976249e-06,593.0696241,1.25505583995,,,,,z,1,1.23392450566,2018_Nov_14_1402,59.9879751962,chinese_cond1,001,1021,
images/doorhandle.jpg,doll,x,sounds/greatgatsby_english.wav,,,,,,,,,0,1,1,0,0,4,4,168,594.170754049,9.62177091424e-06,595.520283175,1.34953938977,,,,,x,1,1.33395981756,2018_Nov_14_1402,59.9879751962,chinese_cond1,001,1021,
images/squirrel.jpg,binder,x,sounds/greatgatsby_english.wav,,,,,,,,,0,1,1,0,0,5,5,132,596.62166778,9.62177091424e-06,597.58731068,0.965653162724,,,,,x,1,0.95033049181,2018_Nov_14_1402,59.9879751962,chinese_cond1,001,1021,
images/cola.jpg,comb,x,sounds/greatgatsby_english.wav,,,,,,,,,0,1,1,0,0,6,6,157,598.706497165,8.98031976249e-06,599.504657739,0.798170516391,,,,,x,1,0.783798155763,2018_Nov_14_1402,59.9879751962,chinese_cond1,001,1021,
images/straw.jpg,straw,z,sounds/greatgatsby_english.wav,,,,,,,,,0,1,1,0,0,7,7,109,600.593544946,9.30104579311e-06,602.055321016,1.46178633317,,,,,z,1,1.4506340587,2018_Nov_14_1402,59.9879751962,chinese_cond1,001,1021,
images/blackolive.jpg,tank,x,sounds/greatgatsby_english.wav,,,,,,,,,0,1,1,0,0,8,8,229,603.168985567,8.98031976249e-06,603.989177432,0.820202127758,,,,,x,1,0.800451196933,2018_Nov_14_1402,59.9879751962,chinese_cond1,001,1021,
images/chameleon.jpg,50 dollar bill,x,sounds/greatgatsby_english.wav,,,,,,,,,0,1,1,0,0,9,9,120,605.096596812,9.30104488361e-06,606.189756085,1.09316889512,,,,,z,0,1.08387073599,2018_Nov_14_1402,59.9879751962,chinese_cond1,001,1021,
images/nailclipper03a.jpg,aquarium,x,sounds/greatgatsby_english.wav,,,,,,,,,0,1,1,0,0,10,10,123,607.286821797,9.30104579311e-06,610.290686542,3.00387532878,,,,,None,0,,2018_Nov_14_1402,59.9879751962,chinese_cond1,001,1021,
images/bed.jpg,bed,z,sounds/greatgatsby_english.wav,,,,,,,,,0,1,1,0,0,11,11,103,611.4110363,9.94249694486e-06,612.208026546,0.797001150443,,,,,z,1,0.783794307054,2018_Nov_14_1402,59.9879751962,chinese_cond1,001,1021,
images/pouch01b.jpg,pouch,z,sounds/greatgatsby_english.wav,,,,,,,,,0,1,1,0,0,12,12,25,613.320140067,9.62177091424e-06,614.191885062,0.871755258057,,,,,z,1,0.850471579051,2018_Nov_14_1402,59.9879751962,chinese_cond1,001,1021,
images/tank.jpg,wallet,x,sounds/greatgatsby_english.wav,,,,,,,,,0,1,1,0,0,13,13,237,615.294413375,9.62177182373e-06,616.225765885,0.931362773174,,,,,x,1,0.917152379031,2018_Nov_14_1402,59.9879751962,chinese_cond1,001,1021,
images/giraffe.jpg,lettuce,x,sounds/greatgatsby_english.wav,,,,,,,,,0,1,1,0,0,14,14,195,617.324320727,9.94249785435e-06,618.242974744,0.918664600766,,,,,x,1,0.900498054959,2018_Nov_14_1402,59.9879751962,chinese_cond1,001,1021,
images/baseball01a.jpg,baseball,z,sounds/greatgatsby_english.wav,,,,,,,,,0,1,1,0,0,15,15,74,619.372960385,8.98031976249e-06,620.093445681,0.720495238987,,,,,z,1,0.700430959139,2018_Nov_14_1402,59.9879751962,chinese_cond1,001,1021,
images/table02.jpg,table,z,sounds/greatgatsby_english.wav,,,,,,,,,0,1,1,0,0,16,16,49,621.206927419,9.30104579311e-06,621.893918367,0.687001532106,,,,,z,1,0.667084144636,2018_Nov_14_1402,59.9879751962,chinese_cond1,001,1021,
images/floorlamp.jpg,floor lamp,z,sounds/greatgatsby_english.wav,,,,,,,,,0,1,1,0,0,17,17,26,622.984693365,9.62177091424e-06,623.594380437,0.609697334352,,,,,z,1,0.600415532233,2018_Nov_14_1402,59.9879751962,chinese_cond1,001,1021,
images/eraser.jpg,eraser,z,sounds/greatgatsby_english.wav,,,,,,,,,0,1,1,0,0,18,18,110,624.701151309,9.30104579311e-06,625.294833205,0.593692479848,,,,,z,1,0.583723683252,2018_Nov_14_1402,59.9879751962,chinese_cond1,001,1021,
images/handbag02a.jpg,candle,x,sounds/greatgatsby_english.wav,,,,,,,,,0,1,1,0,0,19,19,144,626.409360829,9.30104579311e-06,627.095315512,0.685964946604,,,,,x,1,0.667038601584,2018_Nov_14_1402,59.9879751962,chinese_cond1,001,1021,
images/plant01.jpg,plant,z,sounds/greatgatsby_english.wav,,,,,,,,,0,1,1,0,0,20,20,47,628.204949824,9.30104579311e-06,628.795754169,0.59081460803,,,,,z,1,0.567052681443,2018_Nov_14_1402,59.9879751962,chinese_cond1,001,1021,
images/pineapple01a.jpg,pineapple,z,sounds/greatgatsby_english.wav,,,,,,,,,0,1,1,0,0,21,21,51,629.906777864,8.98032067198e-06,630.396183813,0.489415249674,,,,,z,1,0.467039499616,2018_Nov_14_1402,59.9879751962,chinese_cond1,001,1021,
images/mushroom01.jpg,shower head,x,sounds/greatgatsby_english.wav,,,,,,,,,0,1,1,0,0,22,22,222,631.511571944,9.30104579311e-06,632.230003955,0.718442273702,,,,,x,1,0.700429034785,2018_Nov_14_1402,59.9879751962,chinese_cond1,001,1021,
images/parrot01.jpg,chameleon,x,sounds/greatgatsby_english.wav,,,,,,,,,0,1,1,0,0,23,23,150,633.341262101,8.98031976249e-06,634.413918341,1.0726658625,,,,,x,1,1.05052392149,2018_Nov_14_1402,59.9879751962,chinese_cond1,001,1021,
images/globe.jpg,cloud,x,sounds/greatgatsby_english.wav,,,,,,,,,0,1,1,0,0,24,24,154,635.539613635,9.30104488361e-06,636.39779097,0.858187277516,,,,,x,1,0.833810199014,2018_Nov_14_1402,59.9879751962,chinese_cond1,001,1021,
images/gorilla.jpg,gorilla,z,sounds/greatgatsby_english.wav,,,,,,,,,0,1,1,0,0,25,25,80,637.506621863,9.30104579311e-06,638.264947021,0.758335420723,,,,,z,1,0.750455189967,2018_Nov_14_1402,59.9879751962,chinese_cond1,001,1021,
images/barrel01.jpg,barrel,z,sounds/greatgatsby_english.wav,,,,,,,,,0,1,1,0,0,26,26,9,639.393092659,9.62177091424e-06,640.032095343,0.639013268102,,,,,z,1,0.617091665654,2018_Nov_14_1402,59.9879751962,chinese_cond1,001,1021,
images/atm.jpg,atm,z,sounds/greatgatsby_english.wav,,,,,,,,,0,1,1,0,0,27,27,96,641.168491649,9.30104579311e-06,641.599158608,0.430676901238,,,,,x,0,0.417022966206,2018_Nov_14_1402,59.9879751962,chinese_cond1,001,1021,
images/boxingglove02a.jpg,bracelet,x,sounds/greatgatsby_english.wav,,,,,,,,,0,1,1,0,0,28,28,135,642.708422482,9.30104579311e-06,643.29961747,0.591205251948,,,,,z,0,0.567065510471,2018_Nov_14_1402,59.9879751962,chinese_cond1,001,1021,
images/charcoalbarbecue.jpg,charcoal barbecue,z,sounds/greatgatsby_english.wav,,,,,,,,,0,1,1,0,0,29,29,77,644.414552737,9.62177182373e-06,645.233478055,0.818935902646,,,,,z,1,0.800462101606,2018_Nov_14_1402,59.9879751962,chinese_cond1,001,1021,
images/corkscrew02a.jpg,masquerade mask,x,sounds/greatgatsby_english.wav,,,,,,,,,0,1,1,0,0,30,30,201,646.334951822,9.62177182373e-06,647.217350684,0.882409124775,,,,,x,1,0.867174332706,2018_Nov_14_1402,59.9879751962,chinese_cond1,001,1021,
images/hairband.jpg,hairband,z,sounds/greatgatsby_english.wav,,,,,,,,,0,1,1,0,0,31,31,66,648.324888091,9.62177091424e-06,649.201197975,0.876320788574,,,,,z,1,0.867164710935,2018_Nov_14_1402,59.9879751962,chinese_cond1,001,1021,
images/glasses01b.jpg,calculator,x,sounds/greatgatsby_english.wav,,,,,,,,,0,1,1,0,0,32,32,142,650.291752314,8.98031976249e-06,651.001694715,0.709952022641,,,,,x,1,0.7004691255,2018_Nov_14_1402,59.9879751962,chinese_cond1,001,1021,
images/fork01.jpg,cooking pot,x,sounds/greatgatsby_english.wav,,,,,,,,,0,1,1,0,0,33,33,160,652.093507902,9.30104579311e-06,653.068875205,0.975377566327,,,,,z,0,0.967164743008,2018_Nov_14_1402,59.9879751962,chinese_cond1,001,1021,
images/icecube02 (2).jpg,aloe,x,sounds/greatgatsby_english.wav,,,,,,,,,0,1,1,0,0,34,34,122,654.179362006,9.62177182373e-06,655.119411635,0.94005989232,,,,,x,1,0.917150133952,2018_Nov_14_1402,59.9879751962,chinese_cond1,001,1021,
images/ear.jpg,bullet,x,sounds/greatgatsby_english.wav,,,,,,,,,0,1,1,0,0,35,35,139,656.224267134,8.98032067198e-06,657.053264202,0.829007010743,,,,,x,1,0.81713053761,2018_Nov_14_1402,59.9879751962,chinese_cond1,001,1021,
images/donut.jpg,rhinoceros,x,sounds/greatgatsby_english.wav,,,,,,,,,0,1,1,0,0,36,36,216,658.179192984,9.30104579311e-06,659.08714727,0.907964549546,,,,,x,1,0.883830260406,2018_Nov_14_1402,59.9879751962,chinese_cond1,001,1021,
images/snowman.jpg,globe,x,sounds/greatgatsby_english.wav,,,,,,,,,0,1,1,0,0,37,37,180,660.196757848,9.62177182373e-06,660.870947671,0.674200086019,,,,,x,1,0.650421481695,2018_Nov_14_1402,59.9879751962,chinese_cond1,001,1021,
images/pepper05a.jpg,lighter,x,sounds/greatgatsby_english.wav,,,,,,,,,0,1,1,0,0,38,38,198,661.989938193,9.62177182373e-06,662.538054587,0.548126977876,,,,,x,1,0.533721582499,2018_Nov_14_1402,59.9879751962,chinese_cond1,001,1021,
images/remotecontrol01c.jpg,remote control,z,sounds/greatgatsby_english.wav,,,,,,,,,0,1,1,0,0,39,39,85,663.645777053,8.98031976249e-06,664.438557453,0.792790663289,,,,,z,1,0.783791099797,2018_Nov_14_1402,59.9879751962,chinese_cond1,001,1021,
images/raisin.jpg,ruler,x,sounds/greatgatsby_english.wav,,,,,,,,,0,1,1,0,0,40,40,218,665.541859677,8.98031976249e-06,666.439093385,0.897244292605,,,,,x,1,0.883809733961,2018_Nov_14_1402,59.9879751962,chinese_cond1,001,1021,
images/marker01a.jpg,marker,z,sounds/greatgatsby_english.wav,,,,,,,,,0,1,1,0,0,41,41,95,667.536059673,9.30104579311e-06,669.289863881,1.75381415035,,,,,z,1,1.73403659929,2018_Nov_14_1402,59.9879751962,chinese_cond1,001,1021,
images/cigar.jpg,crocodile,x,sounds/greatgatsby_english.wav,,,,,,,,,0,1,1,0,0,42,42,162,670.3878783,9.30104579311e-06,672.290640678,1.90277167954,,,,,x,1,1.88407048397,2018_Nov_14_1402,59.9879751962,chinese_cond1,001,1021,
images/computermouse02a.jpg,world map,x,sounds/greatgatsby_english.wav,,,,,,,,,0,1,1,0,0,43,43,239,673.390308759,9.30104579311e-06,674.424546871,1.03424837448,,,,,x,1,1.01718801166,2018_Nov_14_1402,59.9879751962,chinese_cond1,001,1021,
images/computerkeyboard01a.jpg,computer keyboard,z,sounds/greatgatsby_english.wav,,,,,,,,,0,1,1,0,0,44,44,61,675.542003362,1.05839480966e-05,676.708489513,1.16649705622,,,,,z,1,1.15055570541,2018_Nov_14_1402,59.9879751962,chinese_cond1,001,1021,
images/honeycomb.jpg,honey comb,z,sounds/greatgatsby_english.wav,,,,,,,,,0,1,1,0,0,45,45,59,677.821121648,8.98031976249e-06,679.39254101,1.5714315496,,,,,x,0,1.55066263536,2018_Nov_14_1402,59.9879751962,chinese_cond1,001,1021,
images/swallow.jpg,mattress,x,sounds/greatgatsby_english.wav,,,,,,,,,0,1,1,0,0,46,46,202,680.494220042,9.30104579311e-06,681.359554371,0.865344271791,,,,,z,0,0.850304480956,2018_Nov_14_1402,59.9879751962,chinese_cond1,001,1021,
images/grasshopper.jpg,cauliflower,x,sounds/greatgatsby_english.wav,,,,,,,,,0,1,1,0,0,47,47,148,682.451473719,9.94249694486e-06,684.077126195,1.62566273959,,,,,x,1,1.61736075453,2018_Nov_14_1402,59.9879751962,chinese_cond1,001,1021,
images/antelope.jpg,antelope,z,sounds/greatgatsby_english.wav,,,,,,,,,0,1,1,0,0,48,48,12,685.180418476,9.30104488361e-06,686.861185101,1.68077656675,,,,,x,0,1.66736349673,2018_Nov_14_1402,59.9879751962,chinese_cond1,001,1021,
images/umbrella01.jpg,umbrella,z,sounds/greatgatsby_english.wav,,,,,,,,,0,1,1,0,0,49,49,53,687.973158144,8.98032067198e-06,689.095122435,1.12197359209,,,,,z,1,1.10054462433,2018_Nov_14_1402,59.9879751962,chinese_cond1,001,1021,
images/highlighter03b.jpg,coin,x,sounds/greatgatsby_english.wav,,,,,,,,,0,1,1,0,0,50,50,156,690.195568276,9.62177091424e-06,691.112310768,0.916752113341,,,,,x,1,0.900490678267,2018_Nov_14_1402,59.9879751962,chinese_cond1,001,1021,
images/battery03b.jpg,battery,z,sounds/greatgatsby_english.wav,,,,,,,,,0,1,1,0,0,51,51,34,692.219393065,8.98031976249e-06,694.246480597,2.027097474,,,,,z,1,2.01746126996,2018_Nov_14_1402,59.9879751962,chinese_cond1,001,1021,
images/diploma01.jpg,glasses,x,sounds/greatgatsby_english.wav,,,,,,,,,0,1,1,0,0,52,52,179,695.376594207,8.65959464136e-06,696.747149791,1.37056552603,,,,,x,1,1.35061927324,2018_Nov_14_1402,59.9879751962,chinese_cond1,001,1021,
images/electrictoothbrush01a.jpg,banjo,x,sounds/greatgatsby_english.wav,,,,,,,,,0,1,1,0,0,53,53,127,697.84049284,9.62177182373e-06,698.914400232,1.07391797568,,,,,z,0,1.05053963705,2018_Nov_14_1402,59.9879751962,chinese_cond1,001,1021,
images/ant.jpg,ant,z,sounds/greatgatsby_english.wav,,,,,,,,,0,1,1,0,0,54,54,98,700.009522346,9.30104579311e-06,700.798212852,0.788700448279,,,,,z,1,0.767119777262,2018_Nov_14_1402,59.9879751962,chinese_cond1,001,1021,
images/lock02a.jpg,lock,z,sounds/greatgatsby_english.wav,,,,,,,,,0,1,1,0,0,55,55,65,701.907110136,8.98031976249e-06,702.782076821,0.874975664937,,,,,z,1,0.850474786308,2018_Nov_14_1402,59.9879751962,chinese_cond1,001,1021,
images/clothespin02a.jpg,clothes pin,z,sounds/greatgatsby_english.wav,,,,,,,,,0,1,1,0,0,56,56,79,703.887785129,9.30104579311e-06,705.449453147,1.56167828068,,,,,z,1,1.55066969132,2018_Nov_14_1402,59.9879751962,chinese_cond1,001,1021,
images/graduationcap.jpg,graduation cap,z,sounds/greatgatsby_english.wav,,,,,,,,,0,1,1,0,0,57,57,35,706.550432354,9.62177182373e-06,707.299946856,0.749524764676,,,,,z,1,0.733754681392,2018_Nov_14_1402,59.9879751962,chinese_cond1,001,1021,
images/broadsword.jpg,teapot,x,sounds/greatgatsby_english.wav,,,,,,,,,0,1,1,0,0,58,58,231,708.391894107,9.62177091424e-06,709.300488882,0.908604397342,,,,,x,1,0.900506073101,2018_Nov_14_1402,59.9879751962,chinese_cond1,001,1021,
images/puzzle.jpg,puzzle,z,sounds/greatgatsby_english.wav,,,,,,,,,0,1,1,0,0,59,59,57,710.418421651,9.62177182373e-06,711.117649889,0.699238180216,,,,,z,1,0.68377503144,2018_Nov_14_1402,59.9879751962,chinese_cond1,001,1021,
images/rhinoceros01.jpg,envelope,x,sounds/greatgatsby_english.wav,,,,,,,,,0,1,1,0,0,60,60,173,712.228721693,9.30104579311e-06,713.034813172,0.806101421809,,,,,x,1,0.783806494632,2018_Nov_14_1402,59.9879751962,chinese_cond1,001,1021,
images/fryingpan01.jpg,frying pan,z,sounds/greatgatsby_english.wav,,,,,,,,,0,1,1,0,0,61,61,45,714.134238785,9.62177182373e-06,714.918639584,0.784410741874,,,,,z,1,0.76711913581,2018_Nov_14_1402,59.9879751962,chinese_cond1,001,1021,
images/parkbench03.jpg,park bench,z,sounds/greatgatsby_english.wav,,,,,,,,,0,1,1,0,0,62,62,71,716.024098689,9.30104579311e-06,716.769123672,0.745034925427,,,,,z,1,0.73377584929,2018_Nov_14_1402,59.9879751962,chinese_cond1,001,1021,
images/mirror02.jpg,8 ball,x,sounds/greatgatsby_english.wav,,,,,,,,,0,1,1,0,0,63,63,121,717.869852392,9.62177091424e-06,718.63629191,0.766448819072,,,,,x,1,0.750453907064,2018_Nov_14_1402,59.9879751962,chinese_cond1,001,1021,
images/hammer02a.jpg,flower,x,sounds/greatgatsby_english.wav,,,,,,,,,0,1,1,0,0,64,64,176,719.7297501,9.30104579311e-06,722.687360424,2.95762058725,,,,,x,1,2.93432210932,2018_Nov_14_1402,59.9879751962,chinese_cond1,001,1021,
images/sunglasses03a.jpg,sun glasses,z,sounds/greatgatsby_english.wav,,,,,,,,,0,1,1,0,0,65,65,17,723.793678111,9.62177182373e-06,724.471173654,0.677505805937,,,,,z,1,0.66708382391,2018_Nov_14_1402,59.9879751962,chinese_cond1,001,1021,
images/highheelshoe02a.jpg,high heel shoe,z,sounds/greatgatsby_english.wav,,,,,,,,,0,1,1,0,0,66,66,75,725.576339615,9.30104579311e-06,726.505044534,0.928715182418,,,,,z,1,0.917161359351,2018_Nov_14_1402,59.9879751962,chinese_cond1,001,1021,
images/lollipop03b.jpg,lollipop,z,sounds/greatgatsby_english.wav,,,,,,,,,0,1,1,0,0,67,67,42,727.596144107,9.30104579311e-06,728.255495876,0.659361390204,,,,,z,1,0.650408973392,2018_Nov_14_1402,59.9879751962,chinese_cond1,001,1021,
images/flipflop01b.jpg,flip flop,z,sounds/greatgatsby_english.wav,,,,,,,,,0,1,1,0,0,68,68,27,729.370591826,9.30104579311e-06,730.222751384,0.852169821699,,,,,z,1,0.83385830787,2018_Nov_14_1402,59.9879751962,chinese_cond1,001,1021,
images/cheetah.jpg,cheetah,z,sounds/greatgatsby_english.wav,,,,,,,,,0,1,1,0,0,69,69,82,731.323504159,8.65959464136e-06,731.923422887,0.599928670602,,,,,z,1,0.5840149022,2018_Nov_14_1402,59.9879751962,chinese_cond1,001,1021,
images/puma.jpg,puma,z,sounds/greatgatsby_english.wav,,,,,,,,,0,1,1,0,0,70,70,4,733.021906528,9.30104579311e-06,733.473570758,0.451674172183,,,,,z,1,0.433711287204,2018_Nov_14_1402,59.9879751962,chinese_cond1,001,1021,
images/ceilingfan02.jpg,paper clip,x,sounds/greatgatsby_english.wav,,,,,,,,,0,1,1,0,0,71,71,208,734.571644191,9.62177091424e-06,736.190945015,1.61931108758,,,,,x,1,1.60067275425,2018_Nov_14_1402,59.9879751962,chinese_cond1,001,1021,
images/saltshaker03c.jpg,salt shaker,z,sounds/greatgatsby_english.wav,,,,,,,,,0,1,1,0,0,72,72,63,737.300758613,9.30104579311e-06,738.058103632,0.75735496222,,,,,z,1,0.733772000581,2018_Nov_14_1402,59.9879751962,chinese_cond1,001,1021,
images/nailpolish02b.jpg,nail polish,z,sounds/greatgatsby_english.wav,,,,,,,,,0,1,1,0,0,73,73,94,739.164530687,9.30104579311e-06,739.908439544,0.743919441398,,,,,z,1,0.733611316999,2018_Nov_14_1402,59.9879751962,chinese_cond1,001,1021,
images/pingpongpaddle01c (1).jpg,ping pong paddle,z,sounds/greatgatsby_english.wav,,,,,,,,,0,1,1,0,0,74,74,10,741.018329795,8.98031976249e-06,741.792509708,0.774189213417,,,,,z,1,0.75052158019,2018_Nov_14_1402,59.9879751962,chinese_cond1,001,1021,
images/cloud.jpg,ceiling fan,x,sounds/greatgatsby_english.wav,,,,,,,,,0,1,1,0,0,75,75,149,742.896163447,9.62177091424e-06,743.709617826,0.813464963442,,,,,x,1,0.800469478298,2018_Nov_14_1402,59.9879751962,chinese_cond1,001,1021,
images/skateboard.jpg,key,x,sounds/greatgatsby_english.wav,,,,,,,,,0,1,1,0,0,76,76,189,744.799223138,9.62177091424e-06,745.59344488,0.794232004641,,,,,x,1,0.783797193586,2018_Nov_14_1402,59.9879751962,chinese_cond1,001,1021,
images/bus.jpg,microphone,x,sounds/greatgatsby_english.wav,,,,,,,,,0,1,1,0,0,77,77,203,746.712052135,9.30104488361e-06,747.36057941,0.648536897408,,,,,x,1,0.633744065372,2018_Nov_14_1402,59.9879751962,chinese_cond1,001,1021,
images/parkfountain.jpg,park fountain,z,sounds/greatgatsby_english.wav,,,,,,,,,0,1,1,0,0,78,78,93,748.479038169,8.98032067198e-06,749.34443953,0.865411303464,,,,,z,1,0.850474465582,2018_Nov_14_1402,59.9879751962,chinese_cond1,001,1021,
images/basketball01.jpg,basket ball,z,sounds/greatgatsby_english.wav,,,,,,,,,0,1,1,0,0,79,79,33,750.481825276,9.30104579311e-06,751.178257747,0.696442734905,,,,,z,1,0.683759315879,2018_Nov_14_1402,59.9879751962,chinese_cond1,001,1021,
images/ashtray02b.jpg,ashtray,z,sounds/greatgatsby_english.wav,,,,,,,,,0,1,1,0,0,80,80,43,752.291276357,9.30104488361e-06,753.028768776,0.737502682068,,,,,z,1,0.717118959411,2018_Nov_14_1402,59.9879751962,chinese_cond1,001,1021,
images/lettuce.jpg,mushroom,x,sounds/greatgatsby_english.wav,,,,,,,,,0,1,1,0,0,81,81,205,754.15282484,8.98031976249e-06,754.829238254,0.676423356658,,,,,x,1,0.667018395865,2018_Nov_14_1402,59.9879751962,chinese_cond1,001,1021,
images/ruler02b.jpg,watermelon,x,sounds/greatgatsby_english.wav,,,,,,,,,0,1,1,0,0,82,82,238,755.929747278,8.98031976249e-06,756.796434749,0.866697092846,,,,,x,1,0.850490501869,2018_Nov_14_1402,59.9879751962,chinese_cond1,001,1021,
images/dresser02.jpg,dresser,z,sounds/greatgatsby_english.wav,,,,,,,,,0,1,1,0,0,83,83,87,757.918037261,9.62177091424e-06,758.563560941,0.645533942562,,,,,z,1,0.633761063835,2018_Nov_14_1402,59.9879751962,chinese_cond1,001,1021,
images/watermelon01.jpg,orange,x,sounds/greatgatsby_english.wav,,,,,,,,,0,1,1,0,0,84,84,207,759.690750816,9.94249694486e-06,760.614101861,0.923361308099,,,,,x,1,0.900489074639,2018_Nov_14_1402,59.9879751962,chinese_cond1,001,1021,
images/redfox.jpg,red fox,z,sounds/greatgatsby_english.wav,,,,,,,,,0,1,1,0,0,85,85,1,761.725176231,9.30104579311e-06,762.34789535,0.62272842005,,,,,z,1,0.600415211507,2018_Nov_14_1402,59.9879751962,chinese_cond1,001,1021,
images/banjo.jpg,knife,x,sounds/greatgatsby_english.wav,,,,,,,,,0,1,1,0,0,86,86,191,763.442525151,9.30104579311e-06,764.43179463,0.989279422335,,,,,x,1,0.967171478247,2018_Nov_14_1402,59.9879751962,chinese_cond1,001,1021,
images/acousticguitar02.jpg,acoustic guitar,z,sounds/greatgatsby_english.wav,,,,,,,,,0,1,1,0,0,87,87,97,765.545072707,9.30104579311e-06,766.215599842,0.670537077656,,,,,z,1,0.650430462016,2018_Nov_14_1402,59.9879751962,chinese_cond1,001,1021,
images/thumbtack02a.jpg,thumb tack,z,sounds/greatgatsby_english.wav,,,,,,,,,0,1,1,0,0,88,88,60,767.3249718,8.98031976249e-06,768.06608425,0.741122713185,,,,,z,1,0.717111261994,2018_Nov_14_1402,59.9879751962,chinese_cond1,001,1021,
images/broom02.jpg,broom,z,sounds/greatgatsby_english.wav,,,,,,,,,0,1,1,0,0,89,89,116,769.158129643,8.98031976249e-06,769.916574111,0.758454409963,,,,,z,1,0.733784508884,2018_Nov_14_1402,59.9879751962,chinese_cond1,001,1021,
images/fireextinguisher02.jpg,fire extinguisher,x,sounds/greatgatsby_english.wav,,,,,,,,,0,1,1,0,0,90,90,175,771.027151035,8.98032067198e-06,771.683737186,0.656596093112,,,,,z,0,0.633781269554,2018_Nov_14_1402,59.9879751962,chinese_cond1,001,1021,
images/weight01.jpg,weight,z,sounds/greatgatsby_english.wav,,,,,,,,,0,1,1,0,0,91,91,67,772.788567989,9.30104579311e-06,773.567554617,0.778996891847,,,,,z,1,0.767118494359,2018_Nov_14_1402,59.9879751962,chinese_cond1,001,1021,
images/radish01.jpg,raisin,x,sounds/greatgatsby_english.wav,,,,,,,,,0,1,1,0,0,92,92,214,774.676912143,8.98031976249e-06,775.501403335,0.824501455934,,,,,x,1,0.800470440475,2018_Nov_14_1402,59.9879751962,chinese_cond1,001,1021,
images/corn01.jpg,corn,z,sounds/greatgatsby_english.wav,,,,,,,,,0,1,1,0,0,93,93,22,776.599820265,9.62177182373e-06,777.335210006,0.735400004298,,,,,z,1,0.717106771835,2018_Nov_14_1402,59.9879751962,chinese_cond1,001,1021,
images/tape01a.jpg,tie,x,sounds/greatgatsby_english.wav,,,,,,,,,0,1,1,0,0,94,94,232,778.459707389,9.30104579311e-06,779.252384515,0.792687389609,,,,,x,1,0.783791741249,2018_Nov_14_1402,59.9879751962,chinese_cond1,001,1021,
images/headphones02b.jpg,headphones,z,sounds/greatgatsby_english.wav,,,,,,,,,0,1,1,0,0,95,95,101,780.358779818,9.62177091424e-06,781.069538145,0.710768590305,,,,,z,1,0.700443146718,2018_Nov_14_1402,59.9879751962,chinese_cond1,001,1021,
images/electricguitar02.jpg,electric guitar,z,sounds/greatgatsby_english.wav,,,,,,,,,0,1,1,0,0,96,96,100,782.171255984,9.30104579311e-06,782.886682474,0.715436432324,,,,,z,1,0.70043320422,2018_Nov_14_1402,59.9879751962,chinese_cond1,001,1021,
images/dolphin01.jpg,dolphin,z,sounds/greatgatsby_english.wav,,,,,,,,,0,1,1,0,0,97,97,99,783.98529184,9.30104579311e-06,784.570521651,0.585240074422,,,,,z,1,0.56712773126,2018_Nov_14_1402,59.9879751962,chinese_cond1,001,1021,
images/leek.jpg,donut,x,sounds/greatgatsby_english.wav,,,,,,,,,0,1,1,0,0,98,98,169,785.669596389,9.30104579311e-06,786.220919399,0.551333272823,,,,,z,0,0.533742750396,2018_Nov_14_1402,59.9879751962,chinese_cond1,001,1021,
images/pictureframe04.jpg,picture frame,z,sounds/greatgatsby_english.wav,,,,,,,,,0,1,1,0,0,99,99,41,787.340938809,9.30104579311e-06,788.238101637,0.897172770771,,,,,z,1,0.883809413235,2018_Nov_14_1402,59.9879751962,chinese_cond1,001,1021,
images/scissors04a.jpg,leek,x,sounds/greatgatsby_english.wav,,,,,,,,,0,1,1,0,0,100,100,194,789.330997916,9.30104488361e-06,790.088595346,0.75760705263,,,,,x,1,0.733776170016,2018_Nov_14_1402,59.9879751962,chinese_cond1,001,1021,
images/wallet01.jpg,lamp,x,sounds/greatgatsby_english.wav,,,,,,,,,0,1,1,0,0,101,101,193,791.191866139,9.30104579311e-06,792.48923436,1.29737880497,,,,,x,1,1.28392788931,2018_Nov_14_1402,59.9879751962,chinese_cond1,001,1021,
images/key03b.jpg,cigar,x,sounds/greatgatsby_english.wav,,,,,,,,,0,1,1,0,0,102,102,153,793.591289282,8.98031976249e-06,795.006572632,1.41529329244,,,,,x,1,1.40062490198,2018_Nov_14_1402,59.9879751962,chinese_cond1,001,1021,
images/bowl02b (1).jpg,bowl,z,sounds/greatgatsby_english.wav,,,,,,,,,0,1,1,0,0,103,103,24,796.122677585,9.30104579311e-06,797.790652706,1.66798506316,,,,,z,1,1.65068640113,2018_Nov_14_1402,59.9879751962,chinese_cond1,001,1021,
images/dryingmachine01.jpg,drying machine,z,sounds/greatgatsby_english.wav,,,,,,,,,0,1,1,0,0,104,104,18,798.911081041,9.30104579311e-06,799.657634282,0.746563504172,,,,,z,1,0.733604902484,2018_Nov_14_1402,59.9879751962,chinese_cond1,001,1021,
images/8ball.jpg,nail clipper,x,sounds/greatgatsby_english.wav,,,,,,,,,0,1,1,0,0,105,105,206,800.773509596,9.62177091424e-06,802.391871335,1.61837168197,,,,,x,1,1.60067820659,2018_Nov_14_1402,59.9879751962,chinese_cond1,001,1021,
images/ostrich.jpg,ostrich,z,sounds/greatgatsby_english.wav,,,,,,,,,0,1,1,0,0,106,106,76,803.492303705,9.30104579311e-06,805.05924285,1.56694908704,,,,,z,1,1.55066776697,2018_Nov_14_1402,59.9879751962,chinese_cond1,001,1021,
images/tissuebox03.jpg,tissue box,z,sounds/greatgatsby_english.wav,,,,,,,,,0,1,1,0,0,107,107,58,806.183397698,9.30104488361e-06,806.993082909,0.809695153417,,,,,z,1,0.800461780881,2018_Nov_14_1402,59.9879751962,chinese_cond1,001,1021,
images/hat05.jpg,hat,z,sounds/greatgatsby_english.wav,,,,,,,,,0,1,1,0,0,108,108,15,808.095302363,9.94249694486e-06,808.72687736,0.631584939875,,,,,z,1,0.617073705014,2018_Nov_14_1402,59.9879751962,chinese_cond1,001,1021,
images/stapler03a.jpg,candy cane,x,sounds/greatgatsby_english.wav,,,,,,,,,0,1,1,0,0,109,109,145,809.836316991,1.09046741272e-05,811.811038994,1.97473290764,,,,,x,1,1.9507669995,2018_Nov_14_1402,59.9879751962,chinese_cond1,001,1021,
images/toothbrush03a.jpg,parrot,x,sounds/greatgatsby_english.wav,,,,,,,,,0,1,1,0,0,110,110,210,812.902184431,8.98031976249e-06,814.678476643,1.77630183369,,,,,x,1,1.76740426097,2018_Nov_14_1402,59.9879751962,chinese_cond1,001,1021,
images/tulip02.jpg,sport shorts,x,sounds/greatgatsby_english.wav,,,,,,,,,0,1,1,0,0,111,111,225,815.771714173,9.30104488361e-06,816.595642492,0.823938261583,,,,,x,1,0.800470761201,2018_Nov_14_1402,59.9879751962,chinese_cond1,001,1021,
images/spoon02b.jpg,spoon,z,sounds/greatgatsby_english.wav,,,,,,,,,0,1,1,0,0,112,112,38,817.685925177,9.62177182373e-06,818.612839484,0.926925532942,,,,,z,1,0.917165208059,2018_Nov_14_1402,59.9879751962,chinese_cond1,001,1021,
images/button07.jpg,radish,x,sounds/greatgatsby_english.wav,,,,,,,,,0,1,1,0,0,113,113,215,819.723409032,9.30104488361e-06,820.8634475,1.14004841034,,,,,x,1,1.11722621009,2018_Nov_14_1402,59.9879751962,chinese_cond1,001,1021,
images/toucan.jpg,toucan,z,sounds/greatgatsby_english.wav,,,,,,,,,0,1,1,0,0,114,114,81,821.964046648,9.30104579311e-06,822.730589119,0.766552413477,,,,,z,1,0.750446530374,2018_Nov_14_1402,59.9879751962,chinese_cond1,001,1021,
images/chessknight02b (1).jpg,cockroach,x,sounds/greatgatsby_english.wav,,,,,,,,,0,1,1,0,0,115,115,155,823.837697395,9.94249694486e-06,824.881169199,1.04348206774,,,,,x,1,1.03386671088,2018_Nov_14_1402,59.9879751962,chinese_cond1,001,1021,
images/knife04.jpg,tooth brush,x,sounds/greatgatsby_english.wav,,,,,,,,,0,1,1,0,0,116,116,233,825.977763124,9.30104579311e-06,827.231788472,1.25403561146,,,,,x,1,1.23390590357,2018_Nov_14_1402,59.9879751962,chinese_cond1,001,1021,
images/swan.jpg,swan,z,sounds/greatgatsby_english.wav,,,,,,,,,0,1,1,0,0,117,117,54,828.323653297,9.30104488361e-06,829.965848164,1.64220480967,,,,,z,1,1.63402053094,2018_Nov_14_1402,59.9879751962,chinese_cond1,001,1021,
images/orange.jpg,bat,x,sounds/greatgatsby_english.wav,,,,,,,,,0,1,1,0,0,118,118,128,831.090824711,9.30104579311e-06,831.816351816,0.725537047188,,,,,x,1,0.717103564577,2018_Nov_14_1402,59.9879751962,chinese_cond1,001,1021,
images/razor04a.jpg,razor,z,sounds/greatgatsby_english.wav,,,,,,,,,0,1,1,0,0,119,119,36,832.915899624,9.30104579311e-06,833.40009378,0.484204419024,,,,,z,1,0.467035009457,2018_Nov_14_1402,59.9879751962,chinese_cond1,001,1021,
images/bench02.jpg,electric toothbrush,x,sounds/greatgatsby_english.wav,,,,,,,,,0,1,1,0,0,120,120,172,834.509164577,9.62177182373e-06,835.333949234,0.82479427851,,,,,x,1,0.800462422332,2018_Nov_14_1402,59.9879751962,chinese_cond1,001,1021,
images/candycane01a.jpg,lip,x,sounds/greatgatsby_english.wav,,,,,,,,,0,1,1,0,0,121,121,200,836.428412578,8.98031976249e-06,837.317814485,0.889411849981,,,,,x,1,0.867158617146,2018_Nov_14_1402,59.9879751962,chinese_cond1,001,1021,
images/axe01.jpg,axe,z,sounds/greatgatsby_english.wav,,,,,,,,,0,1,1,0,0,122,122,104,838.420875844,9.62177091424e-06,839.168307874,0.747441971898,,,,,z,1,0.733792206301,2018_Nov_14_1402,59.9879751962,chinese_cond1,001,1021,
images/bicycle.jpg,hand bag,x,sounds/greatgatsby_english.wav,,,,,,,,,0,1,1,0,0,123,123,186,840.278616672,8.98032067198e-06,841.06881106,0.790204010419,,,,,x,1,0.767135172096,2018_Nov_14_1402,59.9879751962,chinese_cond1,001,1021,
images/cookingpot.jpg,grasshopper,x,sounds/greatgatsby_english.wav,,,,,,,,,0,1,1,0,0,124,124,183,842.182444822,9.30104579311e-06,842.952637151,0.770202913537,,,,,x,1,0.750456472871,2018_Nov_14_1402,59.9879751962,chinese_cond1,001,1021,
images/pen03c.jpg,pepper,x,sounds/greatgatsby_english.wav,,,,,,,,,0,1,1,0,0,125,125,211,844.046946226,9.62177091424e-06,844.90315174,0.856216097287,,,,,x,1,0.833809557562,2018_Nov_14_1402,59.9879751962,chinese_cond1,001,1021,
images/seagull.jpg,seagull,z,sounds/greatgatsby_english.wav,,,,,,,,,0,1,1,0,0,126,126,50,846.010765159,9.30104488361e-06,846.687267414,0.676512518406,,,,,z,1,0.667357082218,2018_Nov_14_1402,59.9879751962,chinese_cond1,001,1021,
images/handfan01b.jpg,handfan,z,sounds/greatgatsby_english.wav,,,,,,,,,0,1,1,0,0,127,127,69,847.801217731,9.30104579311e-06,848.520781262,0.719573152563,,,,,z,1,0.700434166397,2018_Nov_14_1402,59.9879751962,chinese_cond1,001,1021,
images/flamingo.jpg,flamingo,z,sounds/greatgatsby_english.wav,,,,,,,,,0,1,1,0,0,128,128,52,849.619039754,9.62177091424e-06,850.304617264,0.68558745244,,,,,z,1,0.667120707367,2018_Nov_14_1402,59.9879751962,chinese_cond1,001,1021,
images/apricot.jpg,apricot,z,sounds/greatgatsby_english.wav,,,,,,,,,0,1,1,0,0,129,129,32,851.421854058,8.98031976249e-06,852.371803527,0.949960053613,,,,,z,1,0.933835889143,2018_Nov_14_1402,59.9879751962,chinese_cond1,001,1021,
images/candy.jpg,candy,z,sounds/greatgatsby_english.wav,,,,,,,,,0,1,1,0,0,130,130,31,853.474418436,9.62177182373e-06,854.405676011,0.931267517638,,,,,z,1,0.917155265563,2018_Nov_14_1402,59.9879751962,chinese_cond1,001,1021,
images/desktopcomputer.jpg,desktop computer,z,sounds/greatgatsby_english.wav,,,,,,,,,0,1,1,0,0,131,131,16,855.541527084,9.30104579311e-06,856.256165872,0.714648409248,,,,,z,1,0.700437694381,2018_Nov_14_1402,59.9879751962,chinese_cond1,001,1021,
images/mailbox01.jpg,mail box,z,sounds/greatgatsby_english.wav,,,,,,,,,0,1,1,0,0,132,132,73,857.375772187,9.62177182373e-06,858.106662467,0.730901184729,,,,,z,1,0.717109979092,2018_Nov_14_1402,59.9879751962,chinese_cond1,001,1021,
images/radio03a.jpg,radio,z,sounds/greatgatsby_english.wav,,,,,,,,,0,1,1,0,0,133,133,37,859.220569487,9.30104579311e-06,859.890467038,0.669908134535,,,,,z,1,0.650426613307,2018_Nov_14_1402,59.9879751962,chinese_cond1,001,1021,
images/mattress.jpg,cat,x,sounds/greatgatsby_english.wav,,,,,,,,,0,1,1,0,0,134,134,147,860.994949532,9.94249694486e-06,861.790803126,0.795864177792,,,,,x,1,0.783615983559,2018_Nov_14_1402,59.9879751962,chinese_cond1,001,1021,
images/carrot02.jpg,corkscrew,x,sounds/greatgatsby_english.wav,,,,,,,,,0,1,1,0,0,135,135,161,862.893504952,9.30104579311e-06,863.708150506,0.814655497287,,,,,x,1,0.800469799024,2018_Nov_14_1402,59.9879751962,chinese_cond1,001,1021,
images/egg01b (1).jpg,egg,z,sounds/greatgatsby_english.wav,,,,,,,,,0,1,1,0,0,136,136,19,864.820602714,9.30104579311e-06,865.475281188,0.6546887373,,,,,x,0,0.633749517709,2018_Nov_14_1402,59.9879751962,chinese_cond1,001,1021,
images/microphone01.jpg,diaper,x,sounds/greatgatsby_english.wav,,,,,,,,,0,1,1,0,0,137,137,164,866.575184361,1.02632229755e-05,867.542497921,0.967324464412,,,,,x,1,0.950387580987,2018_Nov_14_1402,59.9879751962,chinese_cond1,001,1021,
images/cactus.jpg,cactus,z,sounds/greatgatsby_english.wav,,,,,,,,,0,1,1,0,0,138,138,70,868.654511697,9.30104488361e-06,869.526379529,0.871877775279,,,,,z,1,0.850397170686,2018_Nov_14_1402,59.9879751962,chinese_cond1,001,1021,
images/lychee02a.jpg,lychee,z,sounds/greatgatsby_english.wav,,,,,,,,,0,1,1,0,0,139,139,62,870.650343225,9.30104579311e-06,871.376863296,0.726530655445,,,,,z,1,0.717123770298,2018_Nov_14_1402,59.9879751962,chinese_cond1,001,1021,
images/magnifyingglass01b.jpg,magnifying glass,z,sounds/greatgatsby_english.wav,,,,,,,,,0,1,1,0,0,140,140,64,872.483686768,9.62177091424e-06,873.210673174,0.726996349179,,,,,z,1,0.717113507075,2018_Nov_14_1402,59.9879751962,chinese_cond1,001,1021,
images/ladder.jpg,ladder,z,sounds/greatgatsby_english.wav,,,,,,,,,0,1,1,0,0,141,141,113,874.303078101,9.94249694486e-06,874.911143904,0.608076386601,,,,,z,1,0.583756718001,2018_Nov_14_1402,59.9879751962,chinese_cond1,001,1021,
images/bracelet02a.jpg,chess knight,x,sounds/greatgatsby_english.wav,,,,,,,,,0,1,1,0,0,142,142,152,876.020245811,8.98031976249e-06,876.428190636,0.40795412596,,,,,z,0,0.383676472427,2018_Nov_14_1402,59.9879751962,chinese_cond1,001,1021,
images/lamp04b.jpg,parking meter,x,sounds/greatgatsby_english.wav,,,,,,,,,0,1,1,0,0,143,143,209,877.548169314,9.62177091424e-06,878.762161999,1.21400294875,,,,,x,1,1.20058763365,2018_Nov_14_1402,59.9879751962,chinese_cond1,001,1021,
images/licenseplate.jpg,license plate,z,sounds/greatgatsby_english.wav,,,,,,,,,0,1,1,0,0,144,144,40,879.87990137,8.98031976249e-06,881.312863122,1.43297169371,,,,,z,1,1.41731931676,2018_Nov_14_1402,59.9879751962,chinese_cond1,001,1021,
images/calculator02b.jpg,dice,x,sounds/greatgatsby_english.wav,,,,,,,,,0,1,1,0,0,145,145,165,882.415300669,9.62177182373e-06,883.363371007,0.948079959486,,,,,x,1,0.933835568417,2018_Nov_14_1402,59.9879751962,chinese_cond1,001,1021,
images/cauliflower01.jpg,glue stick,x,sounds/greatgatsby_english.wav,,,,,,,,,0,1,1,0,0,146,146,181,884.479540426,9.62177091424e-06,886.014074727,1.53454456468,,,,,x,1,1.51732608408,2018_Nov_14_1402,59.9879751962,chinese_cond1,001,1021,
images/birthdaycandle.jpg,birthday candle,z,sounds/greatgatsby_english.wav,,,,,,,,,0,1,1,0,0,147,147,55,887.11070746,8.98031976249e-06,888.164648714,1.05395119645,,,,,z,1,1.0338606171,2018_Nov_14_1402,59.9879751962,chinese_cond1,001,1021,
images/bat.jpg,hand,x,sounds/greatgatsby_english.wav,,,,,,,,,0,1,1,0,0,148,148,185,889.263129789,9.30104579311e-06,890.015139216,0.752019689993,,,,,x,1,0.733766548245,2018_Nov_14_1402,59.9879751962,chinese_cond1,001,1021,
images/apple06.jpg,apple,z,sounds/greatgatsby_english.wav,,,,,,,,,0,1,1,0,0,149,149,13,891.142763995,9.30104579311e-06,891.848945887,0.706192475839,,,,,z,1,0.683760919508,2018_Nov_14_1402,59.9879751962,chinese_cond1,001,1021,
images/hairdryer03a.jpg,hairdryer,z,sounds/greatgatsby_english.wav,,,,,,,,,0,1,1,0,0,150,150,119,892.948513901,8.98032067198e-06,893.782798454,0.83429449484,,,,,z,1,0.81711257697,2018_Nov_14_1402,59.9879751962,chinese_cond1,001,1021,
images/crocodile.jpg,triangle ruler,x,sounds/greatgatsby_english.wav,,,,,,,,,0,1,1,0,0,151,151,235,894.880177515,8.98031976249e-06,895.783325085,0.903157191841,,,,,x,1,0.88381358267,2018_Nov_14_1402,59.9879751962,chinese_cond1,001,1021,
images/sportshorts02.jpg,tape,x,sounds/greatgatsby_english.wav,,,,,,,,,0,1,1,0,0,152,152,230,896.891255381,8.98031976249e-06,898.317333076,1.42608763702,,,,,x,1,1.41724138042,2018_Nov_14_1402,59.9879751962,chinese_cond1,001,1021,
images/coffeepot03b.jpg,coffee pot,z,sounds/greatgatsby_english.wav,,,,,,,,,0,1,1,0,0,153,153,107,899.439154323,9.30104579311e-06,900.167830634,0.728686573684,,,,,z,1,0.717111261994,2018_Nov_14_1402,59.9879751962,chinese_cond1,001,1021,
images/lip.jpg,boxing glove,x,sounds/greatgatsby_english.wav,,,,,,,,,0,1,1,0,0,154,154,136,901.270986607,9.30104579311e-06,902.18504719,0.914071167111,,,,,x,1,0.900498375685,2018_Nov_14_1402,59.9879751962,chinese_cond1,001,1021,
images/cupcake.jpg,scissors,x,sounds/greatgatsby_english.wav,,,,,,,,,0,1,1,0,0,155,155,219,903.30457589,8.65959373186e-06,904.185585047,0.881018778811,,,,,z,0,0.867166314563,2018_Nov_14_1402,59.9879751962,chinese_cond1,001,1021,
images/binder03b.jpg,dj mixer,x,sounds/greatgatsby_english.wav,,,,,,,,,0,1,1,0,0,156,156,167,905.297313698,9.30104579311e-06,906.619574083,1.32227000679,,,,,x,1,1.30062294555,2018_Nov_14_1402,59.9879751962,chinese_cond1,001,1021,
images/coin01b.jpg,arrow,x,sounds/greatgatsby_english.wav,,,,,,,,,0,1,1,0,0,157,157,124,907.721018663,9.62177091424e-06,908.603391867,0.882383787443,,,,,x,1,0.867140015054,2018_Nov_14_1402,59.9879751962,chinese_cond1,001,1021,
images/parkingmeter.jpg,ear,x,sounds/greatgatsby_english.wav,,,,,,,,,0,1,1,0,0,158,158,171,909.705092066,9.62177182373e-06,910.503907241,0.798825438296,,,,,x,1,0.783785326735,2018_Nov_14_1402,59.9879751962,chinese_cond1,001,1021,
images/lightbulb03b.jpg,treadmill,x,sounds/greatgatsby_english.wav,,,,,,,,,0,1,1,0,0,159,159,234,911.608503593,1.09046741272e-05,912.354401592,0.745908902993,,,,,x,1,0.733767831147,2018_Nov_14_1402,59.9879751962,chinese_cond1,001,1021,
images/cat.jpg,black olive,x,sounds/greatgatsby_english.wav,,,,,,,,,0,1,1,0,0,160,160,133,913.484003324,8.98031976249e-06,914.204893697,0.720900636288,,,,,x,1,0.700432562769,2018_Nov_14_1402,59.9879751962,chinese_cond1,001,1021,
images/gluestick.jpg,squirrel,x,sounds/greatgatsby_english.wav,,,,,,,,,0,1,1,0,0,161,161,226,915.310887131,9.30104579311e-06,915.955362678,0.644485490208,,,,,x,1,0.633766516172,2018_Nov_14_1402,59.9879751962,chinese_cond1,001,1021,
images/notebook02b.jpg,notebook,z,sounds/greatgatsby_english.wav,,,,,,,,,0,1,1,0,0,162,162,7,917.060429535,9.94249694486e-06,917.77249963,0.712079717017,,,,,x,0,0.700433524946,2018_Nov_14_1402,59.9879751962,chinese_cond1,001,1021,
images/hairpin.jpg,hair pin,z,sounds/greatgatsby_english.wav,,,,,,,,,0,1,1,0,0,163,163,28,918.862140222,9.30104579311e-06,919.806376925,0.944246325044,,,,,x,0,0.933837492772,2018_Nov_14_1402,59.9879751962,chinese_cond1,001,1021,
images/cherry01.jpg,highlighter,x,sounds/greatgatsby_english.wav,,,,,,,,,0,1,1,0,0,164,164,187,920.916280967,8.98031976249e-06,921.673549654,0.757277988048,,,,,x,1,0.733785791786,2018_Nov_14_1402,59.9879751962,chinese_cond1,001,1021,
images/triangleruler02.jpg,bottle of red wine,x,sounds/greatgatsby_english.wav,,,,,,,,,0,1,1,0,0,165,165,134,922.783558894,9.30104488361e-06,923.824137432,1.04058912182,,,,,x,1,1.01721431117,2018_Nov_14_1402,59.9879751962,chinese_cond1,001,1021,
images/rubberglove02a.jpg,lady bug,x,sounds/greatgatsby_english.wav,,,,,,,,,0,1,1,0,0,166,166,192,924.927337986,9.94249785435e-06,925.707949411,0.780621688307,,,,,z,0,0.767121701617,2018_Nov_14_1402,59.9879751962,chinese_cond1,001,1021,
images/aloe02.jpg,broad sword,x,sounds/greatgatsby_english.wav,,,,,,,,,0,1,1,0,0,167,167,137,926.828585898,9.30104579311e-06,927.775170634,0.946594678711,,,,,x,1,0.933842624383,2018_Nov_14_1402,59.9879751962,chinese_cond1,001,1021,
images/tent.jpg,tent,z,sounds/greatgatsby_english.wav,,,,,,,,,0,1,1,0,0,168,168,11,928.900043266,9.30104579311e-06,929.692349313,0.79231566851,,,,,z,1,0.783806815357,2018_Nov_14_1402,59.9879751962,chinese_cond1,001,1021,
images/djmixer01.jpg,light bulb,x,sounds/greatgatsby_english.wav,,,,,,,,,0,1,1,0,0,169,169,196,930.812540953,9.94249694486e-06,931.59285282,0.780322771942,,,,,x,1,0.767130040485,2018_Nov_14_1402,59.9879751962,chinese_cond1,001,1021,
images/drink.jpg,drink,z,sounds/greatgatsby_english.wav,,,,,,,,,0,1,1,0,0,170,170,117,932.691767837,9.94249694486e-06,933.393326468,0.701568573242,,,,,z,1,0.683773427811,2018_Nov_14_1402,59.9879751962,chinese_cond1,001,1021,
images/backpack01b.jpg,swallow,x,sounds/greatgatsby_english.wav,,,,,,,,,0,1,1,0,0,171,171,228,934.524579938,8.65959373186e-06,936.627512686,2.10294493556,,,,,x,1,2.08411961914,2018_Nov_14_1402,59.9879751962,chinese_cond1,001,1021,
images/daisy.jpg,daisy,z,sounds/greatgatsby_english.wav,,,,,,,,,0,1,1,0,0,172,172,6,937.730681488,1.0263222066e-05,938.861443926,1.13077206056,,,,,z,1,1.11721241888,2018_Nov_14_1402,59.9879751962,chinese_cond1,001,1021,
images/kiwi03.jpg,backpack,x,sounds/greatgatsby_english.wav,,,,,,,,,0,1,1,0,0,173,173,125,939.990307348,9.30104579311e-06,940.761938133,0.771640406179,,,,,x,1,0.750444285293,2018_Nov_14_1402,59.9879751962,chinese_cond1,001,1021,
images/croissant02b.jpg,croissant,z,sounds/greatgatsby_english.wav,,,,,,,,,0,1,1,0,0,174,174,39,941.87456674,9.30104579311e-06,943.529350412,1.65479361461,,,,,z,1,1.63402149311,2018_Nov_14_1402,59.9879751962,chinese_cond1,001,1021,
images/lantern03.jpg,lantern,z,sounds/greatgatsby_english.wav,,,,,,,,,0,1,1,0,0,175,175,5,944.635814029,9.30104579311e-06,945.363444774,0.727641007862,,,,,z,1,0.71739061409,2018_Nov_14_1402,59.9879751962,chinese_cond1,001,1021,
images/medal01.jpg,medal,z,sounds/greatgatsby_english.wav,,,,,,,,,0,1,1,0,0,176,176,115,946.465052925,9.30104488361e-06,947.263676947,0.798633965045,,,,,z,1,0.78379013762,2018_Nov_14_1402,59.9879751962,chinese_cond1,001,1021,
images/comb02a.jpg,diploma,x,sounds/greatgatsby_english.wav,,,,,,,,,0,1,1,0,0,177,177,166,948.368613269,8.65959464136e-06,949.014153626,0.645549978848,,,,,x,1,0.633757856577,2018_Nov_14_1402,59.9879751962,chinese_cond1,001,1021,
images/camera01a.jpg,bull,x,sounds/greatgatsby_english.wav,,,,,,,,,0,1,1,0,0,178,178,138,950.125302084,9.30104579311e-06,950.831279673,0.705987211382,,,,,x,1,0.683760278057,2018_Nov_14_1402,59.9879751962,chinese_cond1,001,1021,
images/butterfly.jpg,butterfly,z,sounds/greatgatsby_english.wav,,,,,,,,,0,1,1,0,0,179,179,91,951.937152514,8.98031976249e-06,952.731786708,0.794644457907,,,,,x,0,0.783780195124,2018_Nov_14_1402,59.9879751962,chinese_cond1,001,1021,
images/shotglass.jpg,shot glass,z,sounds/greatgatsby_english.wav,,,,,,,,,0,1,1,0,0,180,180,86,953.838772467,9.30104579311e-06,954.73232649,0.89356428578,,,,,z,1,0.883831222583,2018_Nov_14_1402,59.9879751962,chinese_cond1,001,1021,
images/feather03b.jpg,feather,z,sounds/greatgatsby_english.wav,,,,,,,,,0,1,1,0,0,181,181,114,955.832518637,9.62177182373e-06,957.666434354,1.833925981,,,,,z,1,1.81739770213,2018_Nov_14_1402,59.9879751962,chinese_cond1,001,1021,
images/peach01.jpg,peach,z,sounds/greatgatsby_english.wav,,,,,,,,,0,1,1,0,0,182,182,106,958.795952698,9.62177091424e-06,959.38356486,0.587622425013,,,,,z,1,0.567079943129,2018_Nov_14_1402,59.9879751962,chinese_cond1,001,1021,
images/elbow.jpg,elbow,z,sounds/greatgatsby_english.wav,,,,,,,,,0,1,1,0,0,183,183,105,960.494058717,9.62177091424e-06,961.134018767,0.639969672176,,,,,x,0,0.617078515899,2018_Nov_14_1402,59.9879751962,chinese_cond1,001,1021,
images/arrow02.jpg,hammer,x,sounds/greatgatsby_english.wav,,,,,,,,,0,1,1,0,0,184,184,184,962.230941757,9.62177182373e-06,963.017864101,0.786932928877,,,,,x,1,0.76713934153,2018_Nov_14_1402,59.9879751962,chinese_cond1,001,1021,
images/banana04a.jpg,banana,z,sounds/greatgatsby_english.wav,,,,,,,,,0,1,1,0,0,185,185,118,964.123199406,9.30104579311e-06,964.734977288,0.611787503821,,,,,z,1,0.600417456588,2018_Nov_14_1402,59.9879751962,chinese_cond1,001,1021,
images/showerhead01.jpg,skateboard,x,sounds/greatgatsby_english.wav,,,,,,,,,0,1,1,0,0,186,186,223,965.842581727,9.30104579311e-06,966.668833383,0.826261598644,,,,,x,1,0.817058374325,2018_Nov_14_1402,59.9879751962,chinese_cond1,001,1021,
images/masquerademask02b.jpg,mirror,x,sounds/greatgatsby_english.wav,,,,,,,,,0,1,1,0,0,187,187,204,967.774305316,8.98031976249e-06,968.586000515,0.811705141457,,,,,x,1,0.800464346686,2018_Nov_14_1402,59.9879751962,chinese_cond1,001,1021,
images/grandpiano.jpg,tulip,x,sounds/greatgatsby_english.wav,,,,,,,,,0,1,1,0,0,188,188,236,969.701163817,8.65959464136e-06,970.536512217,0.835358021302,,,,,x,1,0.817128613256,2018_Nov_14_1402,59.9879751962,chinese_cond1,001,1021,
images/eyedrops.jpg,bicycle,x,sounds/greatgatsby_english.wav,,,,,,,,,0,1,1,0,0,189,189,131,971.635396444,8.98031976249e-06,972.620458965,0.985073104615,,,,,x,1,0.967229529601,2018_Nov_14_1402,59.9879751962,chinese_cond1,001,1021,
images/belt02a.jpg,snowman,x,sounds/greatgatsby_english.wav,,,,,,,,,0,1,1,0,0,190,190,224,973.724548571,9.30104579311e-06,974.804312735,1.07977474792,,,,,x,1,1.06719973418,2018_Nov_14_1402,59.9879751962,chinese_cond1,001,1021,
images/screw03c.jpg,screw,z,sounds/greatgatsby_english.wav,,,,,,,,,0,1,1,0,0,191,191,84,975.896820614,1.0263222066e-05,976.671566607,0.774787687596,,,,,x,0,0.750452303436,2018_Nov_14_1402,59.9879751962,chinese_cond1,001,1021,
images/scooter.jpg,pen,x,sounds/greatgatsby_english.wav,,,,,,,,,0,1,1,0,0,192,192,212,977.762914101,8.98032067198e-06,978.555313158,0.792408999692,,,,,x,1,0.783758385774,2018_Nov_14_1402,59.9879751962,chinese_cond1,001,1021,
images/dreamcatcher.jpg,dream catcher,z,sounds/greatgatsby_english.wav,,,,,,,,,0,1,1,0,0,193,193,48,979.651674557,8.98031976249e-06,980.472503383,0.820838447572,,,,,z,1,0.800467553944,2018_Nov_14_1402,59.9879751962,chinese_cond1,001,1021,
images/mitten01.jpg,mitten,z,sounds/greatgatsby_english.wav,,,,,,,,,0,1,1,0,0,194,194,102,981.592210086,9.62177182373e-06,982.322989715,0.730789251455,,,,,z,1,0.717118959412,2018_Nov_14_1402,59.9879751962,chinese_cond1,001,1021,
images/ladybug03.jpg,giraffe,x,sounds/greatgatsby_english.wav,,,,,,,,,0,1,1,0,0,195,195,178,983.424468614,8.98031976249e-06,984.273508152,0.849049481242,,,,,x,1,0.833815972076,2018_Nov_14_1402,59.9879751962,chinese_cond1,001,1021,
images/blueberry02.jpg,blueberry,z,sounds/greatgatsby_english.wav,,,,,,,,,0,1,1,0,0,196,196,46,985.386527724,9.30104579311e-06,986.457242291,1.07072483049,,,,,z,1,1.05036644516,2018_Nov_14_1402,59.9879751962,chinese_cond1,001,1021,
images/treadmill.jpg,lily,x,sounds/greatgatsby_english.wav,,,,,,,,,0,1,1,0,0,197,197,199,987.56181042,9.62177182373e-06,988.307895401,0.746095886084,,,,,x,1,0.733773924935,2018_Nov_14_1402,59.9879751962,chinese_cond1,001,1021,
images/lily.jpg,kiwi,x,sounds/greatgatsby_english.wav,,,,,,,,,0,1,1,0,0,198,198,190,989.406072749,8.98032067198e-06,990.425139251,1.0190758032,,,,,x,1,1.00052470726,2018_Nov_14_1402,59.9879751962,chinese_cond1,001,1021,
images/dice05a.jpg,band aid,x,sounds/greatgatsby_english.wav,,,,,,,,,0,1,1,0,0,199,199,126,991.536583418,9.62177091424e-06,992.392331897,0.855759383873,,,,,x,1,0.833794804179,2018_Nov_14_1402,59.9879751962,chinese_cond1,001,1021,
images/tie01.jpg,bench,x,sounds/greatgatsby_english.wav,,,,,,,,,0,1,1,0,0,200,200,130,993.489356878,9.62177182373e-06,994.226140813,0.736793878244,,,,,x,1,0.717091056275,2018_Nov_14_1402,59.9879751962,chinese_cond1,001,1021,
images/worldmap.jpg,scooter,x,sounds/greatgatsby_english.wav,,,,,,,,,0,1,1,0,0,201,201,220,995.356759888,9.94249694486e-06,996.009962061,0.653212436845,,,,,x,1,0.633767157623,2018_Nov_14_1402,59.9879751962,chinese_cond1,001,1021,
images/sock03.jpg,sock,z,sounds/greatgatsby_english.wav,,,,,,,,,0,1,1,0,0,202,202,90,997.114943926,9.62177091424e-06,997.593701139,0.478767156019,,,,,x,0,0.467038537439,2018_Nov_14_1402,59.9879751962,chinese_cond1,001,1021,
images/diaper01a.jpg,camera,x,sounds/greatgatsby_english.wav,,,,,,,,,0,1,1,0,0,203,203,143,998.712293,9.30104579311e-06,999.527538632,0.815255254369,,,,,z,0,0.80045215911,2018_Nov_14_1402,59.9879751962,chinese_cond1,001,1021,
images/bullet (2).jpg,rubber glove,x,sounds/greatgatsby_english.wav,,,,,,,,,0,1,1,0,0,204,204,217,1000.63303366,8.98032067198e-06,1001.42804631,0.795022272798,,,,,x,1,0.783790779072,2018_Nov_14_1402,59.9879751962,chinese_cond1,001,1021,
images/paintbrush03a.jpg,paint brush,z,sounds/greatgatsby_english.wav,,,,,,,,,0,1,1,0,0,205,205,0,1002.52707005,9.94249694486e-06,1003.41190771,0.884847602367,,,,,x,0,0.867136166346,2018_Nov_14_1402,59.9879751962,chinese_cond1,001,1021,
images/flower01.jpg,bus,x,sounds/greatgatsby_english.wav,,,,,,,,,0,1,1,0,0,206,206,140,1004.52669865,9.62177091424e-06,1005.2957524,0.769063695805,,,,,z,0,0.750453907064,2018_Nov_14_1402,59.9879751962,chinese_cond1,001,1021,
images/bowtie.jpg,bowtie,z,sounds/greatgatsby_english.wav,,,,,,,,,0,1,1,0,0,207,207,89,1006.40677386,8.98031976249e-06,1007.32962393,0.922859693084,,,,,z,1,0.900494206251,2018_Nov_14_1402,59.9879751962,chinese_cond1,001,1021,
images/gamecontroller01.jpg,game controller,z,sounds/greatgatsby_english.wav,,,,,,,,,0,1,1,0,0,208,208,112,1008.44820552,9.30104579311e-06,1009.21346734,0.765271755708,,,,,z,1,0.750462566659,2018_Nov_14_1402,59.9879751962,chinese_cond1,001,1021,
images/bandaid01.jpg,door handle,x,sounds/greatgatsby_english.wav,,,,,,,,,0,1,1,0,0,209,209,170,1010.32131136,8.98031976249e-06,1011.04727818,0.725976441413,,,,,x,1,0.717086566115,2018_Nov_14_1402,59.9879751962,chinese_cond1,001,1021,
images/lemon02.jpg,lemon,z,sounds/greatgatsby_english.wav,,,,,,,,,0,1,1,0,0,210,210,14,1012.15768704,9.30104579311e-06,1012.74771748,0.590040055435,,,,,z,1,0.567043701123,2018_Nov_14_1402,59.9879751962,chinese_cond1,001,1021,
images/printer03a.jpg,printer,z,sounds/greatgatsby_english.wav,,,,,,,,,0,1,1,0,0,211,211,72,1013.85716833,8.98031976249e-06,1014.64823285,0.791074780728,,,,,z,1,0.7671252296,2018_Nov_14_1402,59.9879751962,chinese_cond1,001,1021,
images/gps.jpg,gps,z,sounds/greatgatsby_english.wav,,,,,,,,,0,1,1,0,0,212,212,21,1015.76644497,9.30104579311e-06,1016.49872592,0.732290889241,,,,,z,1,0.717108375464,2018_Nov_14_1402,59.9879751962,chinese_cond1,001,1021,
images/dragonfly02.jpg,dragon fly,z,sounds/greatgatsby_english.wav,,,,,,,,,0,1,1,0,0,213,213,29,1017.5945222,9.30104579311e-06,1018.51592644,0.92141482375,,,,,z,1,0.90048747101,2018_Nov_14_1402,59.9879751962,chinese_cond1,001,1021,
images/nametag01a.jpg,name tag,z,sounds/greatgatsby_english.wav,,,,,,,,,0,1,1,0,0,214,214,108,1019.63544872,9.30104579311e-06,1020.39977177,0.764332991547,,,,,z,1,0.750455189967,2018_Nov_14_1402,59.9879751962,chinese_cond1,001,1021,
images/cockroach02.jpg,belt,x,sounds/greatgatsby_english.wav,,,,,,,,,0,1,1,0,0,215,215,129,1021.50030164,9.30104579311e-06,1022.15023755,0.649945845464,,,,,x,1,0.633765233269,2018_Nov_14_1402,59.9879751962,chinese_cond1,001,1021,
images/beermug01b.jpg,beer mug,z,sounds/greatgatsby_english.wav,,,,,,,,,0,1,1,0,0,216,216,111,1023.26547429,9.62177182373e-06,1023.80065807,0.535193713519,,,,,z,1,0.517048656336,2018_Nov_14_1402,59.9879751962,chinese_cond1,001,1021,
images/50dollarbill.jpg,cherry,x,sounds/greatgatsby_english.wav,,,,,,,,,0,1,1,0,0,217,217,151,1024.92131251,8.98031976249e-06,1025.58446328,0.663160706995,,,,,x,1,0.650420840244,2018_Nov_14_1402,59.9879751962,chinese_cond1,001,1021,
images/pipe.jpg,icecube,x,sounds/greatgatsby_english.wav,,,,,,,,,0,1,1,0,0,218,218,188,1026.69236599,9.62177182373e-06,1027.46831118,0.775955449916,,,,,x,1,0.767126512502,2018_Nov_14_1402,59.9879751962,chinese_cond1,001,1021,
images/hanger02a.jpg,hanger,z,sounds/greatgatsby_english.wav,,,,,,,,,0,1,1,0,0,219,219,88,1028.56084953,9.62177182373e-06,1029.08540413,0.524564221957,,,,,z,1,0.500388238474,2018_Nov_14_1402,59.9879751962,chinese_cond1,001,1021,
images/candle08a.jpg,screw driver,x,sounds/greatgatsby_english.wav,,,,,,,,,0,1,1,0,0,220,220,221,1030.19771169,8.98031976249e-06,1031.0525833,0.854881557598,,,,,x,1,0.833756958546,2018_Nov_14_1402,59.9879751962,chinese_cond1,001,1021,
images/bottleofredwine02.jpg,pipe,x,sounds/greatgatsby_english.wav,,,,,,,,,0,1,1,0,0,221,221,213,1032.14985011,9.30104579311e-06,1032.93641613,0.786575961159,,,,,x,1,0.767112079845,2018_Nov_14_1402,59.9879751962,chinese_cond1,001,1021,
images/lion.jpg,lion,z,sounds/greatgatsby_english.wav,,,,,,,,,0,1,1,0,0,222,222,44,1034.04778364,8.98031976249e-06,1034.98697148,0.939197781604,,,,,z,1,0.917167132414,2018_Nov_14_1402,59.9879751962,chinese_cond1,001,1021,
images/screwdriver02b.jpg,cola,x,sounds/greatgatsby_english.wav,,,,,,,,,0,1,1,0,0,223,223,158,1036.07979656,8.98031976249e-06,1037.25423093,1.17444431865,,,,,x,1,1.15055121525,2018_Nov_14_1402,59.9879751962,chinese_cond1,001,1021,
images/envelope02a.jpg,grand piano,x,sounds/greatgatsby_english.wav,,,,,,,,,0,1,1,0,0,224,224,182,1038.3761067,9.30104579311e-06,1039.03804801,0.661951250333,,,,,x,1,0.65043238637,2018_Nov_14_1402,59.9879751962,chinese_cond1,001,1021,
images/aquarium.jpg,computer mouse,x,sounds/greatgatsby_english.wav,,,,,,,,,0,1,1,0,0,225,225,159,1040.17382339,9.30104579311e-06,1041.12192901,0.948115560041,,,,,z,0,0.933749293201,2018_Nov_14_1402,59.9879751962,chinese_cond1,001,1021,
images/bull.jpg,button,x,sounds/greatgatsby_english.wav,,,,,,,,,0,1,1,0,0,226,226,141,1042.22667194,9.30104488361e-06,1042.9390804,0.712418082643,,,,,x,1,0.700418130112,2018_Nov_14_1402,59.9879751962,chinese_cond1,001,1021,
images/paperclip04.jpg,eye drops,x,sounds/greatgatsby_english.wav,,,,,,,,,0,1,1,0,0,227,227,174,1044.04436278,9.30104488361e-06,1044.73955052,0.695197356963,,,,,x,1,0.683770220553,2018_Nov_14_1402,59.9879751962,chinese_cond1,001,1021,
images/bowlingball.jpg,bowling ball,z,sounds/greatgatsby_english.wav,,,,,,,,,0,1,1,0,0,228,228,20,1045.87007882,8.98031976249e-06,1046.59005224,0.719983040024,,,,,z,1,0.700441863813,2018_Nov_14_1402,59.9879751962,chinese_cond1,001,1021,
