images,name,corrAns,sounds,trials_3.thisRepN,trials_3.thisTrialN,trials_3.thisN,trials_3.thisIndex,trials_4.thisRepN,trials_4.thisTrialN,trials_4.thisN,trials_4.thisIndex,trials_2.thisRepN,trials_2.thisTrialN,trials_2.thisN,trials_2.thisIndex,trials.thisRepN,trials.thisTrialN,trials.thisN,trials.thisIndex,begin_global,begin_routine,end_global,end_routine,key_resp_2.keys,key_resp_2.corr,key_resp_2.rt,begin_book,key_resp_1.keys,key_resp_1.corr,key_resp_1.rt,date,frameRate,expName,session,participant,
images/volleyball.jpg,volley ball,z,,0,0,0,0,,,,,,,,,,,,,,,,,,,,,,,,2018_Nov_14_1402,59.9949394058,spanish_cond1,001,1023,
images/puma.jpg,puma,z,,,,,,0,0,0,0,,,,,,,,,48.1626370412,1.05838989839e-05,49.9211083952,1.7584829001,z,1,1.73405434156,,,,,2018_Nov_14_1402,59.9949394058,spanish_cond1,001,1023,
images/chessknight02b (1).jpg,cockroach,x,sounds/greatgatsby_english.wav,,,,,,,,,0,0,0,0,0,0,0,155,92.0775291706,9.94245056063e-06,93.4657010104,1.38818242378,,,,81.9179592096,x,1,1.36726386484,2018_Nov_14_1402,59.9949394058,spanish_cond1,001,1023,
images/spoon02b.jpg,spoon,z,sounds/greatgatsby_english.wav,,,,,,,,,0,0,0,0,0,1,1,38,94.5609023751,8.98027792573e-06,95.4995707113,0.938678920036,,,,,z,1,0.917158362805,2018_Nov_14_1402,59.9949394058,spanish_cond1,001,1023,
images/globe.jpg,cloud,x,sounds/greatgatsby_english.wav,,,,,,,,,0,0,0,0,0,2,2,154,96.6290272868,9.30100213736e-06,97.9669090161,1.33789199253,,,,,x,1,1.31729223276,2018_Nov_14_1402,59.9949394058,spanish_cond1,001,1023,
images/lightswitch02a.jpg,fork,x,sounds/greatgatsby_english.wav,,,,,,,,,0,0,0,0,0,3,3,177,99.0815680436,8.98027792573e-06,100.267434458,1.18587571511,,,,,x,1,1.16717624315,2018_Nov_14_1402,59.9949394058,spanish_cond1,001,1023,
images/bicycle.jpg,hand bag,x,sounds/greatgatsby_english.wav,,,,,,,,,0,0,0,0,0,4,4,186,101.37687916,9.621726349e-06,102.234621862,0.857752644457,,,,,x,1,0.833774702507,2018_Nov_14_1402,59.9949394058,spanish_cond1,001,1023,
images/electricguitar02.jpg,electric guitar,z,sounds/greatgatsby_english.wav,,,,,,,,,0,0,0,0,0,5,5,100,103.335817231,9.621726349e-06,104.485208065,1.14940045518,,,,,z,1,1.13379821158,2018_Nov_14_1402,59.9949394058,spanish_cond1,001,1023,
images/volleyball.jpg,volley ball,z,sounds/greatgatsby_english.wav,,,,,,,,,0,0,0,0,0,6,6,2,105.617030618,9.621726349e-06,106.402394651,0.785373654333,,,,,z,1,0.76711838448,2018_Nov_14_1402,59.9949394058,spanish_cond1,001,1023,
images/gluestick.jpg,squirrel,x,sounds/greatgatsby_english.wav,,,,,,,,,0,0,0,0,0,7,7,226,107.509059321,9.621726349e-06,108.486096469,0.977047411609,,,,,x,1,0.966986631276,2018_Nov_14_1402,59.9949394058,spanish_cond1,001,1023,
images/swallow.jpg,mattress,x,sounds/greatgatsby_english.wav,,,,,,,,,0,0,0,0,0,8,8,202,109.58702243,8.98027792573e-06,110.686822972,1.09981016372,,,,,x,1,1.08384838875,2018_Nov_14_1402,59.9949394058,spanish_cond1,001,1023,
images/razor04a.jpg,razor,z,sounds/greatgatsby_english.wav,,,,,,,,,0,0,0,0,0,9,9,36,111.785124773,8.98027792573e-06,112.704019854,0.918904702994,,,,,z,1,0.900472393841,2018_Nov_14_1402,59.9949394058,spanish_cond1,001,1023,
images/notebook02b.jpg,notebook,z,sounds/greatgatsby_english.wav,,,,,,,,,0,0,0,0,0,10,10,7,113.809796119,9.621726349e-06,115.321354519,1.51156834187,,,,,z,1,1.50060119655,2018_Nov_14_1402,59.9949394058,spanish_cond1,001,1023,
images/plant01.jpg,plant,z,sounds/greatgatsby_english.wav,,,,,,,,,0,0,0,0,0,11,11,47,116.431209106,9.30100213736e-06,117.138515736,0.707316893269,,,,,z,1,0.683765513822,2018_Nov_14_1402,59.9949394058,spanish_cond1,001,1023,
images/lipstick04.jpg,lipstick,z,sounds/greatgatsby_english.wav,,,,,,,,,0,0,0,0,0,12,12,56,118.236542676,9.621726349e-06,118.988969993,0.752437259303,,,,,z,1,0.733760879259,2018_Nov_14_1402,59.9949394058,spanish_cond1,001,1023,
images/lettuce.jpg,mushroom,x,sounds/greatgatsby_english.wav,,,,,,,,,0,0,0,0,0,13,13,205,120.114011486,9.621726349e-06,121.056177635,0.942175770062,,,,,x,1,0.933812580071,2018_Nov_14_1402,59.9949394058,spanish_cond1,001,1023,
images/printer03a.jpg,printer,z,sounds/greatgatsby_english.wav,,,,,,,,,0,0,0,0,0,14,14,72,122.165183908,9.30100213736e-06,123.423455932,1.25828196679,,,,,z,1,1.23388836696,2018_Nov_14_1402,59.9949394058,spanish_cond1,001,1023,
images/battery03b.jpg,battery,z,sounds/greatgatsby_english.wav,,,,,,,,,0,0,0,0,0,15,15,34,124.530704639,9.30100213736e-06,125.457318898,0.926624521497,,,,,z,1,0.917109292117,2018_Nov_14_1402,59.9949394058,spanish_cond1,001,1023,
images/egg01b (1).jpg,egg,z,sounds/greatgatsby_english.wav,,,,,,,,,0,0,0,0,0,16,16,19,126.568322958,9.30100213736e-06,127.824597837,1.25628449977,,,,,z,1,1.23389510217,2018_Nov_14_1402,59.9949394058,spanish_cond1,001,1023,
images/handfan01b.jpg,handfan,z,sounds/greatgatsby_english.wav,,,,,,,,,0,0,0,0,0,17,17,69,128.937159973,9.621726349e-06,130.508622495,1.57147246471,,,,,z,1,1.55063536961,2018_Nov_14_1402,59.9949394058,spanish_cond1,001,1023,
images/pipe.jpg,icecube,x,sounds/greatgatsby_english.wav,,,,,,,,,0,0,0,0,0,18,18,188,131.615602436,9.30100213736e-06,133.309363944,1.69377177116,,,,,x,1,1.68401439535,2018_Nov_14_1402,59.9949394058,spanish_cond1,001,1023,
images/chameleon.jpg,50 dollar bill,x,sounds/greatgatsby_english.wav,,,,,,,,,0,0,0,0,0,19,19,120,134.419066187,9.30100213736e-06,135.259854475,0.840798550635,,,,,x,1,0.817101883236,2018_Nov_14_1402,59.9949394058,spanish_cond1,001,1023,
images/charcoalbarbecue.jpg,charcoal barbecue,z,sounds/greatgatsby_english.wav,,,,,,,,,0,0,0,0,0,20,20,77,136.375253412,9.621726349e-06,137.293733477,0.918490007403,,,,,z,1,0.900487788604,2018_Nov_14_1402,59.9949394058,spanish_cond1,001,1023,
images/cigar.jpg,crocodile,x,sounds/greatgatsby_english.wav,,,,,,,,,0,0,0,0,0,21,21,162,138.390367835,9.30100213736e-06,140.444531966,2.05417375336,,,,,x,1,2.03409388673,2018_Nov_14_1402,59.9949394058,spanish_cond1,001,1023,
images/cactus.jpg,cactus,z,sounds/greatgatsby_english.wav,,,,,,,,,0,0,0,0,0,22,22,70,141.55493467,9.621726349e-06,142.311678927,0.756754199625,,,,,z,1,0.733761200099,2018_Nov_14_1402,59.9949394058,spanish_cond1,001,1023,
images/thumbtack02a.jpg,thumb tack,z,sounds/greatgatsby_english.wav,,,,,,,,,0,0,0,0,0,23,23,60,143.422072651,8.98027792573e-06,144.412250168,0.99018681841,,,,,z,1,0.967173613142,2018_Nov_14_1402,59.9949394058,spanish_cond1,001,1023,
images/diaper01a.jpg,camera,x,sounds/greatgatsby_english.wav,,,,,,,,,0,0,0,0,0,24,24,143,145.530626062,8.98027792573e-06,147.279639276,1.74902315589,,,,,x,1,1.73402515566,2018_Nov_14_1402,59.9949394058,spanish_cond1,001,1023,
images/cherry01.jpg,highlighter,x,sounds/greatgatsby_english.wav,,,,,,,,,0,0,0,0,0,25,25,187,148.386885738,9.621726349e-06,149.246809682,0.859933565254,,,,,x,1,0.850451691193,2018_Nov_14_1402,59.9949394058,spanish_cond1,001,1023,
images/rubberglove02a.jpg,lady bug,x,sounds/greatgatsby_english.wav,,,,,,,,,0,0,0,0,0,26,26,192,150.349822271,9.94245056063e-06,151.464049925,1.11423759663,,,,,x,1,1.10050805833,2018_Nov_14_1402,59.9949394058,spanish_cond1,001,1023,
images/butterfly.jpg,butterfly,z,sounds/greatgatsby_english.wav,,,,,,,,,0,0,0,0,0,27,27,91,152.569960573,9.621726349e-06,154.564859464,1.99490883271,,,,,z,1,1.9840802399,2018_Nov_14_1402,59.9949394058,spanish_cond1,001,1023,
images/blueberry02.jpg,blueberry,z,sounds/greatgatsby_english.wav,,,,,,,,,0,0,0,0,0,28,28,46,155.676511707,9.30088572204e-06,156.948817315,1.27231523022,,,,,z,1,1.25056856289,2018_Nov_14_1402,59.9949394058,spanish_cond1,001,1023,
images/beachumbrella01.jpg,beach umbrella,z,sounds/greatgatsby_english.wav,,,,,,,,,0,0,0,0,0,29,29,92,158.053509535,9.30100213736e-06,159.466184662,1.4126850696,,,,,z,1,1.40065280104,2018_Nov_14_1402,59.9949394058,spanish_cond1,001,1023,
images/scissors04a.jpg,leek,x,sounds/greatgatsby_english.wav,,,,,,,,,0,0,0,0,0,30,30,194,160.558787523,9.30100213736e-06,161.199916676,0.641139094951,,,,,x,1,0.617071350454,2018_Nov_14_1402,59.9949394058,spanish_cond1,001,1023,
images/scooter.jpg,pen,x,sounds/greatgatsby_english.wav,,,,,,,,,0,0,0,0,0,31,31,212,162.290950557,9.62160993367e-06,163.383816413,1.09287579742,,,,,x,1,1.0838570483,2018_Nov_14_1402,59.9949394058,spanish_cond1,001,1023,
images/mitten01.jpg,mitten,z,sounds/greatgatsby_english.wav,,,,,,,,,0,0,0,0,0,32,32,102,164.502597701,9.30100213736e-06,165.250973957,0.748386519495,,,,,z,1,0.733767935308,2018_Nov_14_1402,59.9949394058,spanish_cond1,001,1023,
images/toucan.jpg,toucan,z,sounds/greatgatsby_english.wav,,,,,,,,,0,0,0,0,0,33,33,81,166.350214195,9.621726349e-06,167.434865035,1.08466110262,,,,,z,1,1.06717364525,2018_Nov_14_1402,59.9949394058,spanish_cond1,001,1023,
images/safe.jpg,safe,z,sounds/greatgatsby_english.wav,,,,,,,,,0,0,0,0,0,34,34,78,168.544395691,8.98027792573e-06,170.335615496,1.79122942686,,,,,z,1,1.76734064601,2018_Nov_14_1402,59.9949394058,spanish_cond1,001,1023,
images/weight01.jpg,weight,z,sounds/greatgatsby_english.wav,,,,,,,,,0,0,0,0,0,35,35,67,171.438903266,9.30088572204e-06,172.486194611,1.04730096611,,,,,z,1,1.03386168275,2018_Nov_14_1402,59.9949394058,spanish_cond1,001,1023,
images/lock02a.jpg,lock,z,sounds/greatgatsby_english.wav,,,,,,,,,0,0,0,0,0,36,36,65,173.595081895,9.30100213736e-06,175.086834326,1.49176237325,,,,,z,1,1.46727383928,2018_Nov_14_1402,59.9949394058,spanish_cond1,001,1023,
images/computermouse02a.jpg,world map,x,sounds/greatgatsby_english.wav,,,,,,,,,0,0,0,0,0,37,37,239,176.187660542,9.621726349e-06,177.020677375,0.833026454202,,,,,x,1,0.817109580734,2018_Nov_14_1402,59.9949394058,spanish_cond1,001,1023,
images/floorlamp.jpg,floor lamp,z,sounds/greatgatsby_english.wav,,,,,,,,,0,0,0,0,0,38,38,26,178.112839562,9.621726349e-06,179.4212965,1.30846688,,,,,z,1,1.28388309106,2018_Nov_14_1402,59.9949394058,spanish_cond1,001,1023,
images/parkingmeter.jpg,ear,x,sounds/greatgatsby_english.wav,,,,,,,,,0,0,0,0,0,39,39,171,180.52110955,8.98027792573e-06,183.255626054,2.73452580534,,,,,x,1,2.71760089719,2018_Nov_14_1402,59.9949394058,spanish_cond1,001,1023,
images/table02.jpg,table,z,sounds/greatgatsby_english.wav,,,,,,,,,0,0,0,0,0,40,40,49,184.369248182,9.30100213736e-06,185.589563845,1.22032560501,,,,,z,1,1.20055299171,2018_Nov_14_1402,59.9949394058,spanish_cond1,001,1023,
images/bench02.jpg,electric toothbrush,x,sounds/greatgatsby_english.wav,,,,,,,,,0,0,0,0,0,41,41,172,186.696823777,9.621726349e-06,187.723438709,1.02662487421,,,,,x,1,1.01713145408,2018_Nov_14_1402,59.9949394058,spanish_cond1,001,1023,
images/ear.jpg,bullet,x,sounds/greatgatsby_english.wav,,,,,,,,,0,0,0,0,0,42,42,139,188.825899654,9.30100213736e-06,189.924018,1.0981273267,,,,,x,1,1.08384101209,2018_Nov_14_1402,59.9949394058,spanish_cond1,001,1023,
images/bus.jpg,microphone,x,sounds/greatgatsby_english.wav,,,,,,,,,0,0,0,0,0,43,43,203,191.040741847,9.621726349e-06,193.391590754,2.35085884994,,,,,x,1,2.33418250259,2018_Nov_14_1402,59.9949394058,spanish_cond1,001,1023,
images/mattress.jpg,cat,x,sounds/greatgatsby_english.wav,,,,,,,,,0,0,0,0,0,44,44,147,194.494502636,8.6595537141e-06,195.225226583,0.730733248056,,,,,x,1,0.716915190103,2018_Nov_14_1402,59.9949394058,spanish_cond1,001,1023,
images/calculator02b.jpg,dice,x,sounds/greatgatsby_english.wav,,,,,,,,,0,0,0,0,0,45,45,165,196.326306171,4.00904100388e-05,197.426041927,1.09975884785,,,,,x,1,1.08384967165,2018_Nov_14_1402,59.9949394058,spanish_cond1,001,1023,
images/highheelshoe02a.jpg,high heel shoe,z,sounds/greatgatsby_english.wav,,,,,,,,,0,0,0,0,0,46,46,75,198.531025363,9.621726349e-06,199.559852967,1.02883818815,,,,,z,1,1.01717026171,2018_Nov_14_1402,59.9949394058,spanish_cond1,001,1023,
images/lychee02a.jpg,lychee,z,sounds/greatgatsby_english.wav,,,,,,,,,0,0,0,0,0,47,47,62,200.682217701,8.98027792573e-06,202.110522975,1.42831457476,,,,,z,1,1.41727526649,2018_Nov_14_1402,59.9949394058,spanish_cond1,001,1023,
images/bracelet02a.jpg,chess knight,x,sounds/greatgatsby_english.wav,,,,,,,,,0,0,0,0,0,48,48,152,203.218171625,9.621726349e-06,204.811215321,1.59305395954,,,,,x,1,1.58398164948,2018_Nov_14_1402,59.9949394058,spanish_cond1,001,1023,
images/lip.jpg,boxing glove,x,sounds/greatgatsby_english.wav,,,,,,,,,0,0,0,0,0,49,49,136,205.912541225,9.30100213736e-06,207.02844883,1.11591754702,,,,,x,1,1.10051415209,2018_Nov_14_1402,59.9949394058,spanish_cond1,001,1023,
images/hat05.jpg,hat,z,sounds/greatgatsby_english.wav,,,,,,,,,0,0,0,0,0,50,50,15,208.131112792,9.62160993367e-06,208.978969508,0.847866658471,,,,,z,1,0.833779513487,2018_Nov_14_1402,59.9949394058,spanish_cond1,001,1023,
images/baseball01a.jpg,baseball,z,sounds/greatgatsby_english.wav,,,,,,,,,0,0,0,0,0,51,51,74,210.110519447,9.94233414531e-06,211.162850002,1.05234017607,,,,,z,1,1.03382672393,2018_Nov_14_1402,59.9949394058,spanish_cond1,001,1023,
images/flamingo.jpg,flamingo,z,sounds/greatgatsby_english.wav,,,,,,,,,0,0,0,0,0,52,52,52,212.259637345,9.621726349e-06,213.813556604,1.55392952228,,,,,x,0,1.53397537931,2018_Nov_14_1402,59.9949394058,spanish_cond1,001,1023,
images/antelope.jpg,antelope,z,sounds/greatgatsby_english.wav,,,,,,,,,0,0,0,0,0,53,53,12,214.917248486,9.94245056063e-06,216.097469522,1.18023129948,,,,,z,1,1.16719516576,2018_Nov_14_1402,59.9949394058,spanish_cond1,001,1023,
images/seagull.jpg,seagull,z,sounds/greatgatsby_english.wav,,,,,,,,,0,0,0,0,0,54,54,50,217.204012958,9.30100213736e-06,217.897946054,0.693943358259,,,,,z,1,0.683738893713,2018_Nov_14_1402,59.9949394058,spanish_cond1,001,1023,
images/cake.jpg,cake,z,sounds/greatgatsby_english.wav,,,,,,,,,0,0,0,0,0,55,55,23,219.011118848,9.30100213736e-06,220.415267857,1.4041583105,,,,,z,1,1.38393572182,2018_Nov_14_1402,59.9949394058,spanish_cond1,001,1023,
images/feather03b.jpg,feather,z,sounds/greatgatsby_english.wav,,,,,,,,,0,0,0,0,0,56,56,114,221.514623235,6.60690711811e-05,222.615825018,1.10125181649,,,,,z,1,1.08384742658,2018_Nov_14_1402,59.9949394058,spanish_cond1,001,1023,
images/screwdriver02b.jpg,cola,x,sounds/greatgatsby_english.wav,,,,,,,,,0,0,0,0,0,57,57,158,223.708191507,9.30100213736e-06,225.599963951,1.89178206574,,,,,x,1,1.86741861398,2018_Nov_14_1402,59.9949394058,spanish_cond1,001,1023,
images/puma.jpg,puma,z,sounds/greatgatsby_english.wav,,,,,,,,,0,0,0,0,0,58,58,4,226.697265093,8.98027792573e-06,227.51709409,0.819838618278,,,,,z,1,0.800441251602,2018_Nov_14_1402,59.9949394058,spanish_cond1,001,1023,
images/pingpongpaddle01c (1).jpg,ping pong paddle,z,sounds/greatgatsby_english.wav,,,,,,,,,0,0,0,0,0,59,59,10,228.62750866,9.621726349e-06,229.650985953,1.02348755545,,,,,z,1,1.00049423508,2018_Nov_14_1402,59.9949394058,spanish_cond1,001,1023,
images/eyedrops.jpg,bicycle,x,sounds/greatgatsby_english.wav,,,,,,,,,0,0,0,0,0,60,60,131,230.750347424,8.98027792573e-06,232.75163096,2.00129379926,,,,,x,1,1.9839179538,2018_Nov_14_1402,59.9949394058,spanish_cond1,001,1023,
images/tissuebox03.jpg,tissue box,z,sounds/greatgatsby_english.wav,,,,,,,,,0,0,0,0,0,61,61,58,233.875866796,9.62160993367e-06,234.902355042,1.02649850911,,,,,z,1,1.01717122376,2018_Nov_14_1402,59.9949394058,spanish_cond1,001,1023,
images/radish01.jpg,raisin,x,sounds/greatgatsby_english.wav,,,,,,,,,0,0,0,0,0,62,62,214,236.011899489,9.30100213736e-06,237.286291084,1.27440153772,,,,,x,1,1.25055541308,2018_Nov_14_1402,59.9949394058,spanish_cond1,001,1023,
images/banana04a.jpg,banana,z,sounds/greatgatsby_english.wav,,,,,,,,,0,0,0,0,0,63,63,118,238.391918534,9.30100213736e-06,239.203482802,0.811574531836,,,,,z,1,0.800446383189,2018_Nov_14_1402,59.9949394058,spanish_cond1,001,1023,
images/icecube02 (2).jpg,aloe,x,sounds/greatgatsby_english.wav,,,,,,,,,0,0,0,0,0,64,64,122,240.312599404,9.621726349e-06,241.170641021,0.858051238116,,,,,x,1,0.833782399888,2018_Nov_14_1402,59.9949394058,spanish_cond1,001,1023,
images/pictureframe04.jpg,picture frame,z,sounds/greatgatsby_english.wav,,,,,,,,,0,0,0,0,0,65,65,41,242.291331577,9.621726349e-06,243.337881409,1.04656041518,,,,,z,1,1.03383410058,2018_Nov_14_1402,59.9949394058,spanish_cond1,001,1023,
images/cupcake.jpg,scissors,x,sounds/greatgatsby_english.wav,,,,,,,,,0,0,0,0,0,66,66,219,244.456072886,9.30100213736e-06,245.421738457,0.965675192187,,,,,x,1,0.950481871259,2018_Nov_14_1402,59.9949394058,spanish_cond1,001,1023,
images/lemon02.jpg,lemon,z,sounds/greatgatsby_english.wav,,,,,,,,,0,0,0,0,0,67,67,14,246.533109425,8.98027792573e-06,247.6556605,1.12256037537,,,,,z,1,1.10052922613,2018_Nov_14_1402,59.9949394058,spanish_cond1,001,1023,
images/bat.jpg,hand,x,sounds/greatgatsby_english.wav,,,,,,,,,0,0,0,0,0,68,68,185,248.752486971,1.53947621584e-05,250.172973644,1.42050238803,,,,,x,1,1.40060308878,2018_Nov_14_1402,59.9949394058,spanish_cond1,001,1023,
images/banjo.jpg,knife,x,sounds/greatgatsby_english.wav,,,,,,,,,0,0,0,0,0,69,69,191,251.269423265,8.98027792573e-06,252.423545735,1.1541317706,,,,,x,1,1.13385465892,2018_Nov_14_1402,59.9949394058,spanish_cond1,001,1023,
images/flashlight05.jpg,flash light,z,sounds/greatgatsby_english.wav,,,,,,,,,0,0,0,0,0,70,70,8,253.524631096,9.30100213736e-06,254.374062244,0.849440770224,,,,,z,1,0.833788814372,2018_Nov_14_1402,59.9949394058,spanish_cond1,001,1023,
images/elbow.jpg,elbow,z,sounds/greatgatsby_english.wav,,,,,,,,,0,0,0,0,0,71,71,105,255.484223122,8.98027792573e-06,256.35791028,0.873696779599,,,,,z,1,0.850460671354,2018_Nov_14_1402,59.9949394058,spanish_cond1,001,1023,
images/gps.jpg,gps,z,sounds/greatgatsby_english.wav,,,,,,,,,0,0,0,0,0,72,72,21,257.47506133,9.30100213736e-06,258.458450731,0.983399022836,,,,,z,1,0.967155973427,2018_Nov_14_1402,59.9949394058,spanish_cond1,001,1023,
images/computerkeyboard01a.jpg,computer keyboard,z,sounds/greatgatsby_english.wav,,,,,,,,,0,0,0,0,0,73,73,61,259.573982448,9.30088572204e-06,262.576025778,3.00205327279,,,,,None,0,,2018_Nov_14_1402,59.9949394058,spanish_cond1,001,1023,
images/bowlingball.jpg,bowling ball,z,sounds/greatgatsby_english.wav,,,,,,,,,0,0,0,0,0,74,74,20,263.707693423,9.30100213736e-06,264.760085556,1.05240207585,,,,,z,1,1.03383634565,2018_Nov_14_1402,59.9949394058,spanish_cond1,001,1023,
images/axe01.jpg,axe,z,sounds/greatgatsby_english.wav,,,,,,,,,0,0,0,0,0,75,75,104,265.862788968,9.621726349e-06,266.793957502,0.931178797386,,,,,z,1,0.917150986148,2018_Nov_14_1402,59.9949394058,spanish_cond1,001,1023,
images/tent.jpg,tent,z,sounds/greatgatsby_english.wav,,,,,,,,,0,0,0,0,0,76,76,11,267.918824522,8.98027792573e-06,269.32794988,1.4091353002,,,,,z,1,1.4006152763,2018_Nov_14_1402,59.9949394058,spanish_cond1,001,1023,
images/parkbench03.jpg,park bench,z,sounds/greatgatsby_english.wav,,,,,,,,,0,0,0,0,0,77,77,71,270.432042346,9.30100213736e-06,271.328481319,0.896448915591,,,,,z,1,0.883830043487,2018_Nov_14_1402,59.9949394058,spanish_cond1,001,1023,
images/cheetah.jpg,cheetah,z,sounds/greatgatsby_english.wav,,,,,,,,,0,0,0,0,0,78,78,82,272.42963307,9.30100213736e-06,273.629039795,1.19941698853,,,,,z,1,1.18387022999,2018_Nov_14_1402,59.9949394058,spanish_cond1,001,1023,
images/dresser02.jpg,dresser,z,sounds/greatgatsby_english.wav,,,,,,,,,0,0,0,0,0,79,79,87,274.74976082,9.621726349e-06,276.146370258,1.39661970094,,,,,z,1,1.38390846038,2018_Nov_14_1402,59.9949394058,spanish_cond1,001,1023,
images/electrictoothbrush01a.jpg,banjo,x,sounds/greatgatsby_english.wav,,,,,,,,,0,0,0,0,0,80,80,127,277.240328498,9.30100213736e-06,278.947088936,1.70677005942,,,,,x,1,1.68399611418,2018_Nov_14_1402,59.9949394058,spanish_cond1,001,1023,
images/broom02.jpg,broom,z,sounds/greatgatsby_english.wav,,,,,,,,,0,0,0,0,0,81,81,116,280.03954651,9.30100213736e-06,280.864252751,0.82471618359,,,,,z,1,0.80044189305,2018_Nov_14_1402,59.9949394058,spanish_cond1,001,1023,
images/raisin.jpg,ruler,x,sounds/greatgatsby_english.wav,,,,,,,,,0,0,0,0,0,82,82,218,281.968109164,9.30100213736e-06,282.881452198,0.913352976553,,,,,x,1,0.90045731992,2018_Nov_14_1402,59.9949394058,spanish_cond1,001,1023,
images/8ball.jpg,nail clipper,x,sounds/greatgatsby_english.wav,,,,,,,,,0,0,0,0,0,83,83,206,283.997127278,9.30100213736e-06,284.781935497,0.784817519481,,,,,x,1,0.767099461867,2018_Nov_14_1402,59.9949394058,spanish_cond1,001,1023,
images/fireextinguisher02.jpg,fire extinguisher,z,sounds/greatgatsby_english.wav,,,,,,,,,0,0,0,0,0,84,84,175,285.891288151,9.621726349e-06,286.715765396,0.824487507576,,,,,z,1,0.800441572326,2018_Nov_14_1402,59.9949394058,spanish_cond1,001,1023,
images/arrow02.jpg,hammer,x,sounds/greatgatsby_english.wav,,,,,,,,,0,0,0,0,0,85,85,184,287.814165658,9.30100213736e-06,288.949876024,1.1357203084,,,,,x,1,1.11735021963,2018_Nov_14_1402,59.9949394058,spanish_cond1,001,1023,
images/blackolive.jpg,tank,x,sounds/greatgatsby_english.wav,,,,,,,,,0,0,0,0,0,86,86,229,290.063355109,9.30100213736e-06,291.450329688,1.38698452094,,,,,x,1,1.36725392239,2018_Nov_14_1402,59.9949394058,spanish_cond1,001,1023,
images/worldmap.jpg,scooter,x,sounds/greatgatsby_english.wav,,,,,,,,,0,0,0,0,0,87,87,220,292.580140984,9.30100213736e-06,293.634223331,1.05409228953,,,,,x,1,1.03377059719,2018_Nov_14_1402,59.9949394058,spanish_cond1,001,1023,
images/cat.jpg,black olive,x,sounds/greatgatsby_english.wav,,,,,,,,,0,0,0,0,0,88,88,133,294.76370364,9.621726349e-06,296.468296948,1.70460325037,,,,,x,1,1.68397109769,2018_Nov_14_1402,59.9949394058,spanish_cond1,001,1023,
images/honeycomb.jpg,honey comb,z,sounds/greatgatsby_english.wav,,,,,,,,,0,0,0,0,0,89,89,59,297.579916477,9.30100213736e-06,298.552176447,0.972269912018,,,,,z,1,0.95048347488,2018_Nov_14_1402,59.9949394058,spanish_cond1,001,1023,
images/leek.jpg,donut,x,sounds/greatgatsby_english.wav,,,,,,,,,0,0,0,0,0,90,90,169,299.65232786,9.621726349e-06,300.469333847,0.81701592938,,,,,x,1,0.800439327257,2018_Nov_14_1402,59.9949394058,spanish_cond1,001,1023,
images/lightbulb03b.jpg,treadmill,x,sounds/greatgatsby_english.wav,,,,,,,,,0,0,0,0,0,91,91,234,301.570369175,8.98027792573e-06,302.58654808,1.0161882058,,,,,x,1,1.00049070723,2018_Nov_14_1402,59.9949394058,spanish_cond1,001,1023,
images/stapler03a.jpg,candy cane,x,sounds/greatgatsby_english.wav,,,,,,,,,0,0,0,0,0,92,92,145,303.696043457,9.30100213736e-06,304.420355176,0.724321661517,,,,,x,1,0.70041299588,2018_Nov_14_1402,59.9949394058,spanish_cond1,001,1023,
images/envelope02a.jpg,grand piano,x,sounds/greatgatsby_english.wav,,,,,,,,,0,0,0,0,0,93,93,182,305.542328627,8.98027792573e-06,306.220825293,0.678505966556,,,,,x,1,0.667067036731,2018_Nov_14_1402,59.9949394058,spanish_cond1,001,1023,
images/ostrich.jpg,ostrich,z,sounds/greatgatsby_english.wav,,,,,,,,,0,0,0,0,0,94,94,76,307.320061682,9.621726349e-06,307.971272141,0.651220080908,,,,,z,1,0.633721077465,2018_Nov_14_1402,59.9949394058,spanish_cond1,001,1023,
images/belt02a.jpg,snowman,x,sounds/greatgatsby_english.wav,,,,,,,,,0,0,0,0,0,95,95,224,309.073334747,9.30100213736e-06,310.505278309,1.43195350526,,,,,x,1,1.41727911518,2018_Nov_14_1402,59.9949394058,spanish_cond1,001,1023,
images/apricot.jpg,apricot,z,sounds/greatgatsby_english.wav,,,,,,,,,0,0,0,0,0,96,96,32,311.62172473,9.621726349e-06,312.522458193,0.90074308461,,,,,z,1,0.883782897028,2018_Nov_14_1402,59.9949394058,spanish_cond1,001,1023,
images/bottleofredwine02.jpg,pipe,x,sounds/greatgatsby_english.wav,,,,,,,,,0,0,0,0,0,97,97,213,313.621121769,8.98027792573e-06,314.389618304,0.768506155815,,,,,x,1,0.750437868061,2018_Nov_14_1402,59.9949394058,spanish_cond1,001,1023,
images/candle08a.jpg,screw driver,x,sounds/greatgatsby_english.wav,,,,,,,,,0,0,0,0,0,98,98,221,315.503926139,9.62160993367e-06,316.206760919,0.702844722546,,,,,x,1,0.683751081233,2018_Nov_14_1402,59.9949394058,spanish_cond1,001,1023,
images/ladybug03.jpg,giraffe,x,sounds/greatgatsby_english.wav,,,,,,,,,0,0,0,0,0,99,99,178,317.310129832,8.98027792573e-06,318.040613557,0.730493346695,,,,,x,1,0.717137130909,2018_Nov_14_1402,59.9949394058,spanish_cond1,001,1023,
images/eraser.jpg,eraser,z,sounds/greatgatsby_english.wav,,,,,,,,,0,0,0,0,0,100,100,110,319.146380201,9.621726349e-06,319.957716755,0.811346818111,,,,,z,1,0.800440930878,2018_Nov_14_1402,59.9949394058,spanish_cond1,001,1023,
images/rhinoceros01.jpg,envelope,x,sounds/greatgatsby_english.wav,,,,,,,,,0,0,0,0,0,101,101,173,321.068622033,9.30100213736e-06,323.225236846,2.15662443487,,,,,x,1,2.13412631187,2018_Nov_14_1402,59.9949394058,spanish_cond1,001,1023,
images/cocktailshrimp01.jpg,cocktail shrimp,z,sounds/greatgatsby_english.wav,,,,,,,,,0,0,0,0,0,102,102,30,324.339812486,1.09046231955e-05,325.242432124,0.902630222612,,,,,z,1,0.88380053686,2018_Nov_14_1402,59.9949394058,spanish_cond1,001,1023,
images/graduationcap.jpg,graduation cap,z,sounds/greatgatsby_english.wav,,,,,,,,,0,0,0,0,0,103,103,35,326.343799722,9.30100213736e-06,327.242946244,0.899155823281,,,,,z,1,0.883786104154,2018_Nov_14_1402,59.9949394058,spanish_cond1,001,1023,
images/clothespin02a.jpg,clothes pin,z,sounds/greatgatsby_english.wav,,,,,,,,,0,0,0,0,0,104,104,79,328.346831202,9.30100213736e-06,329.493534692,1.14671343239,,,,,z,1,1.1338543382,2018_Nov_14_1402,59.9949394058,spanish_cond1,001,1023,
images/dolphin01.jpg,dolphin,z,sounds/greatgatsby_english.wav,,,,,,,,,0,0,0,0,0,105,105,99,330.592338104,8.98027792573e-06,331.644094563,1.05176672223,,,,,z,1,1.03384468437,2018_Nov_14_1402,59.9949394058,spanish_cond1,001,1023,
images/coin01b.jpg,arrow,x,sounds/greatgatsby_english.wav,,,,,,,,,0,0,0,0,0,106,106,124,332.745805335,9.30100213736e-06,333.427868769,0.682073055068,,,,,x,1,0.667067357455,2018_Nov_14_1402,59.9949394058,spanish_cond1,001,1023,
images/coffeepot03b.jpg,coffee pot,z,sounds/greatgatsby_english.wav,,,,,,,,,0,0,0,0,0,107,107,107,334.548129876,8.98027792573e-06,337.145523868,2.59740361373,,,,,z,1,2.5842542646,2018_Nov_14_1402,59.9949394058,spanish_cond1,001,1023,
images/lion.jpg,lion,z,sounds/greatgatsby_english.wav,,,,,,,,,0,0,0,0,0,108,108,44,338.256636975,9.621726349e-06,340.729604301,2.47297758877,,,,,z,1,2.45070365164,2018_Nov_14_1402,59.9949394058,spanish_cond1,001,1023,
images/key03b.jpg,cigar,x,sounds/greatgatsby_english.wav,,,,,,,,,0,0,0,0,0,109,109,153,341.829781372,1.05838989839e-05,342.763629873,0.933859084966,,,,,x,1,0.917138477904,2018_Nov_14_1402,59.9949394058,spanish_cond1,001,1023,
images/tie01.jpg,bench,x,sounds/greatgatsby_english.wav,,,,,,,,,0,0,0,0,0,110,110,130,343.860771295,9.62160993367e-06,345.214263286,1.35350257484,,,,,x,1,1.33390860469,2018_Nov_14_1402,59.9949394058,spanish_cond1,001,1023,
images/handbag02a.jpg,candle,x,sounds/greatgatsby_english.wav,,,,,,,,,0,0,0,0,0,111,111,144,346.329224436,1.02631747723e-05,348.231711295,1.90249776375,,,,,x,1,1.88405070128,2018_Nov_14_1402,59.9949394058,spanish_cond1,001,1023,
images/radio03a.jpg,radio,z,sounds/greatgatsby_english.wav,,,,,,,,,0,0,0,0,0,112,112,37,349.34487126,9.621726349e-06,350.382269242,1.03740792419,,,,,z,1,1.01716096059,2018_Nov_14_1402,59.9949394058,spanish_cond1,001,1023,
images/masquerademask02b.jpg,mirror,x,sounds/greatgatsby_english.wav,,,,,,,,,0,0,0,0,0,113,113,204,351.486058303,9.621726349e-06,352.416119058,0.930071017821,,,,,x,1,0.917120196624,2018_Nov_14_1402,59.9949394058,spanish_cond1,001,1023,
images/pepper05a.jpg,lighter,x,sounds/greatgatsby_english.wav,,,,,,,,,0,0,0,0,0,114,114,198,353.53617843,9.30100213736e-06,354.366674054,0.830505566322,,,,,x,1,0.817150633316,2018_Nov_14_1402,59.9949394058,spanish_cond1,001,1023,
images/puzzle.jpg,puzzle,z,sounds/greatgatsby_english.wav,,,,,,,,,0,0,0,0,0,115,115,57,355.485736938,9.621726349e-06,357.000664539,1.51493722317,,,,,z,1,1.50062845799,2018_Nov_14_1402,59.9949394058,spanish_cond1,001,1023,
images/highlighter03b.jpg,coin,x,sounds/greatgatsby_english.wav,,,,,,,,,0,0,0,0,0,116,116,156,358.102345805,9.621726349e-06,359.301259257,1.19892371562,,,,,x,1,1.18386573985,2018_Nov_14_1402,59.9949394058,spanish_cond1,001,1023,
images/fork01.jpg,cooking pot,x,sounds/greatgatsby_english.wav,,,,,,,,,0,0,0,0,0,117,117,160,360.393716831,9.621726349e-06,362.185330806,1.79162519972,,,,,x,1,1.76736085163,2018_Nov_14_1402,59.9949394058,spanish_cond1,001,1023,
images/skateboard.jpg,key,x,sounds/greatgatsby_english.wav,,,,,,,,,0,0,0,0,0,118,118,189,363.274800197,8.98027792573e-06,365.169436062,1.89464612794,,,,,x,1,1.88405519142,2018_Nov_14_1402,59.9949394058,spanish_cond1,001,1023,
images/teapot.jpg,light switch,x,sounds/greatgatsby_english.wav,,,,,,,,,0,0,0,0,0,119,119,197,366.284802926,9.30100213736e-06,367.169951465,0.885157839395,,,,,x,1,0.867123548174,2018_Nov_14_1402,59.9949394058,spanish_cond1,001,1023,
images/ladder.jpg,ladder,z,sounds/greatgatsby_english.wav,,,,,,,,,0,0,0,0,0,120,120,113,368.261741292,9.94245056063e-06,369.020430097,0.758699067868,,,,,z,1,0.750426963437,2018_Nov_14_1402,59.9949394058,spanish_cond1,001,1023,
images/corkscrew02a.jpg,masquerade mask,x,sounds/greatgatsby_english.wav,,,,,,,,,0,0,0,0,0,121,121,201,370.124466757,9.94245056063e-06,371.92118601,1.7967295167,,,,,x,1,1.78396343242,2018_Nov_14_1402,59.9949394058,spanish_cond1,001,1023,
images/gorilla.jpg,gorilla,z,sounds/greatgatsby_english.wav,,,,,,,,,0,0,0,0,0,122,122,80,373.030688764,9.621726349e-06,374.505199412,1.47452187317,,,,,z,1,1.45062250854,2018_Nov_14_1402,59.9949394058,spanish_cond1,001,1023,
images/nailpolish02b.jpg,nail polish,z,sounds/greatgatsby_english.wav,,,,,,,,,0,0,0,0,0,123,123,94,375.612688662,9.621726349e-06,376.906059079,1.29338068061,,,,,z,1,1.28409541014,2018_Nov_14_1402,59.9949394058,spanish_cond1,001,1023,
images/headphones02b.jpg,headphones,z,sounds/greatgatsby_english.wav,,,,,,,,,0,0,0,0,0,124,124,101,378.012226948,8.98027792573e-06,378.82301282,0.810796135571,,,,,z,1,0.80048294575,2018_Nov_14_1402,59.9949394058,spanish_cond1,001,1023,
images/tulip02.jpg,sport shorts,x,sounds/greatgatsby_english.wav,,,,,,,,,0,0,0,0,0,125,125,225,379.915804267,9.621726349e-06,381.223607249,1.30781324522,,,,,x,1,1.28391388059,2018_Nov_14_1402,59.9949394058,spanish_cond1,001,1023,
images/beermug01b.jpg,beer mug,z,sounds/greatgatsby_english.wav,,,,,,,,,0,0,0,0,0,126,126,111,382.339900043,9.30100213736e-06,383.607550348,1.26765992644,,,,,z,1,1.25054739509,2018_Nov_14_1402,59.9949394058,spanish_cond1,001,1023,
images/remotecontrol01c.jpg,remote control,z,sounds/greatgatsby_english.wav,,,,,,,,,0,0,0,0,0,127,127,85,384.715778225,9.94245056063e-06,385.55805018,0.842282218277,,,,,z,1,0.833785286406,2018_Nov_14_1402,59.9949394058,spanish_cond1,001,1023,
images/hand01a.jpg,cupcake,x,sounds/greatgatsby_english.wav,,,,,,,,,0,0,0,0,0,128,128,163,386.668839676,9.30100213736e-06,389.1423115,2.47348176641,,,,,x,1,2.45086690004,2018_Nov_14_1402,59.9949394058,spanish_cond1,001,1023,
images/atm.jpg,atm,z,sounds/greatgatsby_english.wav,,,,,,,,,0,0,0,0,0,129,129,96,390.27926435,9.30100213736e-06,391.392904438,1.11365003081,,,,,z,1,1.10051703861,2018_Nov_14_1402,59.9949394058,spanish_cond1,001,1023,
images/hairpin.jpg,hair pin,z,sounds/greatgatsby_english.wav,,,,,,,,,0,0,0,0,0,130,130,28,392.482824446,9.30100213736e-06,393.610144682,1.12732985686,,,,,z,1,1.11719402717,2018_Nov_14_1402,59.9949394058,spanish_cond1,001,1023,
images/ashtray02b.jpg,ashtray,z,sounds/greatgatsby_english.wav,,,,,,,,,0,0,0,0,0,131,131,43,394.722834787,9.30100213736e-06,395.694017125,0.971192280645,,,,,z,1,0.950482512708,2018_Nov_14_1402,59.9949394058,spanish_cond1,001,1023,
images/gamecontroller01.jpg,game controller,z,sounds/greatgatsby_english.wav,,,,,,,,,0,0,0,0,0,132,132,112,396.812895272,9.30100213736e-06,398.09466736,1.28178170975,,,,,z,1,1.26726190839,2018_Nov_14_1402,59.9949394058,spanish_cond1,001,1023,
images/showerhead01.jpg,skateboard,x,sounds/greatgatsby_english.wav,,,,,,,,,0,0,0,0,0,133,133,223,399.201291939,9.621726349e-06,400.261856753,1.060574756,,,,,x,1,1.05050178827,2018_Nov_14_1402,59.9949394058,spanish_cond1,001,1023,
images/panda.jpg,panda,z,sounds/greatgatsby_english.wav,,,,,,,,,0,0,0,0,0,134,134,83,401.370282516,9.621726349e-06,403.062590825,1.69231857231,,,,,z,1,1.6839925861,2018_Nov_14_1402,59.9949394058,spanish_cond1,001,1023,
images/grandpiano.jpg,tulip,x,sounds/greatgatsby_english.wav,,,,,,,,,0,0,0,0,0,135,135,236,404.176407632,9.94233414531e-06,404.929750294,0.753353245906,,,,,x,1,0.733768256032,2018_Nov_14_1402,59.9949394058,spanish_cond1,001,1023,
images/treadmill.jpg,lily,x,sounds/greatgatsby_english.wav,,,,,,,,,0,0,0,0,0,136,136,199,406.03581072,8.98027792573e-06,407.080301827,1.0445007279,,,,,x,1,1.0338411564,2018_Nov_14_1402,59.9949394058,spanish_cond1,001,1023,
images/ceilingfan02.jpg,paper clip,x,sounds/greatgatsby_english.wav,,,,,,,,,0,0,0,0,0,137,137,208,408.177555502,8.98027792573e-06,409.997722541,1.82017634029,,,,,x,1,1.80070424499,2018_Nov_14_1402,59.9949394058,spanish_cond1,001,1023,
images/sunglasses03a.jpg,sun glasses,z,sounds/greatgatsby_english.wav,,,,,,,,,0,0,0,0,0,138,138,17,411.106371849,9.94245056063e-06,411.815089984,0.708728718804,,,,,z,1,0.683984888834,2018_Nov_14_1402,59.9949394058,spanish_cond1,001,1023,
images/corn01.jpg,corn,z,sounds/greatgatsby_english.wav,,,,,,,,,0,0,0,0,0,139,139,22,412.913240402,8.98016151041e-06,413.682011797,0.768781336606,,,,,z,1,0.750435622875,2018_Nov_14_1402,59.9949394058,spanish_cond1,001,1023,
images/cola.jpg,comb,x,sounds/greatgatsby_english.wav,,,,,,,,,0,0,0,0,0,140,140,157,414.802113184,9.621726349e-06,415.699203868,0.897100626025,,,,,x,1,0.883788028616,2018_Nov_14_1402,59.9949394058,spanish_cond1,001,1023,
images/kiwi03.jpg,backpack,x,sounds/greatgatsby_english.wav,,,,,,,,,0,0,0,0,0,141,141,125,416.82686856,9.621726349e-06,417.666375556,0.83951693878,,,,,x,1,0.817122088862,2018_Nov_14_1402,59.9949394058,spanish_cond1,001,1023,
images/grasshopper.jpg,cauliflower,x,sounds/greatgatsby_english.wav,,,,,,,,,0,0,0,0,0,142,142,148,418.758101239,9.30088572204e-06,419.483508871,0.725417574169,,,,,x,1,0.71708389069,2018_Nov_14_1402,59.9949394058,spanish_cond1,001,1023,
images/binder03b.jpg,dj mixer,x,sounds/greatgatsby_english.wav,,,,,,,,,0,0,0,0,0,143,143,167,420.595922512,8.98016151041e-06,421.63406329,1.03815007873,,,,,x,1,1.01715582912,2018_Nov_14_1402,59.9949394058,spanish_cond1,001,1023,
images/nailclipper03a.jpg,aquarium,x,sounds/greatgatsby_english.wav,,,,,,,,,0,0,0,0,0,144,144,123,422.732113643,9.30100213736e-06,423.517884994,0.785781293991,,,,,x,1,0.767096896074,2018_Nov_14_1402,59.9949394058,spanish_cond1,001,1023,
images/camera01a.jpg,bull,x,sounds/greatgatsby_english.wav,,,,,,,,,0,0,0,0,0,145,145,138,424.627426234,9.30100213736e-06,425.484902736,0.857486443827,,,,,x,1,0.833623962477,2018_Nov_14_1402,59.9949394058,spanish_cond1,001,1023,
images/doorhandle.jpg,doll,x,sounds/greatgatsby_english.wav,,,,,,,,,0,0,0,0,0,146,146,168,426.586563796,9.30100213736e-06,427.518913876,0.932359701837,,,,,x,1,0.917120196624,2018_Nov_14_1402,59.9949394058,spanish_cond1,001,1023,
images/redfox.jpg,red fox,z,sounds/greatgatsby_english.wav,,,,,,,,,0,0,0,0,0,147,147,1,428.630132501,8.6595537141e-06,429.302728172,0.672604972031,,,,,z,1,0.650409291498,2018_Nov_14_1402,59.9949394058,spanish_cond1,001,1023,
images/screw03c.jpg,screw,z,sounds/greatgatsby_english.wav,,,,,,,,,0,0,0,0,0,148,148,84,430.395562916,9.62160993367e-06,431.053174699,0.657621724997,,,,,z,1,0.633733265102,2018_Nov_14_1402,59.9949394058,spanish_cond1,001,1023,
images/candy.jpg,candy,z,sounds/greatgatsby_english.wav,,,,,,,,,0,0,0,0,0,149,149,31,432.154487453,9.621726349e-06,432.703869114,0.549401225056,,,,,z,1,0.533934326726,2018_Nov_14_1402,59.9949394058,spanish_cond1,001,1023,
images/diploma01.jpg,glasses,x,sounds/greatgatsby_english.wav,,,,,,,,,0,0,0,0,0,150,150,179,433.833568798,9.30100213736e-06,434.604109625,0.770550769055,,,,,x,1,0.750436905771,2018_Nov_14_1402,59.9949394058,spanish_cond1,001,1023,
images/dice05a.jpg,band aid,x,sounds/greatgatsby_english.wav,,,,,,,,,0,0,0,0,0,151,151,126,435.715642879,9.621726349e-06,436.371222878,0.655589940725,,,,,x,1,0.633735189447,2018_Nov_14_1402,59.9949394058,spanish_cond1,001,1023,
images/bullet (2).jpg,rubber glove,x,sounds/greatgatsby_english.wav,,,,,,,,,0,0,0,0,0,152,152,217,437.475068066,9.30100213736e-06,438.171693636,0.696635512635,,,,,x,1,0.683729913435,2018_Nov_14_1402,59.9949394058,spanish_cond1,001,1023,
images/umbrella01.jpg,umbrella,z,sounds/greatgatsby_english.wav,,,,,,,,,0,0,0,0,0,153,153,53,439.284947252,9.30100213736e-06,439.855449207,0.570512218168,,,,,z,1,0.550370451878,2018_Nov_14_1402,59.9949394058,spanish_cond1,001,1023,
images/bowtie.jpg,bowtie,z,sounds/greatgatsby_english.wav,,,,,,,,,0,0,0,0,0,154,154,89,440.965032783,9.30100213736e-06,441.622570799,0.657548279269,,,,,z,1,0.633719794685,2018_Nov_14_1402,59.9949394058,spanish_cond1,001,1023,
images/squirrel.jpg,binder,x,sounds/greatgatsby_english.wav,,,,,,,,,0,0,0,0,0,155,155,132,442.724845403,9.30100213736e-06,443.423151886,0.698317066766,,,,,x,1,0.683848902001,2018_Nov_14_1402,59.9949394058,spanish_cond1,001,1023,
images/plate01b.jpg,plate,z,sounds/greatgatsby_english.wav,,,,,,,,,0,0,0,0,0,156,156,3,444.521192297,1.02631747723e-05,445.790364114,1.26918176026,,,,,z,1,1.25058684405,2018_Nov_14_1402,59.9949394058,spanish_cond1,001,1023,
images/candycane01a.jpg,lip,x,sounds/greatgatsby_english.wav,,,,,,,,,0,0,0,0,0,157,157,200,446.883550052,9.621726349e-06,447.674147332,0.790607543662,,,,,x,1,0.767091443762,2018_Nov_14_1402,59.9949394058,spanish_cond1,001,1023,
images/backpack01b.jpg,swallow,x,sounds/greatgatsby_english.wav,,,,,,,,,0,0,0,0,0,158,158,228,448.804797962,9.30100213736e-06,449.824695978,1.01990860014,,,,,x,1,1.00048461347,2018_Nov_14_1402,59.9949394058,spanish_cond1,001,1023,
images/wallet01.jpg,lamp,x,sounds/greatgatsby_english.wav,,,,,,,,,0,0,0,0,0,159,159,193,450.981767502,9.30100213736e-06,451.808536317,0.826778757502,,,,,x,1,0.817088412819,2018_Nov_14_1402,59.9949394058,spanish_cond1,001,1023,
images/tape01a.jpg,tie,x,sounds/greatgatsby_english.wav,,,,,,,,,0,0,0,0,0,160,160,232,452.933464274,9.30100213736e-06,453.659198723,0.725744712283,,,,,x,1,0.717226933455,2018_Nov_14_1402,59.9949394058,spanish_cond1,001,1023,
images/giraffe.jpg,lettuce,x,sounds/greatgatsby_english.wav,,,,,,,,,0,0,0,0,0,161,161,195,454.758963344,1.02631747723e-05,455.47618675,0.717233989388,,,,,x,1,0.700430314871,2018_Nov_14_1402,59.9949394058,spanish_cond1,001,1023,
images/ant.jpg,ant,z,sounds/greatgatsby_english.wav,,,,,,,,,0,0,0,0,0,162,162,98,456.569683147,9.30088572204e-06,457.359995946,0.790323061636,,,,,z,1,0.767099461867,2018_Nov_14_1402,59.9949394058,spanish_cond1,001,1023,
images/pouch01b.jpg,pouch,z,sounds/greatgatsby_english.wav,,,,,,,,,0,0,0,0,0,163,163,25,458.470896734,8.98027792573e-06,459.427204871,0.95631807961,,,,,z,1,0.933818673715,2018_Nov_14_1402,59.9949394058,spanish_cond1,001,1023,
images/comb02a.jpg,diploma,x,sounds/greatgatsby_english.wav,,,,,,,,,0,0,0,0,0,164,164,166,460.530316243,9.30100213736e-06,461.261008439,0.7307018172,,,,,z,0,0.71709383314,2018_Nov_14_1402,59.9949394058,spanish_cond1,001,1023,
images/mushroom01.jpg,shower head,x,sounds/greatgatsby_english.wav,,,,,,,,,0,0,0,0,0,165,165,222,462.376796734,9.30100213736e-06,463.444916835,1.06812972249,,,,,x,1,1.05051333422,2018_Nov_14_1402,59.9949394058,spanish_cond1,001,1023,
images/dryingmachine01.jpg,drying machine,z,sounds/greatgatsby_english.wav,,,,,,,,,0,0,0,0,0,166,166,18,464.565532663,9.621726349e-06,465.862198516,1.2966761163,,,,,z,1,1.28390041017,2018_Nov_14_1402,59.9949394058,spanish_cond1,001,1023,
images/microphone01.jpg,diaper,x,sounds/greatgatsby_english.wav,,,,,,,,,0,0,0,0,0,167,167,164,466.959592989,8.6595537141e-06,467.879383531,0.919799522031,,,,,x,1,0.900467583095,2018_Nov_14_1402,59.9949394058,spanish_cond1,001,1023,
images/swan.jpg,swan,z,sounds/greatgatsby_english.wav,,,,,,,,,0,0,0,0,0,168,168,54,468.970217601,8.98027792573e-06,470.163306071,1.19309777045,,,,,z,1,1.18387119216,2018_Nov_14_1402,59.9949394058,spanish_cond1,001,1023,
images/fryingpan01.jpg,frying pan,z,sounds/greatgatsby_english.wav,,,,,,,,,0,0,0,0,0,169,169,45,471.263053373,9.621726349e-06,474.181036316,2.91799256497,,,,,z,1,2.90099934279,2018_Nov_14_1402,59.9949394058,spanish_cond1,001,1023,
images/saltshaker03c.jpg,salt shaker,z,sounds/greatgatsby_english.wav,,,,,,,,,0,0,0,0,0,170,170,63,475.29273346,9.94245056063e-06,476.448273208,1.15555001062,,,,,z,1,1.13385209313,2018_Nov_14_1402,59.9949394058,spanish_cond1,001,1023,
images/hairdryer03a.jpg,hairdryer,z,sounds/greatgatsby_english.wav,,,,,,,,,0,0,0,0,0,171,171,119,477.545868133,8.98016151041e-06,478.248741079,0.70288288861,,,,,z,1,0.683750439784,2018_Nov_14_1402,59.9949394058,spanish_cond1,001,1023,
images/drink.jpg,drink,z,sounds/greatgatsby_english.wav,,,,,,,,,0,0,0,0,0,172,172,117,479.347705495,1.02631747723e-05,480.382621396,1.03492680599,,,,,z,1,1.01715999842,2018_Nov_14_1402,59.9949394058,spanish_cond1,001,1023,
images/dragonfly02.jpg,dragon fly,z,sounds/greatgatsby_english.wav,,,,,,,,,0,0,0,0,0,173,173,29,481.48062332,8.98027792573e-06,482.299803813,0.819190756418,,,,,z,1,0.800453759846,2018_Nov_14_1402,59.9949394058,spanish_cond1,001,1023,
images/bowl02b (1).jpg,bowl,z,sounds/greatgatsby_english.wav,,,,,,,,,0,0,0,0,0,174,174,24,483.416436253,9.30100213736e-06,484.717111152,1.30068452051,,,,,z,1,1.28392125724,2018_Nov_14_1402,59.9949394058,spanish_cond1,001,1023,
images/knife04.jpg,tooth brush,x,sounds/greatgatsby_english.wav,,,,,,,,,0,0,0,0,0,175,175,233,485.814650592,9.621726349e-06,486.617597337,0.802956366446,,,,,x,1,0.783779978403,2018_Nov_14_1402,59.9949394058,spanish_cond1,001,1023,
images/cauliflower01.jpg,glue stick,x,sounds/greatgatsby_english.wav,,,,,,,,,0,0,0,0,0,176,176,181,487.732989218,9.621726349e-06,488.784801483,1.05182220752,,,,,x,1,1.03379368933,2018_Nov_14_1402,59.9949394058,spanish_cond1,001,1023,
images/marker01a.jpg,marker,z,sounds/greatgatsby_english.wav,,,,,,,,,0,0,0,0,0,177,177,95,489.88221103,9.30100213736e-06,491.252119262,1.36991881521,,,,,z,1,1.35058431036,2018_Nov_14_1402,59.9949394058,spanish_cond1,001,1023,
images/paperclip04.jpg,eye drops,x,sounds/greatgatsby_english.wav,,,,,,,,,0,0,0,0,0,178,178,174,492.357251834,9.621726349e-06,494.119527612,1.76228604128,,,,,x,1,1.75069765421,2018_Nov_14_1402,59.9949394058,spanish_cond1,001,1023,
images/mailbox01.jpg,mail box,z,sounds/greatgatsby_english.wav,,,,,,,,,0,0,0,0,0,179,179,73,495.238187668,9.94245056063e-06,497.170373216,1.932195812,,,,,z,1,1.91745823936,2018_Nov_14_1402,59.9949394058,spanish_cond1,001,1023,
images/button07.jpg,radish,x,sounds/greatgatsby_english.wav,,,,,,,,,0,0,0,0,0,180,180,215,498.281346808,9.30100213736e-06,500.104410303,1.8230737577,,,,,x,1,1.80070360354,2018_Nov_14_1402,59.9949394058,spanish_cond1,001,1023,
images/shotglass.jpg,shot glass,z,sounds/greatgatsby_english.wav,,,,,,,,,0,0,0,0,0,181,181,86,501.211779602,9.30100213736e-06,502.321655678,1.10988537665,,,,,z,1,1.10053531977,2018_Nov_14_1402,59.9949394058,spanish_cond1,001,1023,
images/birthdaycandle.jpg,birthday candle,z,sounds/greatgatsby_english.wav,,,,,,,,,0,0,0,0,0,182,182,55,503.418277849,9.30100213736e-06,504.555576438,1.13730885275,,,,,z,1,1.11720461107,2018_Nov_14_1402,59.9949394058,spanish_cond1,001,1023,
images/triangleruler02.jpg,bottle of red wine,x,sounds/greatgatsby_english.wav,,,,,,,,,0,0,0,0,0,183,183,134,505.666062209,9.621726349e-06,506.472721651,0.806669384241,,,,,x,1,0.783761055791,2018_Nov_14_1402,59.9949394058,spanish_cond1,001,1023,
images/cloud.jpg,ceiling fan,x,sounds/greatgatsby_english.wav,,,,,,,,,0,0,0,0,0,184,184,149,507.576927012,9.94233414531e-06,510.240368588,2.66345151886,,,,,x,1,2.65087851021,2018_Nov_14_1402,59.9949394058,spanish_cond1,001,1023,
images/donut.jpg,rhinoceros,x,sounds/greatgatsby_english.wav,,,,,,,,,0,0,0,0,0,185,185,216,511.365384424,9.94245056063e-06,512.224209889,0.858835086809,,,,,x,1,0.85045072902,2018_Nov_14_1402,59.9949394058,spanish_cond1,001,1023,
images/parkfountain.jpg,park fountain,z,sounds/greatgatsby_english.wav,,,,,,,,,0,0,0,0,0,186,186,93,513.343877979,9.30100213736e-06,514.42477571,1.08090735285,,,,,z,1,1.06715760916,2018_Nov_14_1402,59.9949394058,spanish_cond1,001,1023,
images/desktopcomputer.jpg,desktop computer,z,sounds/greatgatsby_english.wav,,,,,,,,,0,0,0,0,0,187,187,16,515.559656685,9.30100213736e-06,516.425294641,0.865648219362,,,,,z,1,0.850453936262,2018_Nov_14_1402,59.9949394058,spanish_cond1,001,1023,
images/croissant02b.jpg,croissant,z,sounds/greatgatsby_english.wav,,,,,,,,,0,0,0,0,0,188,188,39,517.535785223,9.94245056063e-06,518.542565,1.00679036125,,,,,z,1,0.983854129678,2018_Nov_14_1402,59.9949394058,spanish_cond1,001,1023,
images/aquarium.jpg,computer mouse,x,sounds/greatgatsby_english.wav,,,,,,,,,0,0,0,0,0,189,189,159,519.677506271,1.02631747723e-05,520.576232324,0.898736958159,,,,,x,1,0.883641778724,2018_Nov_14_1402,59.9949394058,spanish_cond1,001,1023,
images/hanger02a.jpg,hanger,z,sounds/greatgatsby_english.wav,,,,,,,,,0,0,0,0,0,190,190,88,521.669162004,9.621726349e-06,522.510212002,0.841059940401,,,,,z,1,0.817103486857,2018_Nov_14_1402,59.9949394058,spanish_cond1,001,1023,
images/acousticguitar02.jpg,acoustic guitar,z,sounds/greatgatsby_english.wav,,,,,,,,,0,0,0,0,0,191,191,97,523.624067937,9.621726349e-06,524.460715361,0.83665768744,,,,,z,1,0.817106694216,2018_Nov_14_1402,59.9949394058,spanish_cond1,001,1023,
images/doll.jpg,carrot,x,sounds/greatgatsby_english.wav,,,,,,,,,0,0,0,0,0,192,192,146,525.572353172,8.98027792573e-06,527.144749962,1.57240641199,,,,,x,1,1.55063729396,2018_Nov_14_1402,59.9949394058,spanish_cond1,001,1023,
images/lighter02b.jpg,stapler,x,sounds/greatgatsby_english.wav,,,,,,,,,0,0,0,0,0,193,193,227,528.245041853,9.30100213736e-06,528.995229556,0.750197325251,,,,,x,1,0.733756068512,2018_Nov_14_1402,59.9949394058,spanish_cond1,001,1023,
images/lantern03.jpg,lantern,z,sounds/greatgatsby_english.wav,,,,,,,,,0,0,0,0,0,194,194,5,530.101215895,9.30100213736e-06,530.862372027,0.761165432865,,,,,z,1,0.750423435355,2018_Nov_14_1402,59.9949394058,spanish_cond1,001,1023,
images/sportshorts02.jpg,tape,x,sounds/greatgatsby_english.wav,,,,,,,,,0,0,0,0,0,195,195,230,531.969309633,9.621726349e-06,533.129614371,1.16031500197,,,,,x,1,1.15051785635,2018_Nov_14_1402,59.9949394058,spanish_cond1,001,1023,
images/sock03.jpg,sock,z,sounds/greatgatsby_english.wav,,,,,,,,,0,0,0,0,0,196,196,90,534.234363038,9.30100213736e-06,535.163504919,0.929152144585,,,,,z,1,0.917140722857,2018_Nov_14_1402,59.9949394058,spanish_cond1,001,1023,
images/medal01.jpg,medal,z,sounds/greatgatsby_english.wav,,,,,,,,,0,0,0,0,0,197,197,115,536.263516497,9.30100213736e-06,537.397418624,1.13391174783,,,,,z,1,1.11720653542,2018_Nov_14_1402,59.9949394058,spanish_cond1,001,1023,
images/flower01.jpg,bus,x,sounds/greatgatsby_english.wav,,,,,,,,,0,0,0,0,0,198,198,140,538.511044279,9.30100213736e-06,540.348170865,1.83713588654,,,,,x,1,1.81737674342,2018_Nov_14_1402,59.9949394058,spanish_cond1,001,1023,
images/50dollarbill.jpg,cherry,x,sounds/greatgatsby_english.wav,,,,,,,,,0,0,0,0,0,199,199,151,541.468699456,9.30088572204e-06,542.365351069,0.89666123467,,,,,x,1,0.883794122376,2018_Nov_14_1402,59.9949394058,spanish_cond1,001,1023,
images/toothbrush03a.jpg,parrot,x,sounds/greatgatsby_english.wav,,,,,,,,,0,0,0,0,0,200,200,210,543.457128388,3.27138695866e-05,544.132473944,0.67537249648,,,,,x,1,0.667060622247,2018_Nov_14_1402,59.9949394058,spanish_cond1,001,1023,
images/bull.jpg,button,x,sounds/greatgatsby_english.wav,,,,,,,,,0,0,0,0,0,201,201,141,545.236890661,9.621726349e-06,546.199671964,0.962791245198,,,,,x,1,0.950472890981,2018_Nov_14_1402,59.9949394058,spanish_cond1,001,1023,
images/dreamcatcher.jpg,dream catcher,z,sounds/greatgatsby_english.wav,,,,,,,,,0,0,0,0,0,202,202,48,547.29701031,9.30100213736e-06,548.400252217,1.10325120774,,,,,z,1,1.08384197426,2018_Nov_14_1402,59.9949394058,spanish_cond1,001,1023,
images/tank.jpg,wallet,x,sounds/greatgatsby_english.wav,,,,,,,,,0,0,0,0,0,203,203,237,549.503887331,9.621726349e-06,550.300751231,0.79687416309,,,,,x,1,0.783760414342,2018_Nov_14_1402,59.9949394058,spanish_cond1,001,1023,
images/crocodile.jpg,triangle ruler,x,sounds/greatgatsby_english.wav,,,,,,,,,0,0,0,0,0,204,204,235,551.397472826,8.98027792573e-06,552.134546139,0.737083576387,,,,,x,1,0.717063685181,2018_Nov_14_1402,59.9949394058,spanish_cond1,001,1023,
images/carrot02.jpg,corkscrew,x,sounds/greatgatsby_english.wav,,,,,,,,,0,0,0,0,0,205,205,161,553.236104247,8.98027792573e-06,554.018372334,0.782278029597,,,,,x,1,0.767093688832,2018_Nov_14_1402,59.9949394058,spanish_cond1,001,1023,
images/boxingglove02a.jpg,bracelet,x,sounds/greatgatsby_english.wav,,,,,,,,,0,0,0,0,0,206,206,135,555.129044766,9.94245056063e-06,555.902205584,0.773171081441,,,,,x,1,0.750435943715,2018_Nov_14_1402,59.9949394058,spanish_cond1,001,1023,
images/daisy.jpg,daisy,z,sounds/greatgatsby_english.wav,,,,,,,,,0,0,0,0,0,207,207,6,557.003404802,9.621726349e-06,557.819359136,0.815964276553,,,,,z,1,0.800440289429,2018_Nov_14_1402,59.9949394058,spanish_cond1,001,1023,
images/barrel01.jpg,barrel,z,sounds/greatgatsby_english.wav,,,,,,,,,0,0,0,0,0,208,208,9,558.9501047,9.94245056063e-06,560.403354898,1.45326046064,,,,,z,1,1.43391986203,2018_Nov_14_1402,59.9949394058,spanish_cond1,001,1023,
images/lily.jpg,kiwi,x,sounds/greatgatsby_english.wav,,,,,,,,,0,0,0,0,0,209,209,190,561.501725974,9.94245056063e-06,562.370538453,0.868822421413,,,,,x,1,0.850450087572,2018_Nov_14_1402,59.9949394058,spanish_cond1,001,1023,
,,,sounds/greatgatsby_english.wav,,,,,,,,,0,0,0,0,,,,,,,,,,,,,,,,2018_Nov_14_1402,59.9949394058,spanish_cond1,001,1023,
images/bowl02b (1).jpg,bowl,z,sounds/animalfarm_spanish.wav,,,,,,,,,0,1,1,1,0,0,0,24,583.515875019,9.62160993367e-06,586.110037079,2.59417264361,,,,573.373556784,z,1,2.58422924811,2018_Nov_14_1402,59.9949394058,spanish_cond1,001,1023,
images/icecube02 (2).jpg,aloe,x,sounds/animalfarm_spanish.wav,,,,,,,,,0,1,1,1,0,1,1,122,587.218998771,9.30100213736e-06,588.677354889,1.45836670196,,,,,x,1,1.43394167128,2018_Nov_14_1402,59.9949394058,spanish_cond1,001,1023,
images/chessknight02b (1).jpg,cockroach,x,sounds/animalfarm_spanish.wav,,,,,,,,,0,1,1,1,0,2,2,155,589.784411162,9.62160993367e-06,591.728145008,1.94374410866,,,,,x,1,1.93405921652,2018_Nov_14_1402,59.9949394058,spanish_cond1,001,1023,
images/nailpolish02b.jpg,nail polish,z,sounds/animalfarm_spanish.wav,,,,,,,,,0,1,1,1,0,3,3,94,592.835268313,9.30088572204e-06,593.528620898,0.693362206919,,,,,z,1,0.68362118816,2018_Nov_14_1402,59.9949394058,spanish_cond1,001,1023,
images/seagull.jpg,seagull,z,sounds/animalfarm_spanish.wav,,,,,,,,,0,1,1,1,0,4,4,50,594.634424745,8.98027792573e-06,596.195989415,1.56157429132,,,,,z,1,1.55063376599,2018_Nov_14_1402,59.9949394058,spanish_cond1,001,1023,
images/corkscrew02a.jpg,masquerade mask,x,sounds/animalfarm_spanish.wav,,,,,,,,,0,1,1,1,0,5,5,201,597.298018024,9.621726349e-06,598.379883378,1.08187497617,,,,,x,1,1.06717717322,2018_Nov_14_1402,59.9949394058,spanish_cond1,001,1023,
images/tie01.jpg,bench,x,sounds/animalfarm_spanish.wav,,,,,,,,,0,1,1,1,0,6,6,130,599.476834291,9.30100213736e-06,600.297037893,0.820213223575,,,,,x,1,0.800447345362,2018_Nov_14_1402,59.9949394058,spanish_cond1,001,1023,
images/plant01.jpg,plant,z,sounds/animalfarm_spanish.wav,,,,,,,,,0,1,1,1,0,7,7,47,601.407293384,9.94245056063e-06,602.080830379,0.673547899583,,,,,z,1,0.650403518463,2018_Nov_14_1402,59.9949394058,spanish_cond1,001,1023,
images/medal01.jpg,medal,z,sounds/animalfarm_spanish.wav,,,,,,,,,0,1,1,1,0,8,8,115,603.18012097,9.30100213736e-06,604.914897261,1.73478591221,,,,,z,1,1.71734335611,2018_Nov_14_1402,59.9949394058,spanish_cond1,001,1023,
images/broadsword.jpg,teapot,x,sounds/animalfarm_spanish.wav,,,,,,,,,0,1,1,1,0,9,9,231,606.007170739,9.30100213736e-06,606.7987164,0.791555602686,,,,,x,1,0.783773564035,2018_Nov_14_1402,59.9949394058,spanish_cond1,001,1023,
images/djmixer01.jpg,light bulb,x,sounds/animalfarm_spanish.wav,,,,,,,,,0,1,1,1,0,10,10,196,607.918461142,9.30100213736e-06,608.815908471,0.897457270767,,,,,x,1,0.883795405272,2018_Nov_14_1402,59.9949394058,spanish_cond1,001,1023,
images/lightbulb03b.jpg,treadmill,x,sounds/animalfarm_spanish.wav,,,,,,,,,0,1,1,1,0,11,11,234,609.917204547,8.98027792573e-06,611.299960968,1.38276636344,,,,,x,1,1.36733025464,2018_Nov_14_1402,59.9949394058,spanish_cond1,001,1023,
images/fryingpan01.jpg,frying pan,z,sounds/animalfarm_spanish.wav,,,,,,,,,0,1,1,1,0,12,12,45,612.398768549,9.621726349e-06,613.534050749,1.13529278373,,,,,z,1,1.11744900257,2018_Nov_14_1402,59.9949394058,spanish_cond1,001,1023,
images/screw03c.jpg,screw,z,sounds/animalfarm_spanish.wav,,,,,,,,,0,1,1,1,0,13,13,84,614.626355338,9.30100213736e-06,616.584596477,1.95825076033,,,,,z,1,1.93407942215,2018_Nov_14_1402,59.9949394058,spanish_cond1,001,1023,
images/camera01a.jpg,bull,x,sounds/animalfarm_spanish.wav,,,,,,,,,0,1,1,1,0,14,14,138,617.694133227,9.94245056063e-06,618.751829809,1.05770684511,,,,,x,1,1.03385430621,2018_Nov_14_1402,59.9949394058,spanish_cond1,001,1023,
images/gorilla.jpg,gorilla,z,sounds/animalfarm_spanish.wav,,,,,,,,,0,1,1,1,0,15,15,80,619.861277077,9.621726349e-06,621.085770806,1.22450399282,,,,,z,1,1.20055074664,2018_Nov_14_1402,59.9949394058,spanish_cond1,001,1023,
images/comb02a.jpg,diploma,x,sounds/animalfarm_spanish.wav,,,,,,,,,0,1,1,1,0,16,16,166,622.18818685,9.621726349e-06,622.902879425,0.714703159058,,,,,x,1,0.700402411865,2018_Nov_14_1402,59.9949394058,spanish_cond1,001,1023,
images/swan.jpg,swan,z,sounds/animalfarm_spanish.wav,,,,,,,,,0,1,1,1,0,17,17,54,623.993713175,8.98027792573e-06,624.703370068,0.709666514769,,,,,z,1,0.700377716334,2018_Nov_14_1402,59.9949394058,spanish_cond1,001,1023,
images/cocktailshrimp01.jpg,cocktail shrimp,z,sounds/animalfarm_spanish.wav,,,,,,,,,0,1,1,1,0,18,18,30,625.816582952,9.621726349e-06,626.520492478,0.703919146908,,,,,z,1,0.683738572989,2018_Nov_14_1402,59.9949394058,spanish_cond1,001,1023,
images/dresser02.jpg,dresser,z,sounds/animalfarm_spanish.wav,,,,,,,,,0,1,1,1,0,19,19,87,627.64134532,9.94233414531e-06,628.35431593,0.712980872951,,,,,z,1,0.700411712984,2018_Nov_14_1402,59.9949394058,spanish_cond1,001,1023,
images/tent.jpg,tent,z,sounds/animalfarm_spanish.wav,,,,,,,,,0,1,1,1,0,20,20,11,629.479372498,9.62160993367e-06,630.354818504,0.875456269481,,,,,z,1,0.86711937876,2018_Nov_14_1402,59.9949394058,spanish_cond1,001,1023,
images/desktopcomputer.jpg,desktop computer,z,sounds/animalfarm_spanish.wav,,,,,,,,,0,1,1,1,0,21,21,16,631.488668673,9.30100213736e-06,632.188641957,0.699983226135,,,,,z,1,0.683754929923,2018_Nov_14_1402,59.9949394058,spanish_cond1,001,1023,
images/squirrel.jpg,binder,x,sounds/animalfarm_spanish.wav,,,,,,,,,0,1,1,1,0,22,22,132,633.290028156,9.30100213736e-06,633.905731941,0.615713727195,,,,,x,1,0.600367100327,2018_Nov_14_1402,59.9949394058,spanish_cond1,001,1023,
images/lip.jpg,boxing glove,x,sounds/animalfarm_spanish.wav,,,,,,,,,0,1,1,1,0,23,23,136,635.007579662,8.98016151041e-06,635.806236087,0.798666366842,,,,,x,1,0.783768432448,2018_Nov_14_1402,59.9949394058,spanish_cond1,001,1023,
images/tissuebox03.jpg,tissue box,z,sounds/animalfarm_spanish.wav,,,,,,,,,0,1,1,1,0,24,24,58,636.929671396,8.98027792573e-06,637.689899674,0.760237899958,,,,,z,1,0.75025409332,2018_Nov_14_1402,59.9949394058,spanish_cond1,001,1023,
images/stapler03a.jpg,candy cane,x,sounds/animalfarm_spanish.wav,,,,,,,,,0,1,1,1,0,25,25,145,638.799499928,9.621726349e-06,639.507193671,0.70770368597,,,,,x,1,0.683743383852,2018_Nov_14_1402,59.9949394058,spanish_cond1,001,1023,
images/ladder.jpg,ladder,z,sounds/animalfarm_spanish.wav,,,,,,,,,0,1,1,1,0,26,26,113,640.598098622,9.621726349e-06,641.60773733,1.00964832969,,,,,z,1,1.0004929523,2018_Nov_14_1402,59.9949394058,spanish_cond1,001,1023,
images/masquerademask02b.jpg,mirror,x,sounds/animalfarm_spanish.wav,,,,,,,,,0,1,1,1,0,27,27,204,642.710764993,9.30100213736e-06,643.774971945,1.06421625242,,,,,x,1,1.05050659913,2018_Nov_14_1402,59.9949394058,spanish_cond1,001,1023,
images/lychee02a.jpg,lychee,z,sounds/animalfarm_spanish.wav,,,,,,,,,0,1,1,1,0,28,28,62,644.897774146,9.30100213736e-06,645.725479795,0.827714949846,,,,,z,1,0.817116957274,2018_Nov_14_1402,59.9949394058,spanish_cond1,001,1023,
images/gps.jpg,gps,z,sounds/animalfarm_spanish.wav,,,,,,,,,0,1,1,1,0,29,29,21,646.842372662,9.30100213736e-06,647.725987179,0.8836244595,,,,,z,1,0.86712194467,2018_Nov_14_1402,59.9949394058,spanish_cond1,001,1023,
images/spoon02b.jpg,spoon,z,sounds/animalfarm_spanish.wav,,,,,,,,,0,1,1,1,0,30,30,38,648.81568685,9.621726349e-06,649.759862653,0.94418542448,,,,,z,1,0.933824446751,2018_Nov_14_1402,59.9949394058,spanish_cond1,001,1023,
images/drink.jpg,drink,z,sounds/animalfarm_spanish.wav,,,,,,,,,0,1,1,1,0,31,31,117,650.859959223,9.94233414531e-06,651.577014569,0.717065288685,,,,,z,1,0.700433842954,2018_Nov_14_1402,59.9949394058,spanish_cond1,001,1023,
images/battery03b.jpg,battery,z,sounds/animalfarm_spanish.wav,,,,,,,,,0,1,1,1,0,32,32,34,652.68428669,8.98027792573e-06,653.477494019,0.793217271916,,,,,z,1,0.783780940576,2018_Nov_14_1402,59.9949394058,spanish_cond1,001,1023,
images/sock03.jpg,sock,z,sounds/animalfarm_spanish.wav,,,,,,,,,0,1,1,1,0,33,33,90,654.581733377,9.621726349e-06,655.411316221,0.829593428294,,,,,z,1,0.817114391481,2018_Nov_14_1402,59.9949394058,spanish_cond1,001,1023,
images/graduationcap.jpg,graduation cap,z,sounds/animalfarm_spanish.wav,,,,,,,,,0,1,1,1,0,34,34,35,656.512199847,9.30100213736e-06,657.295143057,0.78295251145,,,,,z,1,0.767104272731,2018_Nov_14_1402,59.9949394058,spanish_cond1,001,1023,
images/donut.jpg,rhinoceros,x,sounds/animalfarm_spanish.wav,,,,,,,,,0,1,1,1,0,35,35,216,658.419668827,9.30100213736e-06,659.145622972,0.725964087294,,,,,x,1,0.717093191692,2018_Nov_14_1402,59.9949394058,spanish_cond1,001,1023,
images/eraser.jpg,eraser,z,sounds/animalfarm_spanish.wav,,,,,,,,,0,1,1,1,0,36,36,110,660.251064402,9.621726349e-06,660.962749872,0.711695733364,,,,,z,1,0.700401770533,2018_Nov_14_1402,59.9949394058,spanish_cond1,001,1023,
images/dice05a.jpg,band aid,x,sounds/animalfarm_spanish.wav,,,,,,,,,0,1,1,1,0,37,37,126,662.073307164,9.621726349e-06,662.863263318,0.789966096287,,,,,x,1,0.767113573733,2018_Nov_14_1402,59.9949394058,spanish_cond1,001,1023,
images/boxingglove02a.jpg,bracelet,x,sounds/animalfarm_spanish.wav,,,,,,,,,0,1,1,1,0,38,38,135,663.972793974,9.30100213736e-06,664.980693077,1.00791834632,,,,,x,1,0.984016415896,2018_Nov_14_1402,59.9949394058,spanish_cond1,001,1023,
images/chameleon.jpg,50 dollar bill,x,sounds/animalfarm_spanish.wav,,,,,,,,,0,1,1,1,0,39,39,120,666.089006908,8.98027792573e-06,669.081556818,2.99255985266,,,,,None,0,,2018_Nov_14_1402,59.9949394058,spanish_cond1,001,1023,
images/birthdaycandle.jpg,birthday candle,z,sounds/animalfarm_spanish.wav,,,,,,,,,0,1,1,1,0,40,40,55,670.175961185,9.621726349e-06,671.198747638,1.02279671677,,,,,z,1,1.00050064956,2018_Nov_14_1402,59.9949394058,spanish_cond1,001,1023,
images/cigar.jpg,crocodile,x,sounds/animalfarm_spanish.wav,,,,,,,,,0,1,1,1,0,41,41,162,672.295372375,8.98027792573e-06,673.332615126,1.03725237318,,,,,x,1,1.01715294248,2018_Nov_14_1402,59.9949394058,spanish_cond1,001,1023,
images/mushroom01.jpg,shower head,x,sounds/animalfarm_spanish.wav,,,,,,,,,0,1,1,1,0,42,42,222,674.447393463,9.30100213736e-06,675.46652527,1.01914239139,,,,,x,1,1.00050000811,2018_Nov_14_1402,59.9949394058,spanish_cond1,001,1023,
images/safe.jpg,safe,z,sounds/animalfarm_spanish.wav,,,,,,,,,0,1,1,1,0,43,43,78,676.575894282,9.621726349e-06,677.63374898,1.05786464119,,,,,z,1,1.03383474192,2018_Nov_14_1402,59.9949394058,spanish_cond1,001,1023,
images/teapot.jpg,light switch,x,sounds/animalfarm_spanish.wav,,,,,,,,,0,1,1,1,0,44,44,197,678.749084414,9.621726349e-06,679.91765805,1.16858357855,,,,,x,1,1.15052298806,2018_Nov_14_1402,59.9949394058,spanish_cond1,001,1023,
images/paperclip04.jpg,eye drops,x,sounds/animalfarm_spanish.wav,,,,,,,,,0,1,1,1,0,45,45,174,681.02268735,8.98027792573e-06,681.801485207,0.778807478957,,,,,x,1,0.76710042404,2018_Nov_14_1402,59.9949394058,spanish_cond1,001,1023,
images/bowtie.jpg,bowtie,z,sounds/animalfarm_spanish.wav,,,,,,,,,0,1,1,1,0,46,46,89,682.909977039,9.621726349e-06,683.852035745,0.942069931305,,,,,z,1,0.93381674937,2018_Nov_14_1402,59.9949394058,spanish_cond1,001,1023,
images/egg01b (1).jpg,egg,z,sounds/animalfarm_spanish.wav,,,,,,,,,0,1,1,1,0,47,47,19,684.963445201,9.621726349e-06,686.252645569,1.28921031102,,,,,z,1,1.26723079826,2018_Nov_14_1402,59.9949394058,spanish_cond1,001,1023,
images/headphones02b.jpg,headphones,z,sounds/animalfarm_spanish.wav,,,,,,,,,0,1,1,1,0,48,48,101,687.359157254,8.98027792573e-06,688.10312805,0.743980097235,,,,,z,1,0.733748691855,2018_Nov_14_1402,59.9949394058,spanish_cond1,001,1023,
images/flamingo.jpg,flamingo,z,sounds/animalfarm_spanish.wav,,,,,,,,,0,1,1,1,0,49,49,52,689.201950064,9.621726349e-06,689.953607965,0.751668163924,,,,,z,1,0.733638042118,2018_Nov_14_1402,59.9949394058,spanish_cond1,001,1023,
images/bat.jpg,hand,x,sounds/animalfarm_spanish.wav,,,,,,,,,0,1,1,1,0,50,50,185,691.0503828,9.94245056063e-06,691.787420192,0.737047655392,,,,,x,1,0.717085494311,2018_Nov_14_1402,59.9949394058,spanish_cond1,001,1023,
images/cake.jpg,cake,z,sounds/animalfarm_spanish.wav,,,,,,,,,0,1,1,1,0,51,51,23,692.900323257,9.621726349e-06,693.621213496,0.720899860724,,,,,z,1,0.70040305343,2018_Nov_14_1402,59.9949394058,spanish_cond1,001,1023,
images/volleyball.jpg,volley ball,z,sounds/animalfarm_spanish.wav,,,,,,,,,0,1,1,1,0,52,52,2,694.753036692,9.621726349e-06,695.805117723,1.05209161539,,,,,z,1,1.03383089323,2018_Nov_14_1402,59.9949394058,spanish_cond1,001,1023,
images/ant.jpg,ant,z,sounds/animalfarm_spanish.wav,,,,,,,,,0,1,1,1,0,53,53,98,696.8981882,9.30100213736e-06,697.63894759,0.7407690119,,,,,z,1,0.717114038765,2018_Nov_14_1402,59.9949394058,spanish_cond1,001,1023,
images/tank.jpg,wallet,x,sounds/animalfarm_spanish.wav,,,,,,,,,0,1,1,1,0,54,54,237,698.743592663,9.621726349e-06,699.806150453,1.06256773276,,,,,x,1,1.05050339177,2018_Nov_14_1402,59.9949394058,spanish_cond1,001,1023,
images/lock02a.jpg,lock,z,sounds/animalfarm_spanish.wav,,,,,,,,,0,1,1,1,0,55,55,65,700.916233396,9.30100213736e-06,702.40682609,1.49060263659,,,,,z,1,1.46725780307,2018_Nov_14_1402,59.9949394058,spanish_cond1,001,1023,
images/globe.jpg,cloud,x,sounds/animalfarm_spanish.wav,,,,,,,,,0,1,1,1,0,56,56,154,703.533214623,9.30100213736e-06,704.190634613,0.657429932267,,,,,z,0,0.633737755124,2018_Nov_14_1402,59.9949394058,spanish_cond1,001,1023,
images/remotecontrol01c.jpg,remote control,z,sounds/animalfarm_spanish.wav,,,,,,,,,0,1,1,1,0,57,57,85,705.298648567,3.36760422215e-05,706.141128992,0.842506724759,,,,,z,1,0.833788814372,2018_Nov_14_1402,59.9949394058,spanish_cond1,001,1023,
images/computerkeyboard01a.jpg,computer keyboard,z,sounds/animalfarm_spanish.wav,,,,,,,,,0,1,1,1,0,58,58,61,707.257280026,9.621726349e-06,708.091636521,0.834365796298,,,,,z,1,0.817109259893,2018_Nov_14_1402,59.9949394058,spanish_cond1,001,1023,
images/paintbrush03a.jpg,paint brush,z,sounds/animalfarm_spanish.wav,,,,,,,,,0,1,1,1,0,59,59,0,709.190825764,9.621726349e-06,709.842090105,0.651274924632,,,,,z,1,0.633726209053,2018_Nov_14_1402,59.9949394058,spanish_cond1,001,1023,
images/hairdryer03a.jpg,hairdryer,z,sounds/animalfarm_spanish.wav,,,,,,,,,0,1,1,1,0,60,60,119,710.940024035,9.30100213736e-06,711.809284565,0.869270151714,,,,,z,1,0.850456822664,2018_Nov_14_1402,59.9949394058,spanish_cond1,001,1023,
images/lily.jpg,kiwi,x,sounds/animalfarm_spanish.wav,,,,,,,,,0,1,1,1,0,61,61,190,712.907225551,9.621726349e-06,713.776453367,0.869238079293,,,,,x,1,0.850462275092,2018_Nov_14_1402,59.9949394058,spanish_cond1,001,1023,
images/gluestick.jpg,squirrel,x,sounds/animalfarm_spanish.wav,,,,,,,,,0,1,1,1,0,62,62,226,714.882579221,8.98016151041e-06,715.643594555,0.761025597225,,,,,x,1,0.750430170679,2018_Nov_14_1402,59.9949394058,spanish_cond1,001,1023,
images/hand01a.jpg,cupcake,x,sounds/animalfarm_spanish.wav,,,,,,,,,0,1,1,1,0,63,63,163,716.753672045,9.30088572204e-06,717.527451539,0.773790078005,,,,,x,1,0.750467053731,2018_Nov_14_1402,59.9949394058,spanish_cond1,001,1023,
images/lion.jpg,lion,z,sounds/animalfarm_spanish.wav,,,,,,,,,0,1,1,1,0,64,64,44,718.639006283,9.30100213736e-06,719.394555203,0.755558862584,,,,,z,1,0.733743880992,2018_Nov_14_1402,59.9949394058,spanish_cond1,001,1023,
images/binder03b.jpg,dj mixer,x,sounds/animalfarm_spanish.wav,,,,,,,,,0,1,1,1,0,65,65,167,720.506026237,9.94245056063e-06,721.478482169,0.972465874278,,,,,x,1,0.950503680389,2018_Nov_14_1402,59.9949394058,spanish_cond1,001,1023,
images/highlighter03b.jpg,coin,x,sounds/animalfarm_spanish.wav,,,,,,,,,0,1,1,1,0,66,66,156,722.579469068,9.621726349e-06,723.44562371,0.866164905136,,,,,x,1,0.850464840885,2018_Nov_14_1402,59.9949394058,spanish_cond1,001,1023,
images/printer03a.jpg,printer,z,sounds/animalfarm_spanish.wav,,,,,,,,,0,1,1,1,0,67,67,72,724.553392951,8.98027792573e-06,725.579507875,1.02612422465,,,,,z,1,1.01717250666,2018_Nov_14_1402,59.9949394058,spanish_cond1,001,1023,
images/carrot02.jpg,corkscrew,x,sounds/animalfarm_spanish.wav,,,,,,,,,0,1,1,1,0,68,68,161,726.68037354,9.30100213736e-06,727.563352383,0.882988785277,,,,,x,1,0.867134132073,2018_Nov_14_1402,59.9949394058,spanish_cond1,001,1023,
images/envelope02a.jpg,grand piano,x,sounds/animalfarm_spanish.wav,,,,,,,,,0,1,1,1,0,69,69,182,728.685377471,9.30100213736e-06,730.06400265,1.37863512209,,,,,x,1,1.36726033676,2018_Nov_14_1402,59.9949394058,spanish_cond1,001,1023,
images/skateboard.jpg,key,x,sounds/animalfarm_spanish.wav,,,,,,,,,0,1,1,1,0,70,70,189,731.153777692,8.6595537141e-06,731.864459938,0.710691868211,,,,,x,1,0.700413958053,2018_Nov_14_1402,59.9949394058,spanish_cond1,001,1023,
images/cat.jpg,black olive,x,sounds/animalfarm_spanish.wav,,,,,,,,,0,1,1,1,0,71,71,133,732.99373755,9.621726349e-06,733.9650052,0.971277593053,,,,,x,1,0.950480267638,2018_Nov_14_1402,59.9949394058,spanish_cond1,001,1023,
images/cookingpot.jpg,grasshopper,x,sounds/animalfarm_spanish.wav,,,,,,,,,0,1,1,1,0,72,72,183,735.077355338,9.621726349e-06,736.365644852,1.2882997765,,,,,x,1,1.26721668639,2018_Nov_14_1402,59.9949394058,spanish_cond1,001,1023,
images/coffeepot03b.jpg,coffee pot,z,sounds/animalfarm_spanish.wav,,,,,,,,,0,1,1,1,0,73,73,107,737.485783122,9.30100213736e-06,739.28304921,1.79727635055,,,,,z,1,1.78402789787,2018_Nov_14_1402,59.9949394058,spanish_cond1,001,1023,
images/cauliflower01.jpg,glue stick,x,sounds/animalfarm_spanish.wav,,,,,,,,,0,1,1,1,0,74,74,181,740.398285219,9.30100213736e-06,741.083521892,0.685246615671,,,,,x,1,0.667071526754,2018_Nov_14_1402,59.9949394058,spanish_cond1,001,1023,
images/crocodile.jpg,triangle ruler,x,sounds/animalfarm_spanish.wav,,,,,,,,,0,1,1,1,0,75,75,235,742.179497484,9.62160993367e-06,743.050701278,0.87121341622,,,,,x,1,0.850456822664,2018_Nov_14_1402,59.9949394058,spanish_cond1,001,1023,
images/cheetah.jpg,cheetah,z,sounds/animalfarm_spanish.wav,,,,,,,,,0,1,1,1,0,76,76,82,744.152284402,9.30100213736e-06,745.301288122,1.14901366248,,,,,z,1,1.13386845007,2018_Nov_14_1402,59.9949394058,spanish_cond1,001,1023,
images/hat05.jpg,hat,z,sounds/animalfarm_spanish.wav,,,,,,,,,0,1,1,1,0,77,77,15,746.403619495,9.30100213736e-06,747.368491916,0.964882363449,,,,,z,1,0.950492134318,2018_Nov_14_1402,59.9949394058,spanish_cond1,001,1023,
images/sportshorts02.jpg,tape,x,sounds/animalfarm_spanish.wav,,,,,,,,,0,1,1,1,0,78,78,230,748.47464471,9.621726349e-06,749.252310734,0.777676286525,,,,,x,1,0.767105555627,2018_Nov_14_1402,59.9949394058,spanish_cond1,001,1023,
images/handfan01b.jpg,handfan,z,sounds/animalfarm_spanish.wav,,,,,,,,,0,1,1,1,0,79,79,69,750.365517204,8.98027792573e-06,751.286325722,0.920818140381,,,,,z,1,0.900626661954,2018_Nov_14_1402,59.9949394058,spanish_cond1,001,1023,
images/puzzle.jpg,puzzle,z,sounds/animalfarm_spanish.wav,,,,,,,,,0,1,1,1,0,80,80,57,752.405665391,9.30100213736e-06,753.136654256,0.730998486513,,,,,z,1,0.717085173703,2018_Nov_14_1402,59.9949394058,spanish_cond1,001,1023,
images/rhinoceros01.jpg,envelope,x,sounds/animalfarm_spanish.wav,,,,,,,,,0,1,1,1,0,81,81,173,754.249147116,9.30088572204e-06,755.137153622,0.888016449171,,,,,x,1,0.867113926448,2018_Nov_14_1402,59.9949394058,spanish_cond1,001,1023,
images/dragonfly02.jpg,dragon fly,z,sounds/animalfarm_spanish.wav,,,,,,,,,0,1,1,1,0,82,82,29,756.235101665,9.621726349e-06,757.037640449,0.802548726671,,,,,z,1,0.783750792616,2018_Nov_14_1402,59.9949394058,spanish_cond1,001,1023,
images/redfox.jpg,red fox,z,sounds/animalfarm_spanish.wav,,,,,,,,,0,1,1,1,0,83,83,1,758.150452108,9.30100213736e-06,759.238222306,1.08778014011,,,,,z,1,1.06716626859,2018_Nov_14_1402,59.9949394058,spanish_cond1,001,1023,
images/barrel01.jpg,barrel,z,sounds/animalfarm_spanish.wav,,,,,,,,,0,1,1,1,0,84,84,9,760.368815847,9.621726349e-06,761.555321142,1.18651523802,,,,,z,1,1.16702742735,2018_Nov_14_1402,59.9949394058,spanish_cond1,001,1023,
images/treadmill.jpg,lily,x,sounds/animalfarm_spanish.wav,,,,,,,,,0,1,1,1,0,85,85,199,762.661488049,8.98027792573e-06,763.756071379,1.0945935935,,,,,x,1,1.08385993482,2018_Nov_14_1402,59.9949394058,spanish_cond1,001,1023,
images/lettuce.jpg,mushroom,x,sounds/animalfarm_spanish.wav,,,,,,,,,0,1,1,1,0,86,86,205,764.880023695,9.62160993367e-06,766.306746839,1.42673340708,,,,,x,1,1.41727494588,2018_Nov_14_1402,59.9949394058,spanish_cond1,001,1023,
images/dolphin01.jpg,dolphin,z,sounds/animalfarm_spanish.wav,,,,,,,,,0,1,1,1,0,87,87,99,767.407356567,9.30100213736e-06,768.107051462,0.699705479434,,,,,z,1,0.683604831342,2018_Nov_14_1402,59.9949394058,spanish_cond1,001,1023,
images/weight01.jpg,weight,z,sounds/animalfarm_spanish.wav,,,,,,,,,0,1,1,1,0,88,88,67,769.212431954,9.30100213736e-06,769.874322511,0.661901140702,,,,,z,1,0.65040640498,2018_Nov_14_1402,59.9949394058,spanish_cond1,001,1023,
images/candycane01a.jpg,lip,x,sounds/animalfarm_spanish.wav,,,,,,,,,0,1,1,1,0,89,89,200,770.966846796,8.98027792573e-06,771.708153982,0.741316807922,,,,,x,1,0.717117566615,2018_Nov_14_1402,59.9949394058,spanish_cond1,001,1023,
images/bandaid01.jpg,door handle,x,sounds/animalfarm_spanish.wav,,,,,,,,,0,1,1,1,0,90,90,170,772.815351374,9.30100213736e-06,773.691963531,0.876622100011,,,,,x,1,0.867105908459,2018_Nov_14_1402,59.9949394058,spanish_cond1,001,1023,
images/mattress.jpg,cat,x,sounds/animalfarm_spanish.wav,,,,,,,,,0,1,1,1,0,91,91,147,774.796390512,9.30100213736e-06,775.559121397,0.762741468847,,,,,x,1,0.750434660702,2018_Nov_14_1402,59.9949394058,spanish_cond1,001,1023,
images/table02.jpg,table,z,sounds/animalfarm_spanish.wav,,,,,,,,,0,1,1,1,0,92,92,49,776.674139314,9.30100213736e-06,777.559640969,0.88551223895,,,,,z,1,0.867115530185,2018_Nov_14_1402,59.9949394058,spanish_cond1,001,1023,
images/corn01.jpg,corn,z,sounds/animalfarm_spanish.wav,,,,,,,,,0,1,1,1,0,93,93,22,778.659288205,8.6595537141e-06,779.360097295,0.700818390585,,,,,z,1,0.683737931657,2018_Nov_14_1402,59.9949394058,spanish_cond1,001,1023,
images/doll.jpg,carrot,x,sounds/animalfarm_spanish.wav,,,,,,,,,0,1,1,1,0,94,94,146,780.471452868,9.62160993367e-06,781.560676265,1.0892339804,,,,,x,1,1.06717973901,2018_Nov_14_1402,59.9949394058,spanish_cond1,001,1023,
images/microphone01.jpg,diaper,x,sounds/animalfarm_spanish.wav,,,,,,,,,0,1,1,1,0,95,95,164,782.659688789,9.621726349e-06,783.644625361,0.984946514596,,,,,x,1,0.967227173969,2018_Nov_14_1402,59.9949394058,spanish_cond1,001,1023,
images/raisin.jpg,ruler,x,sounds/animalfarm_spanish.wav,,,,,,,,,0,1,1,1,0,96,96,218,784.748818213,9.30100213736e-06,785.945148237,1.19633964507,,,,,x,1,1.18387696531,2018_Nov_14_1402,59.9949394058,spanish_cond1,001,1023,
images/antelope.jpg,antelope,z,sounds/animalfarm_spanish.wav,,,,,,,,,0,1,1,1,0,97,97,12,787.048425102,9.94245056063e-06,787.745633107,0.697218588204,,,,,z,1,0.683769362513,2018_Nov_14_1402,59.9949394058,spanish_cond1,001,1023,
images/lemon02.jpg,lemon,z,sounds/animalfarm_spanish.wav,,,,,,,,,0,1,1,1,0,98,98,14,788.857999922,8.98027792573e-06,791.846521864,2.98853188427,,,,,None,0,,2018_Nov_14_1402,59.9949394058,spanish_cond1,001,1023,
images/electrictoothbrush01a.jpg,banjo,x,sounds/animalfarm_spanish.wav,,,,,,,,,0,1,1,1,0,99,99,127,792.942224199,9.94233414531e-06,794.130609898,1.18839564081,,,,,x,1,1.16721665428,2018_Nov_14_1402,59.9949394058,spanish_cond1,001,1023,
images/lipstick04.jpg,lipstick,z,sounds/animalfarm_spanish.wav,,,,,,,,,0,1,1,1,0,100,100,56,795.230981328,9.621726349e-06,796.147790102,0.916819037171,,,,,z,1,0.900464375853,2018_Nov_14_1402,59.9949394058,spanish_cond1,001,1023,
images/worldmap.jpg,scooter,x,sounds/animalfarm_spanish.wav,,,,,,,,,0,1,1,1,0,101,101,220,797.278811488,9.30100213736e-06,798.064957445,0.786155899288,,,,,x,1,0.767103952006,2018_Nov_14_1402,59.9949394058,spanish_cond1,001,1023,
images/hammer02a.jpg,flower,x,sounds/animalfarm_spanish.wav,,,,,,,,,0,1,1,1,0,102,102,176,799.160253744,9.30100213736e-06,800.882354715,1.72211187554,,,,,x,1,1.70067951712,2018_Nov_14_1402,59.9949394058,spanish_cond1,001,1023,
images/watermelon01.jpg,orange,x,sounds/animalfarm_spanish.wav,,,,,,,,,0,1,1,1,0,103,103,207,802.011965237,8.98027792573e-06,803.483020409,1.47106575512,,,,,x,1,1.45061000041,2018_Nov_14_1402,59.9949394058,spanish_cond1,001,1023,
images/button07.jpg,radish,x,sounds/animalfarm_spanish.wav,,,,,,,,,0,1,1,1,0,104,104,215,804.594201829,9.30100213736e-06,805.500209272,0.906016743742,,,,,x,1,0.883797650225,2018_Nov_14_1402,59.9949394058,spanish_cond1,001,1023,
images/tape01a.jpg,tie,x,sounds/animalfarm_spanish.wav,,,,,,,,,0,1,1,1,0,105,105,232,806.625939039,8.98027792573e-06,807.434040775,0.808111037128,,,,,x,1,0.783765866654,2018_Nov_14_1402,59.9949394058,spanish_cond1,001,1023,
images/giraffe.jpg,lettuce,x,sounds/animalfarm_spanish.wav,,,,,,,,,0,1,1,1,0,106,106,195,808.535550132,1.02631747723e-05,809.301241617,0.765702068922,,,,,x,1,0.750473468332,2018_Nov_14_1402,59.9949394058,spanish_cond1,001,1023,
images/panda.jpg,panda,z,sounds/animalfarm_spanish.wav,,,,,,,,,0,1,1,1,0,107,107,83,810.410303696,9.94245056063e-06,811.285038017,0.874744263012,,,,,z,1,0.850447201054,2018_Nov_14_1402,59.9949394058,spanish_cond1,001,1023,
images/handbag02a.jpg,candle,x,sounds/animalfarm_spanish.wav,,,,,,,,,0,1,1,1,0,108,108,144,812.401272118,8.98027792573e-06,813.068844936,0.667582439608,,,,,x,1,0.650404801359,2018_Nov_14_1402,59.9949394058,spanish_cond1,001,1023,
images/screwdriver02b.jpg,cola,x,sounds/animalfarm_spanish.wav,,,,,,,,,0,1,1,1,0,109,109,158,814.163002987,2.50163720921e-05,815.019351824,0.856374494848,,,,,x,1,0.833793625236,2018_Nov_14_1402,59.9949394058,spanish_cond1,001,1023,
images/shotglass.jpg,shot glass,z,sounds/animalfarm_spanish.wav,,,,,,,,,0,1,1,1,0,110,110,86,816.12824424,9.94245056063e-06,816.936514035,0.808280379279,,,,,z,1,0.783776450437,2018_Nov_14_1402,59.9949394058,spanish_cond1,001,1023,
images/beermug01b.jpg,beer mug,z,sounds/animalfarm_spanish.wav,,,,,,,,,0,1,1,1,0,111,111,111,818.053799469,8.98027792573e-06,818.853684265,0.799894417753,,,,,z,1,0.783782223589,2018_Nov_14_1402,59.9949394058,spanish_cond1,001,1023,
images/puma.jpg,puma,z,sounds/animalfarm_spanish.wav,,,,,,,,,0,1,1,1,0,112,112,4,819.952728861,8.98027792573e-06,821.087586423,1.13486718351,,,,,z,1,1.11718857498,2018_Nov_14_1402,59.9949394058,spanish_cond1,001,1023,
images/doorhandle.jpg,doll,x,sounds/animalfarm_spanish.wav,,,,,,,,,0,1,1,1,0,113,113,168,822.190371619,9.30100213736e-06,823.021416643,0.831054965965,,,,,x,1,0.817109901458,2018_Nov_14_1402,59.9949394058,spanish_cond1,001,1023,
images/knife04.jpg,tooth brush,x,sounds/animalfarm_spanish.wav,,,,,,,,,0,1,1,1,0,114,114,233,824.119439093,9.62160993367e-06,824.73854351,0.619113718625,,,,,x,1,0.600369345397,2018_Nov_14_1402,59.9949394058,spanish_cond1,001,1023,
images/feather03b.jpg,feather,z,sounds/animalfarm_spanish.wav,,,,,,,,,0,1,1,1,0,115,115,114,825.83949545,8.98016151041e-06,826.70570654,0.866220711032,,,,,z,1,0.850365416496,2018_Nov_14_1402,59.9949394058,spanish_cond1,001,1023,
images/calculator02b.jpg,dice,x,sounds/animalfarm_spanish.wav,,,,,,,,,0,1,1,1,0,116,116,165,827.807502945,9.30100213736e-06,828.506168959,0.698676277301,,,,,x,1,0.683726385585,2018_Nov_14_1402,59.9949394058,spanish_cond1,001,1023,
images/highheelshoe02a.jpg,high heel shoe,z,sounds/animalfarm_spanish.wav,,,,,,,,,0,1,1,1,0,117,117,75,829.613142486,9.30100213736e-06,830.456688676,0.843556453241,,,,,z,1,0.833791059442,2018_Nov_14_1402,59.9949394058,spanish_cond1,001,1023,
images/tulip02.jpg,sport shorts,x,sounds/animalfarm_spanish.wav,,,,,,,,,0,1,1,1,0,118,118,225,831.55137592,9.94245056063e-06,832.640578791,1.08921281272,,,,,x,1,1.06717075873,2018_Nov_14_1402,59.9949394058,spanish_cond1,001,1023,
images/floorlamp.jpg,floor lamp,z,sounds/animalfarm_spanish.wav,,,,,,,,,0,1,1,1,0,119,119,26,833.732900057,9.30100213736e-06,834.6911165,0.95822638541,,,,,z,1,0.933819315163,2018_Nov_14_1402,59.9949394058,spanish_cond1,001,1023,
images/lamp04b.jpg,parking meter,x,sounds/animalfarm_spanish.wav,,,,,,,,,0,1,1,1,0,120,120,209,835.811298389,9.621726349e-06,836.741645229,0.930357103352,,,,,x,1,0.917133987765,2018_Nov_14_1402,59.9949394058,spanish_cond1,001,1023,
images/ashtray02b.jpg,ashtray,z,sounds/animalfarm_spanish.wav,,,,,,,,,0,1,1,1,0,121,121,43,837.855764478,8.98027792573e-06,839.50901474,1.65326020413,,,,,z,1,1.63397797721,2018_Nov_14_1402,59.9949394058,spanish_cond1,001,1023,
images/bicycle.jpg,hand bag,x,sounds/animalfarm_spanish.wav,,,,,,,,,0,1,1,1,0,122,122,186,840.619099607,9.94245056063e-06,841.276149482,0.657059817226,,,,,x,1,0.633724284824,2018_Nov_14_1402,59.9949394058,spanish_cond1,001,1023,
images/hairpin.jpg,hair pin,z,sounds/animalfarm_spanish.wav,,,,,,,,,0,1,1,1,0,123,123,28,842.367353026,9.621726349e-06,843.109948238,0.742604834144,,,,,z,1,0.733748050407,2018_Nov_14_1402,59.9949394058,spanish_cond1,001,1023,
images/gamecontroller01.jpg,game controller,z,sounds/animalfarm_spanish.wav,,,,,,,,,0,1,1,1,0,124,124,112,844.23025553,9.621726349e-06,845.760657406,1.53041213949,,,,,x,0,1.51730737102,2018_Nov_14_1402,59.9949394058,spanish_cond1,001,1023,
images/radish01.jpg,raisin,x,sounds/animalfarm_spanish.wav,,,,,,,,,0,1,1,1,0,125,125,214,846.871800982,8.98027792573e-06,848.32797201,1.45618032885,,,,,x,1,1.43392691796,2018_Nov_14_1402,59.9949394058,spanish_cond1,001,1023,
images/hairband.jpg,hairband,z,sounds/animalfarm_spanish.wav,,,,,,,,,0,1,1,1,0,126,126,66,849.437939812,9.621726349e-06,850.428527535,0.99059766531,,,,,z,1,0.967155011254,2018_Nov_14_1402,59.9949394058,spanish_cond1,001,1023,
images/plate01b.jpg,plate,z,sounds/animalfarm_spanish.wav,,,,,,,,,0,1,1,1,0,127,127,3,851.526062806,8.98027792573e-06,852.245668547,0.719615683192,,,,,z,1,0.700422617607,2018_Nov_14_1402,59.9949394058,spanish_cond1,001,1023,
images/leaf01a.jpg,leaf,z,sounds/animalfarm_spanish.wav,,,,,,,,,0,1,1,1,0,128,128,68,853.34888223,9.621726349e-06,854.212834142,0.863962175208,,,,,z,1,0.850442710915,2018_Nov_14_1402,59.9949394058,spanish_cond1,001,1023,
images/nametag01a.jpg,name tag,z,sounds/animalfarm_spanish.wav,,,,,,,,,0,1,1,1,0,129,129,108,855.333362412,9.621726349e-06,856.48009573,1.14674325986,,,,,z,1,1.13386043196,2018_Nov_14_1402,59.9949394058,spanish_cond1,001,1023,
images/fireextinguisher02.jpg,fire extinguisher,z,sounds/animalfarm_spanish.wav,,,,,,,,,0,1,1,1,0,130,130,175,857.591375292,9.94245056063e-06,858.347255519,0.755890811561,,,,,z,1,0.73377114255,2018_Nov_14_1402,59.9949394058,spanish_cond1,001,1023,
images/glasses01b.jpg,calculator,x,sounds/animalfarm_spanish.wav,,,,,,,,,0,1,1,1,0,131,131,142,859.440259606,9.621726349e-06,860.331081746,0.890832082252,,,,,x,1,0.867121303105,2018_Nov_14_1402,59.9949394058,spanish_cond1,001,1023,
images/banana04a.jpg,banana,z,sounds/animalfarm_spanish.wav,,,,,,,,,0,1,1,1,0,132,132,118,861.436574492,9.30100213736e-06,862.114898608,0.678334700176,,,,,z,1,0.667091411771,2018_Nov_14_1402,59.9949394058,spanish_cond1,001,1023,
images/bull.jpg,button,x,sounds/animalfarm_spanish.wav,,,,,,,,,0,1,1,1,0,133,133,141,863.221026707,9.62160993367e-06,864.11539124,0.894375116448,,,,,x,1,0.883791556465,2018_Nov_14_1402,59.9949394058,spanish_cond1,001,1023,
images/dryingmachine01.jpg,drying machine,z,sounds/animalfarm_spanish.wav,,,,,,,,,0,1,1,1,0,134,134,18,865.237082454,9.30100213736e-06,866.182599844,0.945527011529,,,,,z,1,0.933801354724,2018_Nov_14_1402,59.9949394058,spanish_cond1,001,1023,
images/orange.jpg,bat,x,sounds/animalfarm_spanish.wav,,,,,,,,,0,1,1,1,0,135,135,128,867.307830564,9.94245056063e-06,867.983057452,0.675236509647,,,,,x,1,0.667057094281,2018_Nov_14_1402,59.9949394058,spanish_cond1,001,1023,
images/croissant02b.jpg,croissant,z,sounds/animalfarm_spanish.wav,,,,,,,,,0,1,1,1,0,136,136,39,869.095030419,8.98027792573e-06,870.050284017,0.955263860989,,,,,z,1,0.933824767591,2018_Nov_14_1402,59.9949394058,spanish_cond1,001,1023,
images/arrow02.jpg,hammer,x,sounds/animalfarm_spanish.wav,,,,,,,,,0,1,1,1,0,137,137,184,871.147238778,9.621726349e-06,871.900758159,0.753529964713,,,,,x,1,0.733763445169,2018_Nov_14_1402,59.9949394058,spanish_cond1,001,1023,
images/belt02a.jpg,snowman,x,sounds/animalfarm_spanish.wav,,,,,,,,,0,1,1,1,0,138,138,224,873.004457097,9.30100213736e-06,873.784568638,0.780121483724,,,,,x,1,0.767088557244,2018_Nov_14_1402,59.9949394058,spanish_cond1,001,1023,
images/bullet (2).jpg,rubber glove,x,sounds/animalfarm_spanish.wav,,,,,,,,,0,1,1,1,0,139,139,217,874.890493719,9.30088572204e-06,875.835120138,0.944637003355,,,,,x,1,0.933827974717,2018_Nov_14_1402,59.9949394058,spanish_cond1,001,1023,
images/pepper05a.jpg,lighter,x,sounds/animalfarm_spanish.wav,,,,,,,,,0,1,1,1,0,140,140,198,876.957170242,9.30100213736e-06,877.952322184,0.995161883649,,,,,x,1,0.983817888075,2018_Nov_14_1402,59.9949394058,spanish_cond1,001,1023,
images/straw.jpg,straw,z,sounds/animalfarm_spanish.wav,,,,,,,,,0,1,1,1,0,141,141,109,879.043721049,8.98027792573e-06,880.019829381,0.976134632132,,,,,z,1,0.96738689451,2018_Nov_14_1402,59.9949394058,spanish_cond1,001,1023,
images/lighter02b.jpg,stapler,x,sounds/animalfarm_spanish.wav,,,,,,,,,0,1,1,1,0,142,142,227,881.122385581,8.98027792573e-06,882.070064969,0.947689009598,,,,,x,1,0.9338145043,2018_Nov_14_1402,59.9949394058,spanish_cond1,001,1023,
images/marker01a.jpg,marker,z,sounds/animalfarm_spanish.wav,,,,,,,,,0,1,1,1,0,143,143,95,883.168585182,9.30100213736e-06,884.187272146,1.01869754773,,,,,z,1,1.00049134868,2018_Nov_14_1402,59.9949394058,spanish_cond1,001,1023,
images/parkingmeter.jpg,ear,x,sounds/animalfarm_spanish.wav,,,,,,,,,0,1,1,1,0,144,144,171,885.289252005,9.621726349e-06,886.237791574,0.948549831985,,,,,x,1,0.933792053605,2018_Nov_14_1402,59.9949394058,spanish_cond1,001,1023,
images/bottleofredwine02.jpg,pipe,x,sounds/animalfarm_spanish.wav,,,,,,,,,0,1,1,1,0,145,145,213,887.336400307,9.94245056063e-06,888.655093781,1.31870405842,,,,,x,1,1.30056489049,2018_Nov_14_1402,59.9949394058,spanish_cond1,001,1023,
images/coin01b.jpg,arrow,x,sounds/animalfarm_spanish.wav,,,,,,,,,0,1,1,1,0,146,146,124,889.757997645,9.94245056063e-06,890.505574337,0.747586955433,,,,,x,1,0.733755747788,2018_Nov_14_1402,59.9949394058,spanish_cond1,001,1023,
images/flipflop01b.jpg,flip flop,z,sounds/animalfarm_spanish.wav,,,,,,,,,0,1,1,1,0,147,147,27,891.623087805,9.621726349e-06,892.372729637,0.749651453574,,,,,z,1,0.7337506162,2018_Nov_14_1402,59.9949394058,spanish_cond1,001,1023,
images/8ball.jpg,nail clipper,x,sounds/animalfarm_spanish.wav,,,,,,,,,0,1,1,1,0,148,148,206,893.488654561,9.621726349e-06,894.256539796,0.767895497964,,,,,x,1,0.750424718368,2018_Nov_14_1402,59.9949394058,spanish_cond1,001,1023,
images/elbow.jpg,elbow,z,sounds/animalfarm_spanish.wav,,,,,,,,,0,1,1,1,0,149,149,105,895.368998018,9.621726349e-06,896.140397101,0.771409025649,,,,,z,1,0.750455187052,2018_Nov_14_1402,59.9949394058,spanish_cond1,001,1023,
images/snowman.jpg,globe,x,sounds/animalfarm_spanish.wav,,,,,,,,,0,1,1,1,0,150,150,180,897.251632724,9.94233414531e-06,898.124055268,0.872433128301,,,,,x,1,0.850289404974,2018_Nov_14_1402,59.9949394058,spanish_cond1,001,1023,
images/cactus.jpg,cactus,z,sounds/animalfarm_spanish.wav,,,,,,,,,0,1,1,1,0,151,151,70,899.23620303,9.30100213736e-06,900.074765174,0.838572407723,,,,,z,1,0.817156085628,2018_Nov_14_1402,59.9949394058,spanish_cond1,001,1023,
images/clothespin02a.jpg,clothes pin,z,sounds/animalfarm_spanish.wav,,,,,,,,,0,1,1,1,0,152,152,79,901.180002944,9.30100213736e-06,902.258638291,1.07864528894,,,,,z,1,1.06719673739,2018_Nov_14_1402,59.9949394058,spanish_cond1,001,1023,
images/computermouse02a.jpg,world map,x,sounds/animalfarm_spanish.wav,,,,,,,,,0,1,1,1,0,153,153,239,903.360535082,9.94233414531e-06,904.09245148,0.731926340028,,,,,x,1,0.717101209797,2018_Nov_14_1402,59.9949394058,spanish_cond1,001,1023,
images/parkbench03.jpg,park bench,z,sounds/animalfarm_spanish.wav,,,,,,,,,0,1,1,1,0,154,154,71,905.199043666,9.30100213736e-06,905.942912151,0.743878107052,,,,,z,1,0.733749333303,2018_Nov_14_1402,59.9949394058,spanish_cond1,001,1023,
images/baseball01a.jpg,baseball,z,sounds/animalfarm_spanish.wav,,,,,,,,,0,1,1,1,0,155,155,74,907.075728628,8.98027792573e-06,907.976773193,0.901054507354,,,,,x,0,0.883783538477,2018_Nov_14_1402,59.9949394058,spanish_cond1,001,1023,
images/blackolive.jpg,tank,x,sounds/animalfarm_spanish.wav,,,,,,,,,0,1,1,1,0,156,156,229,909.092060197,9.62160993367e-06,910.160666515,1.06861626019,,,,,x,1,1.05050435406,2018_Nov_14_1402,59.9949394058,spanish_cond1,001,1023,
images/aloe02.jpg,broad sword,x,sounds/animalfarm_spanish.wav,,,,,,,,,0,1,1,1,0,157,157,137,911.281541808,9.30100213736e-06,912.344565931,1.06303374423,,,,,x,1,1.0505024296,2018_Nov_14_1402,59.9949394058,spanish_cond1,001,1023,
images/triangleruler02.jpg,bottle of red wine,x,sounds/animalfarm_spanish.wav,,,,,,,,,0,1,1,1,0,158,158,134,913.456211118,9.30100213736e-06,914.578475786,1.12227428984,,,,,x,1,1.10049105994,2018_Nov_14_1402,59.9949394058,spanish_cond1,001,1023,
images/scissors04a.jpg,leek,x,sounds/animalfarm_spanish.wav,,,,,,,,,0,1,1,1,0,159,159,194,915.67287438,9.30100213736e-06,916.462311924,0.789447165444,,,,,x,1,0.76710876287,2018_Nov_14_1402,59.9949394058,spanish_cond1,001,1023,
images/banjo.jpg,knife,x,sounds/animalfarm_spanish.wav,,,,,,,,,0,1,1,1,0,160,160,191,917.559347507,9.30088572204e-06,918.462828289,0.903491044883,,,,,x,1,0.883809517138,2018_Nov_14_1402,59.9949394058,spanish_cond1,001,1023,
images/lightswitch02a.jpg,fork,x,sounds/animalfarm_spanish.wav,,,,,,,,,0,1,1,1,0,161,161,177,919.574880474,9.30100213736e-06,920.563406906,0.988536053686,,,,,x,1,0.967194460216,2018_Nov_14_1402,59.9949394058,spanish_cond1,001,1023,
images/butterfly.jpg,butterfly,z,sounds/animalfarm_spanish.wav,,,,,,,,,0,1,1,1,0,162,162,91,921.671344528,9.30088572204e-06,922.497196715,0.82586148777,,,,,z,1,0.817115995102,2018_Nov_14_1402,59.9949394058,spanish_cond1,001,1023,
images/nailclipper03a.jpg,aquarium,x,sounds/animalfarm_spanish.wav,,,,,,,,,0,1,1,1,0,163,163,123,923.596881476,9.621726349e-06,924.297678698,0.700806844514,,,,,x,1,0.683758778614,2018_Nov_14_1402,59.9949394058,spanish_cond1,001,1023,
images/toucan.jpg,toucan,z,sounds/animalfarm_spanish.wav,,,,,,,,,0,1,1,1,0,164,164,81,925.398792283,9.621726349e-06,926.181479235,0.782696894719,,,,,z,1,0.767096254509,2018_Nov_14_1402,59.9949394058,spanish_cond1,001,1023,
images/thumbtack02a.jpg,thumb tack,z,sounds/animalfarm_spanish.wav,,,,,,,,,0,1,1,1,0,165,165,60,927.292324538,1.02631747723e-05,928.21534188,0.923027605633,,,,,z,1,0.900461489335,2018_Nov_14_1402,59.9949394058,spanish_cond1,001,1023,
images/ladybug03.jpg,giraffe,x,sounds/animalfarm_spanish.wav,,,,,,,,,0,1,1,1,0,166,166,178,929.318685136,9.30100213736e-06,930.249208374,0.930533822044,,,,,x,1,0.917144571664,2018_Nov_14_1402,59.9949394058,spanish_cond1,001,1023,
images/basketball01.jpg,basket ball,z,sounds/animalfarm_spanish.wav,,,,,,,,,0,1,1,1,0,167,167,33,931.389365573,9.30100213736e-06,932.216380383,0.827026035404,,,,,z,1,0.817102524685,2018_Nov_14_1402,59.9949394058,spanish_cond1,001,1023,
images/apricot.jpg,apricot,z,sounds/animalfarm_spanish.wav,,,,,,,,,0,1,1,1,0,168,168,32,933.334617725,9.30100213736e-06,934.217036584,0.882428801735,,,,,z,1,0.867256007157,2018_Nov_14_1402,59.9949394058,spanish_cond1,001,1023,
images/bench02.jpg,electric toothbrush,x,sounds/animalfarm_spanish.wav,,,,,,,,,0,1,1,1,0,169,169,172,935.325921303,9.94245056063e-06,936.250769015,0.924857654842,,,,,x,1,0.900471752393,2018_Nov_14_1402,59.9949394058,spanish_cond1,001,1023,
images/mitten01.jpg,mitten,z,sounds/animalfarm_spanish.wav,,,,,,,,,0,1,1,1,0,170,170,102,937.371837384,9.30100213736e-06,938.167945018,0.796116934624,,,,,z,1,0.783790241578,2018_Nov_14_1402,59.9949394058,spanish_cond1,001,1023,
images/umbrella01.jpg,umbrella,z,sounds/animalfarm_spanish.wav,,,,,,,,,0,1,1,1,0,171,171,53,939.281217557,9.62160993367e-06,940.06841677,0.787209155736,,,,,z,1,0.767093368107,2018_Nov_14_1402,59.9949394058,spanish_cond1,001,1023,
images/pingpongpaddle01c (1).jpg,ping pong paddle,z,sounds/animalfarm_spanish.wav,,,,,,,,,0,1,1,1,0,172,172,10,941.179564836,9.30088572204e-06,942.785799255,1.60624436126,,,,,z,1,1.58399351616,2018_Nov_14_1402,59.9949394058,spanish_cond1,001,1023,
images/acousticguitar02.jpg,acoustic guitar,z,sounds/animalfarm_spanish.wav,,,,,,,,,0,1,1,1,0,173,173,97,943.898763899,9.30100213736e-06,944.586254297,0.687500340748,,,,,z,1,0.667072809651,2018_Nov_14_1402,59.9949394058,spanish_cond1,001,1023,
images/cloud.jpg,ceiling fan,x,sounds/animalfarm_spanish.wav,,,,,,,,,0,1,1,1,0,174,174,149,945.691730044,9.621726349e-06,946.503412019,0.811691916664,,,,,x,1,0.800437723636,2018_Nov_14_1402,59.9949394058,spanish_cond1,001,1023,
images/ear.jpg,bullet,x,sounds/animalfarm_spanish.wav,,,,,,,,,0,1,1,1,0,175,175,139,947.607440981,9.30100213736e-06,948.253872016,0.646440656972,,,,,x,1,0.633730699308,2018_Nov_14_1402,59.9949394058,spanish_cond1,001,1023,
images/atm.jpg,atm,z,sounds/animalfarm_spanish.wav,,,,,,,,,0,1,1,1,0,176,176,96,949.391374907,9.30100213736e-06,950.171041925,0.779676960665,,,,,z,1,0.767103952006,2018_Nov_14_1402,59.9949394058,spanish_cond1,001,1023,
images/charcoalbarbecue.jpg,charcoal barbecue,z,sounds/animalfarm_spanish.wav,,,,,,,,,0,1,1,1,0,177,177,77,951.288576882,9.30100213736e-06,952.121542719,0.832976742066,,,,,z,1,0.817107977113,2018_Nov_14_1402,59.9949394058,spanish_cond1,001,1023,
images/razor04a.jpg,razor,z,sounds/animalfarm_spanish.wav,,,,,,,,,0,1,1,1,0,178,178,36,953.221559429,9.621726349e-06,954.005356085,0.783806598512,,,,,z,1,0.767081822036,2018_Nov_14_1402,59.9949394058,spanish_cond1,001,1023,
images/pipe.jpg,icecube,x,sounds/animalfarm_spanish.wav,,,,,,,,,0,1,1,1,0,179,179,188,955.114918493,9.621726349e-06,955.972546376,0.857637825422,,,,,x,1,0.83377951337,2018_Nov_14_1402,59.9949394058,spanish_cond1,001,1023,
images/showerhead01.jpg,skateboard,x,sounds/animalfarm_spanish.wav,,,,,,,,,0,1,1,1,0,180,180,223,957.080710749,9.94245056063e-06,958.106419637,1.02571882983,,,,,x,1,1.01716352638,2018_Nov_14_1402,59.9949394058,spanish_cond1,001,1023,
images/candy.jpg,candy,z,sounds/animalfarm_spanish.wav,,,,,,,,,0,1,1,1,0,181,181,31,959.208988986,9.30100213736e-06,959.990259302,0.781279937597,,,,,z,1,0.767107159249,2018_Nov_14_1402,59.9949394058,spanish_cond1,001,1023,
images/bowlingball.jpg,bowling ball,z,sounds/animalfarm_spanish.wav,,,,,,,,,0,1,1,1,0,182,182,20,961.1225004,9.30100213736e-06,962.040789955,0.918299818295,,,,,z,1,0.900477525429,2018_Nov_14_1402,59.9949394058,spanish_cond1,001,1023,
images/cola.jpg,comb,x,sounds/animalfarm_spanish.wav,,,,,,,,,0,1,1,1,0,183,183,157,963.164188382,9.621726349e-06,964.02486795,0.860689510941,,,,,x,1,0.850699289818,2018_Nov_14_1402,59.9949394058,spanish_cond1,001,1023,
images/parrot01.jpg,chameleon,x,sounds/animalfarm_spanish.wav,,,,,,,,,0,1,1,1,0,184,184,150,965.138433951,9.30088572204e-06,966.408575317,1.27015130769,,,,,x,1,1.25055380957,2018_Nov_14_1402,59.9949394058,spanish_cond1,001,1023,
images/mirror02.jpg,8 ball,x,sounds/animalfarm_spanish.wav,,,,,,,,,0,1,1,1,0,185,185,121,967.51192659,9.621726349e-06,968.542465897,1.03054924891,,,,,x,1,1.01712985046,2018_Nov_14_1402,59.9949394058,spanish_cond1,001,1023,
images/apple06.jpg,apple,z,sounds/animalfarm_spanish.wav,,,,,,,,,0,1,1,1,0,186,186,13,969.67007767,8.98027792573e-06,970.726361143,1.05629309523,,,,,z,1,1.03383410058,2018_Nov_14_1402,59.9949394058,spanish_cond1,001,1023,
images/fork01.jpg,cooking pot,x,sounds/animalfarm_spanish.wav,,,,,,,,,0,1,1,1,0,187,187,160,971.82073889,9.30100213736e-06,972.610183168,0.789454221376,,,,,x,1,0.767094009556,2018_Nov_14_1402,59.9949394058,spanish_cond1,001,1023,
images/flower01.jpg,bus,x,sounds/animalfarm_spanish.wav,,,,,,,,,0,1,1,1,0,188,188,140,973.725081456,9.30100213736e-06,974.527342173,0.802270338521,,,,,x,1,0.783771960298,2018_Nov_14_1402,59.9949394058,spanish_cond1,001,1023,
images/grasshopper.jpg,cauliflower,x,sounds/animalfarm_spanish.wav,,,,,,,,,0,1,1,1,0,189,189,148,975.620975199,9.30100213736e-06,976.611213654,0.990248076618,,,,,x,1,0.967110109865,2018_Nov_14_1402,59.9949394058,spanish_cond1,001,1023,
images/broom02.jpg,broom,z,sounds/animalfarm_spanish.wav,,,,,,,,,0,1,1,1,0,190,190,116,977.705304994,9.621726349e-06,978.561732729,0.856437677518,,,,,z,1,0.833790417993,2018_Nov_14_1402,59.9949394058,spanish_cond1,001,1023,
images/magnifyingglass01b.jpg,magnifying glass,z,sounds/animalfarm_spanish.wav,,,,,,,,,0,1,1,1,0,191,191,64,979.668993944,9.62160993367e-06,980.645600361,0.976616358967,,,,,z,1,0.967155011254,2018_Nov_14_1402,59.9949394058,spanish_cond1,001,1023,
images/honeycomb.jpg,honey comb,z,sounds/animalfarm_spanish.wav,,,,,,,,,0,1,1,1,0,192,192,59,981.759169249,9.30100213736e-06,982.479251264,0.720091957832,,,,,z,1,0.700252634007,2018_Nov_14_1402,59.9949394058,spanish_cond1,001,1023,
images/toothbrush03a.jpg,parrot,x,sounds/animalfarm_spanish.wav,,,,,,,,,0,1,1,1,0,193,193,210,983.572359586,9.30100213736e-06,984.296558411,0.724208766711,,,,,x,1,0.700429031975,2018_Nov_14_1402,59.9949394058,spanish_cond1,001,1023,
images/pen03c.jpg,pepper,x,sounds/animalfarm_spanish.wav,,,,,,,,,0,1,1,1,0,194,194,211,985.391106461,9.30100213736e-06,986.163712107,0.772615588037,,,,,x,1,0.750439792289,2018_Nov_14_1402,59.9949394058,spanish_cond1,001,1023,
images/scooter.jpg,pen,x,sounds/animalfarm_spanish.wav,,,,,,,,,0,1,1,1,0,195,195,212,987.256580848,9.94245056063e-06,988.147544107,0.890973521397,,,,,x,1,0.867057799827,2018_Nov_14_1402,59.9949394058,spanish_cond1,001,1023,
images/daisy.jpg,daisy,z,sounds/animalfarm_spanish.wav,,,,,,,,,0,1,1,1,0,196,196,6,989.250072403,9.621726349e-06,989.931340121,0.681277981144,,,,,z,1,0.667052604142,2018_Nov_14_1402,59.9949394058,spanish_cond1,001,1023,
images/bed.jpg,bed,z,sounds/animalfarm_spanish.wav,,,,,,,,,0,1,1,1,0,197,197,103,991.051009173,9.30100213736e-06,991.731803182,0.680804272299,,,,,z,1,0.66705933935,2018_Nov_14_1402,59.9949394058,spanish_cond1,001,1023,
images/peach01.jpg,peach,z,sounds/animalfarm_spanish.wav,,,,,,,,,0,1,1,1,0,198,198,106,992.86113243,9.30100213736e-06,993.598799724,0.737682688166,,,,,z,1,0.716923849541,2018_Nov_14_1402,59.9949394058,spanish_cond1,001,1023,
images/lollipop03b.jpg,lollipop,z,sounds/animalfarm_spanish.wav,,,,,,,,,0,1,1,1,0,199,199,42,994.690954855,9.621726349e-06,995.466118913,0.77517400065,,,,,z,1,0.767112932284,2018_Nov_14_1402,59.9949394058,spanish_cond1,001,1023,
images/saltshaker03c.jpg,salt shaker,z,sounds/animalfarm_spanish.wav,,,,,,,,,0,1,1,1,0,200,200,63,996.578877653,9.62160993367e-06,997.499975785,0.921108074486,,,,,z,1,0.900477846153,2018_Nov_14_1402,59.9949394058,spanish_cond1,001,1023,
images/50dollarbill.jpg,cherry,x,sounds/animalfarm_spanish.wav,,,,,,,,,0,1,1,1,0,201,201,151,998.620037082,9.621726349e-06,999.433804722,0.813778224052,,,,,x,1,0.80042585684,2018_Nov_14_1402,59.9949394058,spanish_cond1,001,1023,
images/pineapple01a.jpg,pineapple,z,sounds/animalfarm_spanish.wav,,,,,,,,,0,1,1,1,0,202,202,51,1000.5474509,9.94245056063e-06,1001.28430516,0.736864522099,,,,,z,1,0.717105058488,2018_Nov_14_1402,59.9949394058,spanish_cond1,001,1023,
images/wallet01.jpg,lamp,x,sounds/animalfarm_spanish.wav,,,,,,,,,0,1,1,1,0,203,203,193,1002.38998617,9.62160993367e-06,1003.33481048,0.944834248396,,,,,x,1,0.933801996056,2018_Nov_14_1402,59.9949394058,spanish_cond1,001,1023,
images/backpack01b.jpg,swallow,x,sounds/animalfarm_spanish.wav,,,,,,,,,0,1,1,1,0,204,204,228,1004.46510895,9.30100213736e-06,1006.03551565,1.57041696319,,,,,x,1,1.55064114265,2018_Nov_14_1402,59.9949394058,spanish_cond1,001,1023,
images/dreamcatcher.jpg,dream catcher,z,sounds/animalfarm_spanish.wav,,,,,,,,,0,1,1,1,0,205,205,48,1007.13401727,9.30100213736e-06,1007.96936127,0.835353625123,,,,,z,1,0.81712529622,2018_Nov_14_1402,59.9949394058,spanish_cond1,001,1023,
images/candle08a.jpg,screw driver,x,sounds/animalfarm_spanish.wav,,,,,,,,,0,1,1,1,0,206,206,221,1009.0842509,9.621726349e-06,1009.81982002,0.735579382512,,,,,x,1,0.717071382445,2018_Nov_14_1402,59.9949394058,spanish_cond1,001,1023,
images/bracelet02a.jpg,chess knight,x,sounds/animalfarm_spanish.wav,,,,,,,,,0,1,1,1,0,207,207,152,1010.92899242,9.30100213736e-06,1011.77034583,0.841363665648,,,,,x,1,0.817112467252,2018_Nov_14_1402,59.9949394058,spanish_cond1,001,1023,
images/parkfountain.jpg,park fountain,z,sounds/animalfarm_spanish.wav,,,,,,,,,0,1,1,1,0,208,208,93,1012.88954726,9.30100213736e-06,1013.67083522,0.781298218761,,,,,z,1,0.767110366491,2018_Nov_14_1402,59.9949394058,spanish_cond1,001,1023,
images/lantern03.jpg,lantern,z,sounds/animalfarm_spanish.wav,,,,,,,,,0,1,1,1,0,209,209,5,1014.77792036,9.30100213736e-06,1015.70467509,0.926765319193,,,,,z,1,0.91712981835,2018_Nov_14_1402,59.9949394058,spanish_cond1,001,1023,
images/grandpiano.jpg,tulip,x,sounds/animalfarm_spanish.wav,,,,,,,,,0,1,1,1,0,210,210,236,1016.81957915,9.621726349e-06,1017.53852132,0.718952747528,,,,,x,1,0.700434484403,2018_Nov_14_1402,59.9949394058,spanish_cond1,001,1023,
images/diploma01.jpg,glasses,x,sounds/animalfarm_spanish.wav,,,,,,,,,0,1,1,1,0,211,211,179,1018.67021141,9.30100213736e-06,1019.37235407,0.702152600978,,,,,x,1,0.68374627037,2018_Nov_14_1402,59.9949394058,spanish_cond1,001,1023,
images/kiwi03.jpg,backpack,x,sounds/animalfarm_spanish.wav,,,,,,,,,0,1,1,1,0,212,212,125,1020.50141263,9.30100213736e-06,1021.28949479,0.788092428702,,,,,x,1,0.767114215181,2018_Nov_14_1402,59.9949394058,spanish_cond1,001,1023,
images/ceilingfan02.jpg,paper clip,x,sounds/animalfarm_spanish.wav,,,,,,,,,0,1,1,1,0,213,213,208,1022.38796722,9.94245056063e-06,1023.02325054,0.635293585598,,,,,x,1,0.617060766555,2018_Nov_14_1402,59.9949394058,spanish_cond1,001,1023,
images/hanger02a.jpg,hanger,z,sounds/animalfarm_spanish.wav,,,,,,,,,0,1,1,1,0,214,214,88,1024.11687138,9.94245056063e-06,1025.09048705,0.973625931656,,,,,z,1,0.950514585129,2018_Nov_14_1402,59.9949394058,spanish_cond1,001,1023,
images/pouch01b.jpg,pouch,z,sounds/animalfarm_spanish.wav,,,,,,,,,0,1,1,1,0,215,215,25,1026.20357036,9.621726349e-06,1026.94096921,0.737408790155,,,,,z,1,0.717122056871,2018_Nov_14_1402,59.9949394058,spanish_cond1,001,1023,
images/diaper01a.jpg,camera,x,sounds/animalfarm_spanish.wav,,,,,,,,,0,1,1,1,0,216,216,143,1028.06170723,9.30100213736e-06,1028.72473155,0.663033936755,,,,,x,1,0.65040865005,2018_Nov_14_1402,59.9949394058,spanish_cond1,001,1023,
images/radio03a.jpg,radio,z,sounds/animalfarm_spanish.wav,,,,,,,,,0,1,1,1,0,217,217,37,1029.83894124,9.94245056063e-06,1030.5418716,0.702940618969,,,,,z,1,0.683748194831,2018_Nov_14_1402,59.9949394058,spanish_cond1,001,1023,
images/beachumbrella01.jpg,beach umbrella,z,sounds/animalfarm_spanish.wav,,,,,,,,,0,1,1,1,0,218,218,92,1031.64824665,9.621726349e-06,1032.79246036,1.14422365464,,,,,z,1,1.13384664082,2018_Nov_14_1402,59.9949394058,spanish_cond1,001,1023,
images/notebook02b.jpg,notebook,z,sounds/animalfarm_spanish.wav,,,,,,,,,0,1,1,1,0,219,219,7,1033.89919784,9.621726349e-06,1034.55959446,0.660407210002,,,,,z,1,0.65041827166,2018_Nov_14_1402,59.9949394058,spanish_cond1,001,1023,
images/bus.jpg,microphone,x,sounds/animalfarm_spanish.wav,,,,,,,,,0,1,1,1,0,220,220,203,1035.67865254,9.62160993367e-06,1036.39338745,0.714744532364,,,,,x,1,0.700416844455,2018_Nov_14_1402,59.9949394058,spanish_cond1,001,1023,
images/swallow.jpg,mattress,x,sounds/animalfarm_spanish.wav,,,,,,,,,0,1,1,1,0,221,221,202,1037.49536763,8.98027792573e-06,1038.51059495,1.01523693942,,,,,x,1,1.00048910361,2018_Nov_14_1402,59.9949394058,spanish_cond1,001,1023,
images/blueberry02.jpg,blueberry,z,sounds/animalfarm_spanish.wav,,,,,,,,,0,1,1,1,0,222,222,46,1039.62420906,9.621726349e-06,1040.47776728,0.853568162885,,,,,z,1,0.833773098886,2018_Nov_14_1402,59.9949394058,spanish_cond1,001,1023,
images/sunglasses03a.jpg,sun glasses,z,sounds/animalfarm_spanish.wav,,,,,,,,,0,1,1,1,0,223,223,17,1041.58668022,9.621726349e-06,1042.8117195,1.22504922305,,,,,z,1,1.20055619895,2018_Nov_14_1402,59.9949394058,spanish_cond1,001,1023,
