images,name,corrAns,sounds,trials_3.thisRepN,trials_3.thisTrialN,trials_3.thisN,trials_3.thisIndex,trials_4.thisRepN,trials_4.thisTrialN,trials_4.thisN,trials_4.thisIndex,trials_2.thisRepN,trials_2.thisTrialN,trials_2.thisN,trials_2.thisIndex,trials.thisRepN,trials.thisTrialN,trials.thisN,trials.thisIndex,begin_global,begin_routine,end_global,end_routine,key_resp_2.keys,key_resp_2.corr,key_resp_2.rt,begin_book,key_resp_1.keys,key_resp_1.corr,key_resp_1.rt,date,frameRate,expName,session,participant,
images/volleyball.jpg,volley ball,z,,0,0,0,0,,,,,,,,,,,,,,,,,,,,,,,,2018_Nov_14_1407,59.986917459,chinese_cond2,001,1026,
images/puma.jpg,puma,z,,,,,,0,0,0,0,,,,,,,,,48.1622235236,1.05837825686e-05,50.9724075269,2.81019586988,z,1,2.80095561629,,,,,2018_Nov_14_1407,59.986917459,chinese_cond2,001,1026,
images/lamp04b.jpg,parking meter,x,sounds/greatgatsby_chinese.wav,,,,,,,,,0,0,0,0,0,0,0,209,93.1436945876,9.30088572204e-06,94.7831829372,1.63949861261,,,,82.9686118099,x,1,1.61730192672,2018_Nov_14_1407,59.986917459,chinese_cond2,001,1026,
images/hanger02a.jpg,hanger,z,sounds/greatgatsby_chinese.wav,,,,,,,,,0,0,0,0,0,1,1,88,95.8795389847,9.62160993367e-06,97.0003874294,1.12085870758,,,,,z,1,1.10048980301,2018_Nov_14_1407,59.986917459,chinese_cond2,001,1026,
images/chessknight02b (1).jpg,cockroach,x,sounds/greatgatsby_chinese.wav,,,,,,,,,0,0,0,0,0,2,2,155,98.1128945975,9.62160993367e-06,99.8344201453,1.72153549024,,,,,z,0,1.70064509544,2018_Nov_14_1407,59.986917459,chinese_cond2,001,1026,
images/coin01b.jpg,arrow,x,sounds/greatgatsby_chinese.wav,,,,,,,,,0,0,0,0,0,3,3,124,100.937268521,8.98016151041e-06,102.151662867,1.21440396819,,,,,x,1,1.20052418415,2018_Nov_14_1407,59.986917459,chinese_cond2,001,1026,
images/radish01.jpg,raisin,x,sounds/greatgatsby_chinese.wav,,,,,,,,,0,0,0,0,0,4,4,214,103.26222455,9.94233414531e-06,104.635605076,1.37339046854,,,,,x,1,1.3505629272,2018_Nov_14_1407,59.986917459,chinese_cond2,001,1026,
images/seagull.jpg,seagull,z,sounds/greatgatsby_chinese.wav,,,,,,,,,0,0,0,0,0,5,5,50,105.741439993,9.94233414531e-06,106.869492442,1.12806207081,,,,,z,1,1.11716113077,2018_Nov_14_1407,59.986917459,chinese_cond2,001,1026,
images/nailclipper03a.jpg,aquarium,x,sounds/greatgatsby_chinese.wav,,,,,,,,,0,0,0,0,0,6,6,123,107.967463634,9.94221772999e-06,109.37010662,1.40265324945,,,,,x,1,1.38389050891,2018_Nov_14_1407,59.986917459,chinese_cond2,001,1026,
images/candy.jpg,candy,z,sounds/greatgatsby_chinese.wav,,,,,,,,,0,0,0,0,0,7,7,31,110.470716693,9.30088572204e-06,111.337267494,0.866560102324,,,,,z,1,0.850440412294,2018_Nov_14_1407,59.986917459,chinese_cond2,001,1026,
images/ostrich.jpg,ostrich,z,sounds/greatgatsby_chinese.wav,,,,,,,,,0,0,0,0,0,8,8,76,112.435881087,9.30076930672e-06,113.421111948,0.985241123359,,,,,z,1,0.967139706714,2018_Nov_14_1407,59.986917459,chinese_cond2,001,1026,
images/pingpongpaddle01c (1).jpg,ping pong paddle,z,sounds/greatgatsby_chinese.wav,,,,,,,,,0,0,0,0,0,9,9,10,114.530865417,9.94221772999e-06,115.554997325,1.02414281259,,,,,z,1,1.00050352979,2018_Nov_14_1407,59.986917459,chinese_cond2,001,1026,
images/mattress.jpg,cat,x,sounds/greatgatsby_chinese.wav,,,,,,,,,0,0,0,0,0,10,10,147,116.657527547,9.62149351835e-06,117.772179367,1.11466176261,,,,,x,1,1.10050038679,2018_Nov_14_1407,59.986917459,chinese_cond2,001,1026,
images/tulip02.jpg,sport shorts,x,sounds/greatgatsby_chinese.wav,,,,,,,,,0,0,0,0,0,11,11,225,118.866969661,9.30088572204e-06,120.139437355,1.27247763623,,,,,x,1,1.25052758388,2018_Nov_14_1407,59.986917459,chinese_cond2,001,1026,
images/carrot02.jpg,corkscrew,x,sounds/greatgatsby_chinese.wav,,,,,,,,,0,0,0,0,0,12,12,161,121.239816189,8.98016151041e-06,122.273296754,1.03349050728,,,,,x,1,1.01713797485,2018_Nov_14_1407,59.986917459,chinese_cond2,001,1026,
images/lily.jpg,kiwi,x,sounds/greatgatsby_chinese.wav,,,,,,,,,0,0,0,0,0,13,13,190,123.371012332,9.62160993367e-06,124.423831009,1.05282861902,,,,,x,1,1.03382245218,2018_Nov_14_1407,59.986917459,chinese_cond2,001,1026,
images/camera01a.jpg,bull,x,sounds/greatgatsby_chinese.wav,,,,,,,,,0,0,0,0,0,14,14,138,125.532977356,9.94233414531e-06,126.641036463,1.10806904966,,,,,x,1,1.08382777614,2018_Nov_14_1407,59.986917459,chinese_cond2,001,1026,
images/bullet (2).jpg,rubber glove,x,sounds/greatgatsby_chinese.wav,,,,,,,,,0,0,0,0,0,15,15,217,127.74563244,9.62160993367e-06,128.991636273,1.24601409631,,,,,z,0,1.23388672434,2018_Nov_14_1407,59.986917459,chinese_cond2,001,1026,
images/elbow.jpg,elbow,z,sounds/greatgatsby_chinese.wav,,,,,,,,,0,0,0,0,0,16,16,105,130.101378197,9.30088572204e-06,131.192165589,1.09079701395,,,,,z,1,1.06713592226,2018_Nov_14_1407,59.986917459,chinese_cond2,001,1026,
images/knife04.jpg,tooth brush,x,sounds/greatgatsby_chinese.wav,,,,,,,,,0,0,0,0,0,17,17,233,132.287634526,9.94233414531e-06,133.792829543,1.5052052798,,,,,x,1,1.48395792418,2018_Nov_14_1407,59.986917459,chinese_cond2,001,1026,
images/cactus.jpg,cactus,z,sounds/greatgatsby_chinese.wav,,,,,,,,,0,0,0,0,0,18,18,70,134.902723487,9.30088572204e-06,135.89333025,0.990616705385,,,,,z,1,0.967150611221,2018_Nov_14_1407,59.986917459,chinese_cond2,001,1026,
images/diaper01a.jpg,camera,x,sounds/greatgatsby_chinese.wav,,,,,,,,,0,0,0,0,0,19,19,143,137.012087282,9.30088572204e-06,137.877139681,0.865062341443,,,,,x,1,0.850440733018,2018_Nov_14_1407,59.986917459,chinese_cond2,001,1026,
images/bottleofredwine02.jpg,pipe,x,sounds/greatgatsby_chinese.wav,,,,,,,,,0,0,0,0,0,20,20,213,138.974243005,9.62160993367e-06,139.76094552,0.786712777568,,,,,x,1,0.767078641802,2018_Nov_14_1407,59.986917459,chinese_cond2,001,1026,
images/cocktailshrimp01.jpg,cocktail shrimp,z,sounds/greatgatsby_chinese.wav,,,,,,,,,0,0,0,0,0,21,21,30,140.873996949,9.62160993367e-06,142.628317043,1.75432971516,,,,,z,1,1.73394798185,2018_Nov_14_1407,59.986917459,chinese_cond2,001,1026,
images/paperclip04.jpg,eye drops,x,sounds/greatgatsby_chinese.wav,,,,,,,,,0,0,0,0,0,22,22,174,143.734806228,8.98016151041e-06,145.128931542,1.39413525641,,,,,x,1,1.38391007273,2018_Nov_14_1407,59.986917459,chinese_cond2,001,1026,
images/beachumbrella01.jpg,beach umbrella,z,sounds/greatgatsby_chinese.wav,,,,,,,,,0,0,0,0,0,23,23,92,146.232786015,9.94233414531e-06,147.96296522,1.73018946836,,,,,z,1,1.7173286106,2018_Nov_14_1407,59.986917459,chinese_cond2,001,1026,
images/apple06.jpg,apple,z,sounds/greatgatsby_chinese.wav,,,,,,,,,0,0,0,0,0,24,24,13,149.088155567,9.94233414531e-06,149.880105055,0.791960071656,,,,,z,1,0.783767609159,2018_Nov_14_1407,59.986917459,chinese_cond2,001,1026,
images/candle08a.jpg,screw driver,x,sounds/greatgatsby_chinese.wav,,,,,,,,,0,0,0,0,0,25,25,221,150.993107735,9.30088572204e-06,152.280541811,1.28744465986,,,,,x,1,1.26705426699,2018_Nov_14_1407,59.986917459,chinese_cond2,001,1026,
images/lightswitch02a.jpg,fork,x,sounds/greatgatsby_chinese.wav,,,,,,,,,0,0,0,0,0,26,26,177,153.390606699,9.62160993367e-06,154.647953103,1.25735602574,,,,,x,1,1.23388030997,2018_Nov_14_1407,59.986917459,chinese_cond2,001,1026,
images/marker01a.jpg,marker,z,sounds/greatgatsby_chinese.wav,,,,,,,,,0,0,0,0,0,27,27,95,155.74511544,9.62160993367e-06,156.698451373,0.953345875605,,,,,z,1,0.933798334096,2018_Nov_14_1407,59.986917459,chinese_cond2,001,1026,
images/corkscrew02a.jpg,masquerade mask,x,sounds/greatgatsby_chinese.wav,,,,,,,,,0,0,0,0,0,28,28,201,157.800771844,9.62160993367e-06,159.282438547,1.48167664534,,,,,x,1,1.46727697481,2018_Nov_14_1407,59.986917459,chinese_cond2,001,1026,
images/globe.jpg,cloud,x,sounds/greatgatsby_chinese.wav,,,,,,,,,0,0,0,0,0,29,29,154,160.408162571,9.94233414531e-06,161.416285759,1.00813312945,,,,,x,1,0.983808789519,2018_Nov_14_1407,59.986917459,chinese_cond2,001,1026,
images/plate01b.jpg,plate,z,sounds/greatgatsby_chinese.wav,,,,,,,,,0,0,0,0,0,30,30,3,162.515268179,9.94233414531e-06,163.350099487,0.834841891658,,,,,z,1,0.81711379264,2018_Nov_14_1407,59.986917459,chinese_cond2,001,1026,
images/diploma01.jpg,glasses,x,sounds/greatgatsby_chinese.wav,,,,,,,,,0,0,0,0,0,31,31,179,164.480630458,9.62149351835e-06,165.483958245,1.00333804998,,,,,x,1,0.983810072299,2018_Nov_14_1407,59.986917459,chinese_cond2,001,1026,
images/gluestick.jpg,squirrel,x,sounds/greatgatsby_chinese.wav,,,,,,,,,0,0,0,0,0,32,32,226,166.591349614,9.30088572204e-06,167.517792564,0.926452892134,,,,,x,1,0.917119308957,2018_Nov_14_1407,59.986917459,chinese_cond2,001,1026,
images/highheelshoe02a.jpg,high heel shoe,z,sounds/greatgatsby_chinese.wav,,,,,,,,,0,0,0,0,0,33,33,75,168.624243903,9.30088572204e-06,169.751678005,1.12744404399,,,,,z,1,1.11718454328,2018_Nov_14_1407,59.986917459,chinese_cond2,001,1026,
images/cockroach02.jpg,belt,x,sounds/greatgatsby_chinese.wav,,,,,,,,,0,0,0,0,0,34,34,129,170.850603338,9.94233414531e-06,171.702443371,0.851850295789,,,,,x,1,0.834055166342,2018_Nov_14_1407,59.986917459,chinese_cond2,001,1026,
images/cake.jpg,cake,z,sounds/greatgatsby_chinese.wav,,,,,,,,,0,0,0,0,0,35,35,23,172.814223147,9.30088572204e-06,173.902704885,1.08849168115,,,,,z,1,1.06717472943,2018_Nov_14_1407,59.986917459,chinese_cond2,001,1026,
images/rubberglove02a.jpg,lady bug,x,sounds/greatgatsby_chinese.wav,,,,,,,,,0,0,0,0,0,36,36,192,175.005568976,9.30088572204e-06,176.453329519,1.44777048542,,,,,x,1,1.43393207411,2018_Nov_14_1407,59.986917459,chinese_cond2,001,1026,
images/corn01.jpg,corn,z,sounds/greatgatsby_chinese.wav,,,,,,,,,0,0,0,0,0,37,37,22,177.552781152,9.62160993367e-06,178.887266725,1.3344955144,,,,,z,1,1.31722700666,2018_Nov_14_1407,59.986917459,chinese_cond2,001,1026,
images/bat.jpg,hand,x,sounds/greatgatsby_chinese.wav,,,,,,,,,0,0,0,0,0,38,38,185,179.985293401,9.30088572204e-06,181.071147484,1.08586434589,,,,,x,1,1.06717665365,2018_Nov_14_1407,59.986917459,chinese_cond2,001,1026,
images/sock03.jpg,sock,z,sounds/greatgatsby_chinese.wav,,,,,,,,,0,0,0,0,0,39,39,90,182.176703374,9.30088572204e-06,183.021844215,0.845150783192,,,,,z,1,0.834002247546,2018_Nov_14_1407,59.986917459,chinese_cond2,001,1026,
images/headphones02b.jpg,headphones,z,sounds/greatgatsby_chinese.wav,,,,,,,,,0,0,0,0,0,40,40,101,184.128995686,9.94233414531e-06,185.072120868,0.943135445123,,,,,z,1,0.933799616876,2018_Nov_14_1407,59.986917459,chinese_cond2,001,1026,
images/ant.jpg,ant,z,sounds/greatgatsby_chinese.wav,,,,,,,,,0,0,0,0,0,41,41,98,186.166554522,9.62160993367e-06,186.989255571,0.822711312561,,,,,z,1,0.800424183719,2018_Nov_14_1407,59.986917459,chinese_cond2,001,1026,
images/grasshopper.jpg,cauliflower,x,sounds/greatgatsby_chinese.wav,,,,,,,,,0,0,0,0,0,42,42,148,188.081089472,8.65943729877e-06,189.073106439,0.99202658888,,,,,z,0,0.98381392099,2018_Nov_14_1407,59.986917459,chinese_cond2,001,1026,
images/raisin.jpg,ruler,x,sounds/greatgatsby_chinese.wav,,,,,,,,,0,0,0,0,0,43,43,218,190.177806008,9.94221772999e-06,191.540386621,1.36259119655,,,,,x,1,1.35057383159,2018_Nov_14_1407,59.986917459,chinese_cond2,001,1026,
images/medal01.jpg,medal,z,sounds/greatgatsby_chinese.wav,,,,,,,,,0,0,0,0,0,44,44,115,192.63999669,9.62160993367e-06,193.774276553,1.13428980485,,,,,z,1,1.11718678847,2018_Nov_14_1407,59.986917459,chinese_cond2,001,1026,
images/fireextinguisher02.jpg,fire extinguisher,z,sounds/greatgatsby_chinese.wav,,,,,,,,,0,0,0,0,0,45,45,175,194.884224699,9.62149351835e-06,196.041498877,1.15728412033,,,,,z,1,1.13385330548,2018_Nov_14_1407,59.986917459,chinese_cond2,001,1026,
images/butterfly.jpg,butterfly,z,sounds/greatgatsby_chinese.wav,,,,,,,,,0,0,0,0,0,46,46,91,197.148750733,9.30088572204e-06,197.925280662,0.776539871236,,,,,z,1,0.767077679629,2018_Nov_14_1407,59.986917459,chinese_cond2,001,1026,
images/pineapple01a.jpg,pineapple,z,sounds/greatgatsby_chinese.wav,,,,,,,,,0,0,0,0,0,47,47,51,199.036448184,1.02630583569e-05,199.942449426,0.906011184212,,,,,z,1,0.88378082274,2018_Nov_14_1407,59.986917459,chinese_cond2,001,1026,
images/cheetah.jpg,cheetah,z,sounds/greatgatsby_chinese.wav,,,,,,,,,0,0,0,0,0,48,48,82,201.044614348,9.30088572204e-06,202.176339678,1.13173527294,,,,,x,0,1.1171832605,2018_Nov_14_1407,59.986917459,chinese_cond2,001,1026,
images/ear.jpg,bullet,x,sounds/greatgatsby_chinese.wav,,,,,,,,,0,0,0,0,0,49,49,139,203.279850019,9.62160993367e-06,205.027190611,1.74735085573,,,,,x,1,1.73413848935,2018_Nov_14_1407,59.986917459,chinese_cond2,001,1026,
images/peach01.jpg,peach,z,sounds/greatgatsby_chinese.wav,,,,,,,,,0,0,0,0,0,50,50,106,206.154120221,8.98016151041e-06,207.494321659,1.34021073848,,,,,z,1,1.31723406247,2018_Nov_14_1407,59.986917459,chinese_cond2,001,1026,
images/spoon02b.jpg,spoon,z,sounds/greatgatsby_chinese.wav,,,,,,,,,0,0,0,0,0,51,51,38,208.584274539,9.94233414531e-06,209.36144302,0.777178744785,,,,,z,1,0.767094998504,2018_Nov_14_1407,59.986917459,chinese_cond2,001,1026,
images/blackolive.jpg,tank,x,sounds/greatgatsby_chinese.wav,,,,,,,,,0,0,0,0,0,52,52,229,210.474803944,8.98016151041e-06,211.445292605,0.970498603652,,,,,x,1,0.950471586199,2018_Nov_14_1407,59.986917459,chinese_cond2,001,1026,
images/printer03a.jpg,printer,z,sounds/greatgatsby_chinese.wav,,,,,,,,,0,0,0,0,0,53,53,72,212.553038049,9.30088572204e-06,213.795877983,1.24284987617,,,,,z,1,1.23388640373,2018_Nov_14_1407,59.986917459,chinese_cond2,001,1026,
images/electricguitar02.jpg,electric guitar,z,sounds/greatgatsby_chinese.wav,,,,,,,,,0,0,0,0,0,54,54,100,214.897812307,9.30088572204e-06,216.329835458,1.43203309318,,,,,z,1,1.41725721839,2018_Nov_14_1407,59.986917459,chinese_cond2,001,1026,
images/bus.jpg,microphone,x,sounds/greatgatsby_chinese.wav,,,,,,,,,0,0,0,0,0,55,55,203,217.446822438,9.30088572204e-06,218.413676063,0.966863567126,,,,,x,1,0.950467737508,2018_Nov_14_1407,59.986917459,chinese_cond2,001,1026,
images/notebook02b.jpg,notebook,z,sounds/greatgatsby_chinese.wav,,,,,,,,,0,0,0,0,0,56,56,7,219.518834582,9.62160993367e-06,220.230794666,0.711970026838,,,,,z,1,0.700412894366,2018_Nov_14_1407,59.986917459,chinese_cond2,001,1026,
images/acousticguitar02.jpg,acoustic guitar,z,sounds/greatgatsby_chinese.wav,,,,,,,,,0,0,0,0,0,57,57,97,221.344192152,9.30076930672e-06,222.498013142,1.15383029054,,,,,z,1,1.13384624955,2018_Nov_14_1407,59.986917459,chinese_cond2,001,1026,
images/desktopcomputer.jpg,desktop computer,z,sounds/greatgatsby_chinese.wav,,,,,,,,,0,0,0,0,0,58,58,16,223.631837903,9.30088572204e-06,224.715228538,1.08340057754,,,,,z,1,1.06715324114,2018_Nov_14_1407,59.986917459,chinese_cond2,001,1026,
images/flashlight05.jpg,flash light,z,sounds/greatgatsby_chinese.wav,,,,,,,,,0,0,0,0,0,59,59,8,225.81617216,9.30088572204e-06,227.015806026,1.19964380877,,,,,z,1,1.183870496,2018_Nov_14_1407,59.986917459,chinese_cond2,001,1026,
images/wallet01.jpg,lamp,x,sounds/greatgatsby_chinese.wav,,,,,,,,,0,0,0,0,0,60,60,193,228.119457484,9.62160993367e-06,228.949614303,0.830167402863,,,,,x,1,0.81710769888,2018_Nov_14_1407,59.986917459,chinese_cond2,001,1026,
images/belt02a.jpg,snowman,x,sounds/greatgatsby_chinese.wav,,,,,,,,,0,0,0,0,0,61,61,224,230.051203532,9.62160993367e-06,231.216885376,1.16569306876,,,,,x,1,1.15055766737,2018_Nov_14_1407,59.986917459,chinese_cond2,001,1026,
images/dolphin01.jpg,dolphin,z,sounds/greatgatsby_chinese.wav,,,,,,,,,0,0,0,0,0,62,62,99,232.317116358,9.30088572204e-06,233.384040285,1.06693354819,,,,,z,1,1.05049570429,2018_Nov_14_1407,59.986917459,chinese_cond2,001,1026,
images/lettuce.jpg,mushroom,x,sounds/greatgatsby_chinese.wav,,,,,,,,,0,0,0,0,0,63,63,205,234.50702344,9.62160993367e-06,235.384520082,0.877506905119,,,,,x,1,0.867096345522,2018_Nov_14_1407,59.986917459,chinese_cond2,001,1026,
images/axe01.jpg,axe,z,sounds/greatgatsby_chinese.wav,,,,,,,,,0,0,0,0,0,64,64,104,236.487464352,9.62160993367e-06,238.06853426,1.58108017093,,,,,z,1,1.56728537765,2018_Nov_14_1407,59.986917459,chinese_cond2,001,1026,
images/razor04a.jpg,razor,z,sounds/greatgatsby_chinese.wav,,,,,,,,,0,0,0,0,0,65,65,36,239.16662957,9.62160993367e-06,240.202382434,1.03576280596,,,,,x,0,1.0171533695,2018_Nov_14_1407,59.986917459,chinese_cond2,001,1026,
images/boxingglove02a.jpg,bracelet,x,sounds/greatgatsby_chinese.wav,,,,,,,,,0,0,0,0,0,66,66,135,241.311881252,9.62160993367e-06,242.486280576,1.17440894572,,,,,x,1,1.15052367095,2018_Nov_14_1407,59.986917459,chinese_cond2,001,1026,
images/bicycle.jpg,hand bag,x,sounds/greatgatsby_chinese.wav,,,,,,,,,0,0,0,0,0,67,67,186,243.595713325,9.94233414531e-06,244.65348263,1.05777956813,,,,,x,1,1.03382469714,2018_Nov_14_1407,59.986917459,chinese_cond2,001,1026,
images/hammer02a.jpg,flower,x,sounds/greatgatsby_chinese.wav,,,,,,,,,0,0,0,0,0,68,68,176,245.74734829,9.62160993367e-06,246.837358258,1.09002023097,,,,,x,1,1.06717248436,2018_Nov_14_1407,59.986917459,chinese_cond2,001,1026,
images/treadmill.jpg,lily,x,sounds/greatgatsby_chinese.wav,,,,,,,,,0,0,0,0,0,69,69,199,247.941714978,8.98016151041e-06,248.871186483,0.929481768399,,,,,x,1,0.917126685497,2018_Nov_14_1407,59.986917459,chinese_cond2,001,1026,
images/leek.jpg,donut,x,sounds/greatgatsby_chinese.wav,,,,,,,,,0,0,0,0,0,70,70,169,249.970885712,9.62160993367e-06,251.188430488,1.2175543973,,,,,x,1,1.20052386355,2018_Nov_14_1407,59.986917459,chinese_cond2,001,1026,
images/apricot.jpg,apricot,z,sounds/greatgatsby_chinese.wav,,,,,,,,,0,0,0,0,0,71,71,32,252.303921311,9.30076930672e-06,253.338951272,1.03503990395,,,,,z,1,1.01714406861,2018_Nov_14_1407,59.986917459,chinese_cond2,001,1026,
images/bandaid01.jpg,door handle,x,sounds/greatgatsby_chinese.wav,,,,,,,,,0,0,0,0,0,72,72,170,254.444150202,9.30088572204e-06,255.889425489,1.4452855495,,,,,x,1,1.4337601685,2018_Nov_14_1407,59.986917459,chinese_cond2,001,1026,
images/swallow.jpg,mattress,x,sounds/greatgatsby_chinese.wav,,,,,,,,,0,0,0,0,0,73,73,202,256.990127608,9.30088572204e-06,258.106804452,1.11668742786,,,,,x,1,1.1004731257,2018_Nov_14_1407,59.986917459,chinese_cond2,001,1026,
images/banana04a.jpg,banana,z,sounds/greatgatsby_chinese.wav,,,,,,,,,0,0,0,0,0,74,74,118,259.212397546,8.98016151041e-06,260.140631715,0.928243469913,,,,,z,1,0.91712411982,2018_Nov_14_1407,59.986917459,chinese_cond2,001,1026,
images/doorhandle.jpg,doll,x,sounds/greatgatsby_chinese.wav,,,,,,,,,0,0,0,0,0,75,75,168,261.242154556,9.62149351835e-06,261.991087843,0.748943549464,,,,,x,1,0.733739193296,2018_Nov_14_1407,59.986917459,chinese_cond2,001,1026,
images/coffeepot03b.jpg,coffee pot,z,sounds/greatgatsby_chinese.wav,,,,,,,,,0,0,0,0,0,76,76,107,263.110798053,1.02630583569e-05,265.191873413,2.08108562313,,,,,z,1,2.06740757171,2018_Nov_14_1407,59.986917459,chinese_cond2,001,1026,
images/tissuebox03.jpg,tissue box,z,sounds/greatgatsby_chinese.wav,,,,,,,,,0,0,0,0,0,77,77,58,266.315299482,9.94221772999e-06,267.225897598,0.910608058679,,,,,z,1,0.900618604035,2018_Nov_14_1407,59.986917459,chinese_cond2,001,1026,
images/lion.jpg,lion,z,sounds/greatgatsby_chinese.wav,,,,,,,,,0,0,0,0,0,78,78,44,268.337314319,9.30088572204e-06,270.159769377,1.82246467914,,,,,z,1,1.80067530728,2018_Nov_14_1407,59.986917459,chinese_cond2,001,1026,
images/snowman.jpg,globe,x,sounds/greatgatsby_chinese.wav,,,,,,,,,0,0,0,0,0,79,79,180,271.269457419,9.62160993367e-06,272.393658346,1.12421086931,,,,,x,1,1.1005112913,2018_Nov_14_1407,59.986917459,chinese_cond2,001,1026,
images/sunglasses03a.jpg,sun glasses,z,sounds/greatgatsby_chinese.wav,,,,,,,,,0,0,0,0,0,80,80,17,273.50090026,9.30088572204e-06,274.294120118,0.79323012149,,,,,z,1,0.783755101031,2018_Nov_14_1407,59.986917459,chinese_cond2,001,1026,
images/bull.jpg,button,x,sounds/greatgatsby_chinese.wav,,,,,,,,,0,0,0,0,0,81,81,141,275.398625652,9.30088572204e-06,277.528092796,2.12947708578,,,,,z,0,2.11725413951,2018_Nov_14_1407,59.986917459,chinese_cond2,001,1026,
images/pipe.jpg,icecube,x,sounds/greatgatsby_chinese.wav,,,,,,,,,0,0,0,0,0,82,82,188,278.637483852,9.30088572204e-06,280.028865089,1.39139117918,,,,,z,0,1.36723233061,2018_Nov_14_1407,59.986917459,chinese_cond2,001,1026,
images/watermelon01.jpg,orange,x,sounds/greatgatsby_chinese.wav,,,,,,,,,0,0,0,0,0,83,83,207,281.157742429,9.30088572204e-06,283.463072661,2.30534017459,,,,,x,1,2.28414669971,2018_Nov_14_1407,59.986917459,chinese_cond2,001,1026,
images/thumbtack02a.jpg,thumb tack,z,sounds/greatgatsby_chinese.wav,,,,,,,,,0,0,0,0,0,84,84,60,284.573510867,9.62160993367e-06,285.830310764,1.25680984021,,,,,z,1,1.23387549922,2018_Nov_14_1407,59.986917459,chinese_cond2,001,1026,
images/squirrel.jpg,binder,x,sounds/greatgatsby_chinese.wav,,,,,,,,,0,0,0,0,0,85,85,132,286.933578641,9.30088572204e-06,288.197551755,1.26398273499,,,,,x,1,1.25053399825,2018_Nov_14_1407,59.986917459,chinese_cond2,001,1026,
images/lightbulb03b.jpg,treadmill,x,sounds/greatgatsby_chinese.wav,,,,,,,,,0,0,0,0,0,86,86,234,289.300155742,9.62160993367e-06,290.614820198,1.31467471982,,,,,x,1,1.30055311311,2018_Nov_14_1407,59.986917459,chinese_cond2,001,1026,
images/swan.jpg,swan,z,sounds/greatgatsby_chinese.wav,,,,,,,,,0,0,0,0,0,87,87,54,291.707005607,9.62160993367e-06,293.665567347,1.9585713608,,,,,x,0,1.95069159986,2018_Nov_14_1407,59.986917459,chinese_cond2,001,1026,
images/cookingpot.jpg,grasshopper,x,sounds/greatgatsby_chinese.wav,,,,,,,,,0,0,0,0,0,88,88,183,294.779455533,9.62160993367e-06,296.282887554,1.50344196323,,,,,x,1,1.48394124676,2018_Nov_14_1407,59.986917459,chinese_cond2,001,1026,
images/teapot.jpg,light switch,x,sounds/greatgatsby_chinese.wav,,,,,,,,,0,0,0,0,0,89,89,197,297.399660935,9.62160993367e-06,299.166939065,1.76728807169,,,,,x,1,1.75067575625,2018_Nov_14_1407,59.986917459,chinese_cond2,001,1026,
images/icecube02 (2).jpg,aloe,x,sounds/greatgatsby_chinese.wav,,,,,,,,,0,0,0,0,0,90,90,122,300.277688368,9.62160993367e-06,301.817569856,1.53989110934,,,,,x,1,1.51727011136,2018_Nov_14_1407,59.986917459,chinese_cond2,001,1026,
images/scissors04a.jpg,leek,x,sounds/greatgatsby_chinese.wav,,,,,,,,,0,0,0,0,0,91,91,194,302.911999341,9.62160993367e-06,304.184831051,1.27284133236,,,,,x,1,1.25054041261,2018_Nov_14_1407,59.986917459,chinese_cond2,001,1026,
images/dresser02.jpg,dresser,z,sounds/greatgatsby_chinese.wav,,,,,,,,,0,0,0,0,0,92,92,87,305.30688444,9.62160993367e-06,307.218943113,1.91206829529,,,,,x,0,1.9006901246,2018_Nov_14_1407,59.986917459,chinese_cond2,001,1026,
images/redfox.jpg,red fox,z,sounds/greatgatsby_chinese.wav,,,,,,,,,0,0,0,0,0,93,93,1,308.331512501,9.62160993367e-06,309.569489042,1.23798680434,,,,,z,1,1.21719711553,2018_Nov_14_1407,59.986917459,chinese_cond2,001,1026,
images/chameleon.jpg,50 dollar bill,x,sounds/greatgatsby_chinese.wav,,,,,,,,,0,0,0,0,0,94,94,120,310.68130987,9.94233414531e-06,312.270172303,1.58887333749,,,,,x,1,1.56726164441,2018_Nov_14_1407,59.986917459,chinese_cond2,001,1026,
images/electrictoothbrush01a.jpg,banjo,x,sounds/greatgatsby_chinese.wav,,,,,,,,,0,0,0,0,0,95,95,127,313.36528011,9.62160993367e-06,314.770782633,1.40551246516,,,,,x,1,1.38391616638,2018_Nov_14_1407,59.986917459,chinese_cond2,001,1026,
images/floorlamp.jpg,floor lamp,z,sounds/greatgatsby_chinese.wav,,,,,,,,,0,0,0,0,0,96,96,26,315.86319896,9.94233414531e-06,317.004660056,1.14147167979,,,,,z,1,1.11717812903,2018_Nov_14_1407,59.986917459,chinese_cond2,001,1026,
images/candycane01a.jpg,lip,x,sounds/greatgatsby_chinese.wav,,,,,,,,,0,0,0,0,0,97,97,200,318.098844832,9.94233414531e-06,319.288553708,1.18971946021,,,,,x,1,1.16719371593,2018_Nov_14_1407,59.986917459,chinese_cond2,001,1026,
images/50dollarbill.jpg,cherry,x,sounds/greatgatsby_chinese.wav,,,,,,,,,0,0,0,0,0,98,98,151,320.408436145,1.02630583569e-05,321.439078983,1.03065502504,,,,,x,1,1.01712803252,2018_Nov_14_1407,59.986917459,chinese_cond2,001,1026,
images/highlighter03b.jpg,coin,x,sounds/greatgatsby_chinese.wav,,,,,,,,,0,0,0,0,0,99,99,156,322.540933769,9.30076930672e-06,323.906376484,1.3654523365,,,,,x,1,1.35057703883,2018_Nov_14_1407,59.986917459,chinese_cond2,001,1026,
images/gamecontroller01.jpg,game controller,z,sounds/greatgatsby_chinese.wav,,,,,,,,,0,0,0,0,0,100,100,112,325.024706317,1.02630583569e-05,326.940444928,1.91574855323,,,,,z,1,1.90069397318,2018_Nov_14_1407,59.986917459,chinese_cond2,001,1026,
images/gps.jpg,gps,z,sounds/greatgatsby_chinese.wav,,,,,,,,,0,0,0,0,0,101,101,21,328.057428059,9.94221772999e-06,330.524500094,2.4670822979,,,,,z,1,2.45068005403,2018_Nov_14_1407,59.986917459,chinese_cond2,001,1026,
images/lychee02a.jpg,lychee,z,sounds/greatgatsby_chinese.wav,,,,,,,,,0,0,0,0,0,102,102,62,331.647021092,9.62160993367e-06,332.708529988,1.06151915912,,,,,z,1,1.05049121426,2018_Nov_14_1407,59.986917459,chinese_cond2,001,1026,
images/scooter.jpg,pen,x,sounds/greatgatsby_chinese.wav,,,,,,,,,0,0,0,0,0,103,103,212,333.800019436,9.62160993367e-06,335.275836854,1.47582768113,,,,,x,1,1.4672715225,2018_Nov_14_1407,59.986917459,chinese_cond2,001,1026,
images/ladybug03.jpg,giraffe,x,sounds/greatgatsby_chinese.wav,,,,,,,,,0,0,0,0,0,104,104,178,336.378986385,9.94221772999e-06,337.543054367,1.16407856601,,,,,x,1,1.15050506929,2018_Nov_14_1407,59.986917459,chinese_cond2,001,1026,
images/flamingo.jpg,flamingo,z,sounds/greatgatsby_chinese.wav,,,,,,,,,0,0,0,0,0,105,105,52,338.641685279,9.62160993367e-06,339.676933009,1.03525735182,,,,,z,1,1.01715593517,2018_Nov_14_1407,59.986917459,chinese_cond2,001,1026,
images/cherry01.jpg,highlighter,x,sounds/greatgatsby_chinese.wav,,,,,,,,,0,0,0,0,0,106,106,187,340.784127136,9.62160993367e-06,341.827566046,1.04344917298,,,,,x,1,1.03394015634,2018_Nov_14_1407,59.986917459,chinese_cond2,001,1026,
images/triangleruler02.jpg,bottle of red wine,x,sounds/greatgatsby_chinese.wav,,,,,,,,,0,0,0,0,0,107,107,134,342.937425032,9.62149351835e-06,344.711493437,1.77407802723,,,,,x,1,1.75066292752,2018_Nov_14_1407,59.986917459,chinese_cond2,001,1026,
images/bracelet02a.jpg,chess knight,x,sounds/greatgatsby_chinese.wav,,,,,,,,,0,0,0,0,0,108,108,152,345.8196664,9.94233414531e-06,347.578872658,1.75921619975,,,,,x,1,1.75067319057,2018_Nov_14_1407,59.986917459,chinese_cond2,001,1026,
images/key03b.jpg,cigar,x,sounds/greatgatsby_chinese.wav,,,,,,,,,0,0,0,0,0,109,109,153,348.678759508,1.02630583569e-05,349.912779972,1.23403072753,,,,,x,1,1.21719422913,2018_Nov_14_1407,59.986917459,chinese_cond2,001,1026,
images/showerhead01.jpg,skateboard,x,sounds/greatgatsby_chinese.wav,,,,,,,,,0,0,0,0,0,110,110,223,351.018628038,9.62160993367e-06,352.163331289,1.1447135139,,,,,x,1,1.13384977751,2018_Nov_14_1407,59.986917459,chinese_cond2,001,1026,
images/feather03b.jpg,feather,z,sounds/greatgatsby_chinese.wav,,,,,,,,,0,0,0,0,0,111,111,114,353.263822054,9.30088572204e-06,354.463897231,1.200085119,,,,,z,1,1.18384804565,2018_Nov_14_1407,59.986917459,chinese_cond2,001,1026,
images/8ball.jpg,nail clipper,x,sounds/greatgatsby_chinese.wav,,,,,,,,,0,0,0,0,0,112,112,206,355.580550984,9.30088572204e-06,357.731387035,2.15084599436,,,,,x,1,2.13411212619,2018_Nov_14_1407,59.986917459,chinese_cond2,001,1026,
images/plant01.jpg,plant,z,sounds/greatgatsby_chinese.wav,,,,,,,,,0,0,0,0,0,113,113,47,358.841707858,9.94221772999e-06,360.098606217,1.25690894248,,,,,z,1,1.23386202892,2018_Nov_14_1407,59.986917459,chinese_cond2,001,1026,
images/charcoalbarbecue.jpg,charcoal barbecue,z,sounds/greatgatsby_chinese.wav,,,,,,,,,0,0,0,0,0,114,114,77,361.214353294,9.94233414531e-06,363.549492173,2.3351488203,,,,,z,1,2.31749256258,2018_Nov_14_1407,59.986917459,chinese_cond2,001,1026,
images/cupcake.jpg,scissors,x,sounds/greatgatsby_chinese.wav,,,,,,,,,0,0,0,0,0,115,115,219,364.666945479,9.30088572204e-06,366.0000712,1.33313534246,,,,,x,1,1.31722412014,2018_Nov_14_1407,59.986917459,chinese_cond2,001,1026,
images/safe.jpg,safe,z,sounds/greatgatsby_chinese.wav,,,,,,,,,0,0,0,0,0,116,116,78,367.109862193,9.30088572204e-06,368.834112575,1.7242606451,,,,,z,1,1.70065439632,2018_Nov_14_1407,59.986917459,chinese_cond2,001,1026,
images/straw.jpg,straw,z,sounds/greatgatsby_chinese.wav,,,,,,,,,0,0,0,0,0,117,117,109,369.925017672,9.94233414531e-06,371.218154143,1.29314673436,,,,,z,1,1.28400943172,2018_Nov_14_1407,59.986917459,chinese_cond2,001,1026,
images/saltshaker03c.jpg,salt shaker,z,sounds/greatgatsby_chinese.wav,,,,,,,,,0,0,0,0,0,118,118,63,372.327878106,9.62149351835e-06,374.952286218,2.6244177334,,,,,z,1,2.60087498743,2018_Nov_14_1407,59.986917459,chinese_cond2,001,1026,
images/grandpiano.jpg,tulip,x,sounds/greatgatsby_chinese.wav,,,,,,,,,0,0,0,0,0,119,119,236,376.066696536,9.62149351835e-06,378.786555946,2.71986903087,,,,,x,1,2.70089237031,2018_Nov_14_1407,59.986917459,chinese_cond2,001,1026,
images/radio03a.jpg,radio,z,sounds/greatgatsby_chinese.wav,,,,,,,,,0,0,0,0,0,120,120,37,379.900964661,9.94221772999e-06,380.970446968,1.0694922494,,,,,z,1,1.05049923225,2018_Nov_14_1407,59.986917459,chinese_cond2,001,1026,
images/antelope.jpg,antelope,z,sounds/greatgatsby_chinese.wav,,,,,,,,,0,0,0,0,0,121,121,12,382.074415296,9.62160993367e-06,383.337700787,1.26329607423,,,,,x,0,1.25055580714,2018_Nov_14_1407,59.986917459,chinese_cond2,001,1026,
images/flipflop01b.jpg,flip flop,z,sounds/greatgatsby_chinese.wav,,,,,,,,,0,0,0,0,0,122,122,27,384.453771471,9.62160993367e-06,386.205052104,1.75129057583,,,,,x,0,1.73397556366,2018_Nov_14_1407,59.986917459,chinese_cond2,001,1026,
images/handbag02a.jpg,candle,x,sounds/greatgatsby_chinese.wav,,,,,,,,,0,0,0,0,0,123,123,144,387.321235361,9.94233414531e-06,388.388943447,1.06771802844,,,,,x,1,1.05050500506,2018_Nov_14_1407,59.986917459,chinese_cond2,001,1026,
images/bowtie.jpg,bowtie,z,sounds/greatgatsby_chinese.wav,,,,,,,,,0,0,0,0,0,124,124,89,389.498301469,9.62149351835e-06,390.622813815,1.1245222881,,,,,x,0,1.10050936695,2018_Nov_14_1407,59.986917459,chinese_cond2,001,1026,
images/dreamcatcher.jpg,dream catcher,z,sounds/greatgatsby_chinese.wav,,,,,,,,,0,0,0,0,0,125,125,48,391.719867427,9.62160993367e-06,393.406889956,1.68703247095,,,,,z,1,1.66736177308,2018_Nov_14_1407,59.986917459,chinese_cond2,001,1026,
images/bench02.jpg,electric toothbrush,x,sounds/greatgatsby_chinese.wav,,,,,,,,,0,0,0,0,0,126,126,172,394.515118403,8.98016151041e-06,396.690973474,2.17586437147,,,,,z,0,2.16743072786,2018_Nov_14_1407,59.986917459,chinese_cond2,001,1026,
images/birthdaycandle.jpg,birthday candle,z,sounds/greatgatsby_chinese.wav,,,,,,,,,0,0,0,0,0,127,127,55,397.785712774,9.62160993367e-06,399.525009397,1.73930688645,,,,,z,1,1.71731963044,2018_Nov_14_1407,59.986917459,chinese_cond2,001,1026,
images/pen03c.jpg,pepper,x,sounds/greatgatsby_chinese.wav,,,,,,,,,0,0,0,0,0,128,128,211,400.618154079,9.62160993367e-06,402.142320625,1.52417680889,,,,,x,1,1.50059236912,2018_Nov_14_1407,59.986917459,chinese_cond2,001,1026,
images/dragonfly02.jpg,dragon fly,z,sounds/greatgatsby_chinese.wav,,,,,,,,,0,0,0,0,0,129,129,29,403.238665447,9.30076930672e-06,405.643186247,2.40453106293,,,,,z,1,2.38414836745,2018_Nov_14_1407,59.986917459,chinese_cond2,001,1026,
images/paintbrush03a.jpg,paint brush,z,sounds/greatgatsby_chinese.wav,,,,,,,,,0,0,0,0,0,130,130,0,406.742056737,9.62149351835e-06,408.127145133,1.38509833906,,,,,z,1,1.36724900804,2018_Nov_14_1407,59.986917459,chinese_cond2,001,1026,
images/mitten01.jpg,mitten,z,sounds/greatgatsby_chinese.wav,,,,,,,,,0,0,0,0,0,131,131,102,409.247677028,9.62160993367e-06,410.811120505,1.56345406082,,,,,z,1,1.5506073148,2018_Nov_14_1407,59.986917459,chinese_cond2,001,1026,
images/volleyball.jpg,volley ball,z,sounds/greatgatsby_chinese.wav,,,,,,,,,0,0,0,0,0,132,132,2,411.942488554,9.62160993367e-06,412.81161313,0.869134198059,,,,,z,1,0.850434959983,2018_Nov_14_1407,59.986917459,chinese_cond2,001,1026,
images/toucan.jpg,toucan,z,sounds/greatgatsby_chinese.wav,,,,,,,,,0,0,0,0,0,133,133,81,413.911059311,9.30088572204e-06,415.378929938,1.46788056917,,,,,z,1,1.45059923269,2018_Nov_14_1407,59.986917459,chinese_cond2,001,1026,
images/ceilingfan02.jpg,paper clip,x,sounds/greatgatsby_chinese.wav,,,,,,,,,0,0,0,0,0,134,134,208,416.476323835,1.02629419416e-05,417.712848799,1.23653554788,,,,,x,1,1.2172157173,2018_Nov_14_1407,59.986917459,chinese_cond2,001,1026,
images/cola.jpg,comb,x,sounds/greatgatsby_chinese.wav,,,,,,,,,0,0,0,0,0,135,135,157,418.832276776,9.62160993367e-06,420.980310059,2.1480432254,,,,,x,1,2.13408101641,2018_Nov_14_1407,59.986917459,chinese_cond2,001,1026,
images/lemon02.jpg,lemon,z,sounds/greatgatsby_chinese.wav,,,,,,,,,0,0,0,0,0,136,136,14,422.091963151,9.62160993367e-06,422.830766828,0.738813619595,,,,,z,1,0.717089033104,2018_Nov_14_1407,59.986917459,chinese_cond2,001,1026,
images/lantern03.jpg,lantern,z,sounds/greatgatsby_chinese.wav,,,,,,,,,0,0,0,0,0,137,137,5,423.936489813,9.30088572204e-06,424.847932705,0.911452513654,,,,,z,1,0.90041558852,2018_Nov_14_1407,59.986917459,chinese_cond2,001,1026,
images/ashtray02b.jpg,ashtray,z,sounds/greatgatsby_chinese.wav,,,,,,,,,0,0,0,0,0,138,138,43,425.961002736,9.62160993367e-06,427.448563304,1.48757051025,,,,,z,1,1.46724490274,2018_Nov_14_1407,59.986917459,chinese_cond2,001,1026,
images/aloe02.jpg,broad sword,x,sounds/greatgatsby_chinese.wav,,,,,,,,,0,0,0,0,0,139,139,137,428.571243379,9.30088572204e-06,430.349283256,1.77804949856,,,,,z,0,1.76733521745,2018_Nov_14_1407,59.986917459,chinese_cond2,001,1026,
images/umbrella01.jpg,umbrella,z,sounds/greatgatsby_chinese.wav,,,,,,,,,0,0,0,0,0,140,140,53,431.461368678,9.62160993367e-06,432.899912379,1.43855396495,,,,,z,1,1.41725016257,2018_Nov_14_1407,59.986917459,chinese_cond2,001,1026,
images/binder03b.jpg,dj mixer,x,sounds/greatgatsby_chinese.wav,,,,,,,,,0,0,0,0,0,141,141,167,434.011374002,9.62160993367e-06,435.100481464,1.08911740524,,,,,x,1,1.06717120146,2018_Nov_14_1407,59.986917459,chinese_cond2,001,1026,
images/lock02a.jpg,lock,z,sounds/greatgatsby_chinese.wav,,,,,,,,,0,0,0,0,0,142,142,65,436.209492788,9.62160993367e-06,436.934244776,0.724762250553,,,,,z,1,0.700417705346,2018_Nov_14_1407,59.986917459,chinese_cond2,001,1026,
images/screw03c.jpg,screw,z,sounds/greatgatsby_chinese.wav,,,,,,,,,0,0,0,0,0,143,143,84,438.080047133,9.30088572204e-06,439.334832591,1.25479507935,,,,,z,1,1.23387710284,2018_Nov_14_1407,59.986917459,chinese_cond2,001,1026,
images/tie01.jpg,bench,x,sounds/greatgatsby_chinese.wav,,,,,,,,,0,0,0,0,0,144,144,130,440.432436879,9.62160993367e-06,441.518703407,1.08627647057,,,,,x,1,1.06715997623,2018_Nov_14_1407,59.986917459,chinese_cond2,001,1026,
images/cigar.jpg,crocodile,x,sounds/greatgatsby_chinese.wav,,,,,,,,,0,0,0,0,0,145,145,162,442.616069401,8.98016151041e-06,444.152687887,1.53662842826,,,,,x,1,1.51727203571,2018_Nov_14_1407,59.986917459,chinese_cond2,001,1026,
images/parkingmeter.jpg,ear,x,sounds/greatgatsby_chinese.wav,,,,,,,,,0,0,0,0,0,146,146,171,445.253320731,9.62160993367e-06,446.236524643,0.983214496053,,,,,x,1,0.967128802207,2018_Nov_14_1407,59.986917459,chinese_cond2,001,1026,
images/puzzle.jpg,puzzle,z,sounds/greatgatsby_chinese.wav,,,,,,,,,0,0,0,0,0,147,147,57,447.355440111,9.94233414531e-06,449.820747225,2.46531833999,,,,,z,1,2.45083111292,2018_Nov_14_1407,59.986917459,chinese_cond2,001,1026,
images/basketball01.jpg,basket ball,z,sounds/greatgatsby_chinese.wav,,,,,,,,,0,0,0,0,0,148,148,33,450.959225308,9.94233414531e-06,452.054643892,1.09542884713,,,,,z,1,1.08384220849,2018_Nov_14_1407,59.986917459,chinese_cond2,001,1026,
images/kiwi03.jpg,backpack,x,sounds/greatgatsby_chinese.wav,,,,,,,,,0,0,0,0,0,149,149,125,453.182135723,9.62160993367e-06,454.138482573,0.956357432995,,,,,x,1,0.933788071037,2018_Nov_14_1407,59.986917459,chinese_cond2,001,1026,
images/ruler02b.jpg,watermelon,x,sounds/greatgatsby_chinese.wav,,,,,,,,,0,0,0,0,0,150,150,238,455.239813623,9.62160993367e-06,456.188982126,0.949178765295,,,,,x,1,0.933791598887,2018_Nov_14_1407,59.986917459,chinese_cond2,001,1026,
images/broom02.jpg,broom,z,sounds/greatgatsby_chinese.wav,,,,,,,,,0,0,0,0,0,151,151,116,457.2811608,8.98016151041e-06,458.439539857,1.15838899964,,,,,x,0,1.13383983518,2018_Nov_14_1407,59.986917459,chinese_cond2,001,1026,
images/hairband.jpg,hairband,z,sounds/greatgatsby_chinese.wav,,,,,,,,,0,0,0,0,0,152,152,66,459.548873504,9.30088572204e-06,460.973519462,1.4246562206,,,,,z,1,1.40059615369,2018_Nov_14_1407,59.986917459,chinese_cond2,001,1026,
images/lipstick04.jpg,lipstick,z,sounds/greatgatsby_chinese.wav,,,,,,,,,0,0,0,0,0,153,153,56,462.071908231,9.30088572204e-06,463.190709522,1.11881123343,,,,,z,1,1.10050038679,2018_Nov_14_1407,59.986917459,chinese_cond2,001,1026,
images/skateboard.jpg,key,x,sounds/greatgatsby_chinese.wav,,,,,,,,,0,0,0,0,0,154,154,189,464.280356435,1.02630583569e-05,465.141190729,0.860844557406,,,,,x,1,0.850442336523,2018_Nov_14_1407,59.986917459,chinese_cond2,001,1026,
images/backpack01b.jpg,swallow,x,sounds/greatgatsby_chinese.wav,,,,,,,,,0,0,0,0,0,155,155,228,466.271807332,9.62160993367e-06,467.52511748,1.25332008966,,,,,x,1,1.2338738956,2018_Nov_14_1407,59.986917459,chinese_cond2,001,1026,
images/hairpin.jpg,hair pin,z,sounds/greatgatsby_chinese.wav,,,,,,,,,0,0,0,0,0,156,156,28,468.616168183,9.94233414531e-06,469.875707347,1.25954942731,,,,,z,1,1.25055163784,2018_Nov_14_1407,59.986917459,chinese_cond2,001,1026,
images/cauliflower01.jpg,glue stick,x,sounds/greatgatsby_chinese.wav,,,,,,,,,0,0,0,0,0,157,157,181,470.991762957,9.30088572204e-06,472.076242115,1.08448877931,,,,,x,1,1.06716799422,2018_Nov_14_1407,59.986917459,chinese_cond2,001,1026,
images/computermouse02a.jpg,world map,x,sounds/greatgatsby_chinese.wav,,,,,,,,,0,0,0,0,0,158,158,239,473.177192792,9.94221772999e-06,474.343469891,1.16628768295,,,,,x,1,1.15051084221,2018_Nov_14_1407,59.986917459,chinese_cond2,001,1026,
images/djmixer01.jpg,light bulb,x,sounds/greatgatsby_chinese.wav,,,,,,,,,0,0,0,0,0,159,159,196,475.463247453,9.62160993367e-06,476.827408572,1.36417138239,,,,,x,1,1.35055490909,2018_Nov_14_1407,59.986917459,chinese_cond2,001,1026,
images/weight01.jpg,weight,z,sounds/greatgatsby_chinese.wav,,,,,,,,,0,0,0,0,0,160,160,67,477.932425654,9.94233414531e-06,480.094889717,2.16247400572,,,,,z,1,2.15077094582,2018_Nov_14_1407,59.986917459,chinese_cond2,001,1026,
images/stapler03a.jpg,candy cane,x,sounds/greatgatsby_chinese.wav,,,,,,,,,0,0,0,0,0,161,161,145,481.20492991,9.62160993367e-06,482.228747834,1.02382786595,,,,,x,1,1.00048428669,2018_Nov_14_1407,59.986917459,chinese_cond2,001,1026,
images/parkbench03.jpg,park bench,z,sounds/greatgatsby_chinese.wav,,,,,,,,,0,0,0,0,0,162,162,71,483.333150416,9.94233414531e-06,484.245904089,0.912763615604,,,,,z,1,0.900453112787,2018_Nov_14_1407,59.986917459,chinese_cond2,001,1026,
images/licenseplate.jpg,license plate,z,sounds/greatgatsby_chinese.wav,,,,,,,,,0,0,0,0,0,163,163,40,485.362000431,9.62160993367e-06,486.813226991,1.4512365025,,,,,z,1,1.43393945065,2018_Nov_14_1407,59.986917459,chinese_cond2,001,1026,
images/flower01.jpg,bus,x,sounds/greatgatsby_chinese.wav,,,,,,,,,0,0,0,0,0,164,164,140,487.927769125,9.94233414531e-06,488.76368639,0.835927206906,,,,,x,1,0.817100643064,2018_Nov_14_1407,59.986917459,chinese_cond2,001,1026,
images/tank.jpg,wallet,x,sounds/greatgatsby_chinese.wav,,,,,,,,,0,0,0,0,0,165,165,237,489.867064915,9.30088572204e-06,491.9978252,2.13077054825,,,,,x,1,2.11741931015,2018_Nov_14_1407,59.986917459,chinese_cond2,001,1026,
images/magnifyingglass01b.jpg,magnifying glass,z,sounds/greatgatsby_chinese.wav,,,,,,,,,0,0,0,0,0,166,166,64,493.103763068,8.98004509509e-06,495.015223279,1.91146983241,,,,,z,1,1.90069878392,2018_Nov_14_1407,59.986917459,chinese_cond2,001,1026,
images/shotglass.jpg,shot glass,z,sounds/greatgatsby_chinese.wav,,,,,,,,,0,0,0,0,0,167,167,86,496.122644795,9.30088572204e-06,497.449167861,1.3265330079,,,,,z,1,1.3172138572,2018_Nov_14_1407,59.986917459,chinese_cond2,001,1026,
images/bowlingball.jpg,bowling ball,z,sounds/greatgatsby_chinese.wav,,,,,,,,,0,0,0,0,0,168,168,20,498.581028856,9.94233414531e-06,499.949791661,1.36877306772,,,,,z,1,1.35057030374,2018_Nov_14_1407,59.986917459,chinese_cond2,001,1026,
images/puma.jpg,puma,z,sounds/greatgatsby_chinese.wav,,,,,,,,,0,0,0,0,0,169,169,4,501.047488316,9.30088572204e-06,502.083632137,1.03615376318,,,,,z,1,1.01713957847,2018_Nov_14_1407,59.986917459,chinese_cond2,001,1026,
images/parkfountain.jpg,park fountain,z,sounds/greatgatsby_chinese.wav,,,,,,,,,0,0,0,0,0,170,170,93,503.202486668,9.62160993367e-06,504.867675565,1.66519883974,,,,,z,1,1.65065420384,2018_Nov_14_1407,59.986917459,chinese_cond2,001,1026,
images/donut.jpg,rhinoceros,x,sounds/greatgatsby_chinese.wav,,,,,,,,,0,0,0,0,0,171,171,216,505.993936795,9.62149351835e-06,507.785050488,1.79112395551,,,,,z,0,1.76733906614,2018_Nov_14_1407,59.986917459,chinese_cond2,001,1026,
images/toothbrush03a.jpg,parrot,x,sounds/greatgatsby_chinese.wav,,,,,,,,,0,0,0,0,0,172,172,210,508.877566238,9.94233414531e-06,509.818878713,0.941323699779,,,,,x,1,0.917127327062,2018_Nov_14_1407,59.986917459,chinese_cond2,001,1026,
images/eyedrops.jpg,bicycle,x,sounds/greatgatsby_chinese.wav,,,,,,,,,0,0,0,0,0,173,173,131,510.917992308,9.62160993367e-06,511.986084937,1.0681025713,,,,,x,1,1.05049089342,2018_Nov_14_1407,59.986917459,chinese_cond2,001,1026,
images/glasses01b.jpg,calculator,x,sounds/greatgatsby_chinese.wav,,,,,,,,,0,0,0,0,0,174,174,142,513.077402479,9.94233414531e-06,514.036583848,0.959191311849,,,,,x,1,0.950462926761,2018_Nov_14_1407,59.986917459,chinese_cond2,001,1026,
images/worldmap.jpg,scooter,x,sounds/greatgatsby_chinese.wav,,,,,,,,,0,0,0,0,0,175,175,220,515.166245348,9.62160993367e-06,516.470527468,1.30429238337,,,,,x,1,1.28388980334,2018_Nov_14_1407,59.986917459,chinese_cond2,001,1026,
images/bed.jpg,bed,z,sounds/greatgatsby_chinese.wav,,,,,,,,,0,0,0,0,0,176,176,103,517.589907338,9.30088572204e-06,518.287628111,0.697730716085,,,,,z,1,0.683726492804,2018_Nov_14_1407,59.986917459,chinese_cond2,001,1026,
images/calculator02b.jpg,dice,x,sounds/greatgatsby_chinese.wav,,,,,,,,,0,0,0,0,0,177,177,165,519.387653833,9.62160993367e-06,521.155017595,1.76737466594,,,,,x,1,1.75066196534,2018_Nov_14_1407,59.986917459,chinese_cond2,001,1026,
images/egg01b (1).jpg,egg,z,sounds/greatgatsby_chinese.wav,,,,,,,,,0,0,0,0,0,178,178,19,522.266374021,9.62160993367e-06,522.922112272,0.655748194084,,,,,z,1,0.633715716656,2018_Nov_14_1407,59.986917459,chinese_cond2,001,1026,
images/remotecontrol01c.jpg,remote control,z,sounds/greatgatsby_chinese.wav,,,,,,,,,0,0,0,0,0,179,179,85,524.031567793,9.94221772999e-06,524.972615995,0.941058464581,,,,,z,1,0.917126685497,2018_Nov_14_1407,59.986917459,chinese_cond2,001,1026,
images/mirror02.jpg,8 ball,x,sounds/greatgatsby_chinese.wav,,,,,,,,,0,0,0,0,0,180,180,121,526.075456993,9.30088572204e-06,527.389875137,1.31442808628,,,,,x,1,1.30053900147,2018_Nov_14_1407,59.986917459,chinese_cond2,001,1026,
images/orange.jpg,bat,x,sounds/greatgatsby_chinese.wav,,,,,,,,,0,0,0,0,0,181,181,128,528.515043676,1.05837825686e-05,529.640435114,1.12540202215,,,,,x,1,1.11717716686,2018_Nov_14_1407,59.986917459,chinese_cond2,001,1026,
images/lollipop03b.jpg,lollipop,z,sounds/greatgatsby_chinese.wav,,,,,,,,,0,0,0,0,0,182,182,42,530.732030399,9.62160993367e-06,531.874324083,1.14230394736,,,,,z,1,1.13385041896,2018_Nov_14_1407,59.986917459,chinese_cond2,001,1026,
images/gorilla.jpg,gorilla,z,sounds/greatgatsby_chinese.wav,,,,,,,,,0,0,0,0,0,183,183,80,532.985490002,9.62160993367e-06,533.891475849,0.905995789566,,,,,z,1,0.88376414543,2018_Nov_14_1407,59.986917459,chinese_cond2,001,1026,
images/tent.jpg,tent,z,sounds/greatgatsby_chinese.wav,,,,,,,,,0,0,0,0,0,184,184,11,535.016269787,9.30088572204e-06,535.875304523,0.859044358134,,,,,z,1,0.850444581592,2018_Nov_14_1407,59.986917459,chinese_cond2,001,1026,
images/giraffe.jpg,lettuce,x,sounds/greatgatsby_chinese.wav,,,,,,,,,0,0,0,0,0,185,185,195,536.976655138,9.30088572204e-06,538.30925552,1.33261000365,,,,,x,1,1.3172343832,2018_Nov_14_1407,59.986917459,chinese_cond2,001,1026,
images/tape01a.jpg,tie,x,sounds/greatgatsby_chinese.wav,,,,,,,,,0,0,0,0,0,186,186,232,539.435110719,9.62160993367e-06,541.293309981,1.85820920416,,,,,x,1,1.83399775752,2018_Nov_14_1407,59.986917459,chinese_cond2,001,1026,
images/arrow02.jpg,hammer,x,sounds/greatgatsby_chinese.wav,,,,,,,,,0,0,0,0,0,187,187,184,542.390294959,9.94233414531e-06,544.110676821,1.72039244534,,,,,z,0,1.70064830268,2018_Nov_14_1407,59.986917459,chinese_cond2,001,1026,
images/cat.jpg,black olive,x,sounds/greatgatsby_chinese.wav,,,,,,,,,0,0,0,0,0,188,188,133,545.241478479,9.62160993367e-06,547.444836542,2.20336896752,,,,,x,1,2.18410975276,2018_Nov_14_1407,59.986917459,chinese_cond2,001,1026,
images/panda.jpg,panda,z,sounds/greatgatsby_chinese.wav,,,,,,,,,0,0,0,0,0,189,189,83,548.554323173,9.62160993367e-06,549.445324357,0.891011126456,,,,,z,1,0.867102759774,2018_Nov_14_1407,59.986917459,chinese_cond2,001,1026,
images/handfan01b.jpg,handfan,z,sounds/greatgatsby_chinese.wav,,,,,,,,,0,0,0,0,0,190,190,69,550.559841154,9.30088572204e-06,551.679202742,1.11937217205,,,,,z,1,1.10049974534,2018_Nov_14_1407,59.986917459,chinese_cond2,001,1026,
images/fork01.jpg,cooking pot,x,sounds/greatgatsby_chinese.wav,,,,,,,,,0,0,0,0,0,191,191,160,552.773310866,9.30088572204e-06,555.229926478,2.45662587532,,,,,x,1,2.43401000905,2018_Nov_14_1407,59.986917459,chinese_cond2,001,1026,
images/hand01a.jpg,cupcake,x,sounds/greatgatsby_chinese.wav,,,,,,,,,0,0,0,0,0,192,192,163,556.340000346,9.30088572204e-06,557.680678694,1.3406886108,,,,,x,1,1.31721770577,2018_Nov_14_1407,59.986917459,chinese_cond2,001,1026,
images/atm.jpg,atm,z,sounds/greatgatsby_chinese.wav,,,,,,,,,0,0,0,0,0,193,193,96,558.819509568,9.62160993367e-06,559.697850024,0.878351039253,,,,,z,1,0.867069405038,2018_Nov_14_1407,59.986917459,chinese_cond2,001,1026,
images/barrel01.jpg,barrel,z,sounds/greatgatsby_chinese.wav,,,,,,,,,0,0,0,0,0,194,194,9,560.82843231,9.30088572204e-06,562.481867474,1.65344542696,,,,,z,1,1.63396299153,2018_Nov_14_1407,59.986917459,chinese_cond2,001,1026,
,,,sounds/greatgatsby_chinese.wav,,,,,,,,,0,0,0,0,,,,,,,,,,,,,,,,2018_Nov_14_1407,59.986917459,chinese_cond2,001,1026,
images/dice05a.jpg,band aid,x,sounds/animalfarm_english.wav,,,,,,,,,0,1,1,1,0,0,0,126,583.621899764,1.05836661533e-05,586.621002069,2.99911256868,,,,573.484752988,None,0,,2018_Nov_14_1407,59.986917459,chinese_cond2,001,1026,
images/globe.jpg,cloud,x,sounds/animalfarm_english.wav,,,,,,,,,0,1,1,1,0,1,1,154,587.7480481,9.30076930672e-06,588.621661148,0.873622669489,,,,,x,1,0.850450675236,2018_Nov_14_1407,59.986917459,chinese_cond2,001,1026,
images/elbow.jpg,elbow,z,sounds/animalfarm_english.wav,,,,,,,,,0,1,1,1,0,2,2,105,589.731047714,9.30076930672e-06,590.455451721,0.724413948948,,,,,z,1,0.700418346678,2018_Nov_14_1407,59.986917459,chinese_cond2,001,1026,
images/nametag01a.jpg,name tag,z,sounds/animalfarm_english.wav,,,,,,,,,0,1,1,1,0,3,3,108,591.574607086,9.62160993367e-06,592.555971351,0.98137420672,,,,,z,1,0.967160232831,2018_Nov_14_1407,59.986917459,chinese_cond2,001,1026,
images/knife04.jpg,tooth brush,x,sounds/animalfarm_english.wav,,,,,,,,,0,1,1,1,0,4,4,233,593.65069718,9.94233414531e-06,595.656725106,2.00603786809,,,,,x,1,1.98405446077,2018_Nov_14_1407,59.986917459,chinese_cond2,001,1026,
images/microphone01.jpg,diaper,x,sounds/animalfarm_english.wav,,,,,,,,,0,1,1,1,0,5,5,164,596.753765569,9.62160993367e-06,597.690544672,0.936789044761,,,,,x,1,0.917118988233,2018_Nov_14_1407,59.986917459,chinese_cond2,001,1026,
images/pineapple01a.jpg,pineapple,z,sounds/animalfarm_english.wav,,,,,,,,,0,1,1,1,0,6,6,51,598.801346574,9.30076930672e-06,599.607706636,0.806370646693,,,,,z,1,0.783771457733,2018_Nov_14_1407,59.986917459,chinese_cond2,001,1026,
images/saltshaker03c.jpg,salt shaker,z,sounds/animalfarm_english.wav,,,,,,,,,0,1,1,1,0,7,7,63,600.71863426,9.30088572204e-06,601.358130628,0.639505989151,,,,,z,1,0.617064914899,2018_Nov_14_1407,59.986917459,chinese_cond2,001,1026,
images/nailpolish02b.jpg,nail polish,z,sounds/animalfarm_english.wav,,,,,,,,,0,1,1,1,0,8,8,94,602.464711538,9.30088572204e-06,603.408643009,0.943941413541,,,,,x,0,0.933798654703,2018_Nov_14_1407,59.986917459,chinese_cond2,001,1026,
images/key03b.jpg,cigar,x,sounds/animalfarm_english.wav,,,,,,,,,0,1,1,1,0,9,9,153,604.509672905,9.94233414531e-06,605.375776623,0.866113660508,,,,,x,1,0.850441695075,2018_Nov_14_1407,59.986917459,chinese_cond2,001,1026,
images/ear.jpg,bullet,x,sounds/animalfarm_english.wav,,,,,,,,,0,1,1,1,0,10,10,139,606.477487405,9.30088572204e-06,607.659680217,1.18220275384,,,,,x,1,1.1671892259,2018_Nov_14_1407,59.986917459,chinese_cond2,001,1026,
images/thumbtack02a.jpg,thumb tack,z,sounds/animalfarm_english.wav,,,,,,,,,0,1,1,1,0,11,11,60,608.767934642,9.30076930672e-06,610.010265915,1.24234121491,,,,,z,1,1.23387710284,2018_Nov_14_1407,59.986917459,chinese_cond2,001,1026,
images/candy.jpg,candy,z,sounds/animalfarm_english.wav,,,,,,,,,0,1,1,1,0,12,12,31,611.110498822,8.98016151041e-06,611.860723646,0.750234766863,,,,,z,1,0.733752342872,2018_Nov_14_1407,59.986917459,chinese_cond2,001,1026,
images/screwdriver02b.jpg,cola,x,sounds/animalfarm_english.wav,,,,,,,,,0,1,1,1,0,13,13,158,612.952593147,9.30088572204e-06,613.777854501,0.825271938229,,,,,x,1,0.817102567409,2018_Nov_14_1407,59.986917459,chinese_cond2,001,1026,
images/daisy.jpg,daisy,z,sounds/animalfarm_english.wav,,,,,,,,,0,1,1,1,0,14,14,6,614.879289465,9.94221772999e-06,615.795022303,0.915743100923,,,,,z,1,0.900460489211,2018_Nov_14_1407,59.986917459,chinese_cond2,001,1026,
images/pen03c.jpg,pepper,x,sounds/animalfarm_english.wav,,,,,,,,,0,1,1,1,0,15,15,211,616.887209316,9.62160993367e-06,617.745492606,0.858293874189,,,,,x,1,0.833763952833,2018_Nov_14_1407,59.986917459,chinese_cond2,001,1026,
images/bed.jpg,bed,z,sounds/animalfarm_english.wav,,,,,,,,,0,1,1,1,0,16,16,103,618.862795816,9.30088572204e-06,619.662642704,0.799857472186,,,,,z,1,0.783764081192,2018_Nov_14_1407,59.986917459,chinese_cond2,001,1026,
images/seagull.jpg,seagull,z,sounds/animalfarm_english.wav,,,,,,,,,0,1,1,1,0,17,17,50,620.768279737,9.30088572204e-06,621.529765028,0.761495233513,,,,,z,1,0.750421104836,2018_Nov_14_1407,59.986917459,chinese_cond2,001,1026,
images/sock03.jpg,sock,z,sounds/animalfarm_english.wav,,,,,,,,,0,1,1,1,0,18,18,90,622.634192306,8.98004509509e-06,623.430233535,0.796051171375,,,,,z,1,0.783755421871,2018_Nov_14_1407,59.986917459,chinese_cond2,001,1026,
images/barrel01.jpg,barrel,z,sounds/animalfarm_english.wav,,,,,,,,,0,1,1,1,0,19,19,9,624.558303303,9.30088572204e-06,625.764139888,1.20584620605,,,,,z,1,1.18385446002,2018_Nov_14_1407,59.986917459,chinese_cond2,001,1026,
images/triangleruler02.jpg,bottle of red wine,x,sounds/animalfarm_english.wav,,,,,,,,,0,1,1,1,0,20,20,134,626.873027735,9.62149351835e-06,627.914674463,1.04165635013,,,,,x,1,1.01715112431,2018_Nov_14_1407,59.986917459,chinese_cond2,001,1026,
images/aquarium.jpg,computer mouse,x,sounds/animalfarm_english.wav,,,,,,,,,0,1,1,1,0,21,21,159,629.049138739,9.30088572204e-06,630.582001278,1.53287215985,,,,,x,1,1.51727235643,2018_Nov_14_1407,59.986917459,chinese_cond2,001,1026,
images/cockroach02.jpg,belt,x,sounds/animalfarm_english.wav,,,,,,,,,0,1,1,1,0,22,22,129,631.679498446,9.30088572204e-06,632.465801023,0.786312198848,,,,,x,1,0.767090829089,2018_Nov_14_1407,59.986917459,chinese_cond2,001,1026,
images/gluestick.jpg,squirrel,x,sounds/animalfarm_english.wav,,,,,,,,,0,1,1,1,0,23,23,226,633.571915286,9.62160993367e-06,634.316255547,0.744350523455,,,,,x,1,0.733736948227,2018_Nov_14_1407,59.986917459,chinese_cond2,001,1026,
images/croissant02b.jpg,croissant,z,sounds/animalfarm_english.wav,,,,,,,,,0,1,1,1,0,24,24,39,635.425682203,1.02630583569e-05,636.53346036,1.10778842005,,,,,x,0,1.08382649324,2018_Nov_14_1407,59.986917459,chinese_cond2,001,1026,
images/highlighter03b.jpg,coin,x,sounds/animalfarm_english.wav,,,,,,,,,0,1,1,1,0,25,25,156,637.633656704,9.62160993367e-06,638.600484992,0.966838550987,,,,,x,1,0.950232970761,2018_Nov_14_1407,59.986917459,chinese_cond2,001,1026,
images/lamp04b.jpg,parking meter,x,sounds/animalfarm_english.wav,,,,,,,,,0,1,1,1,0,26,26,209,639.720380899,9.30076930672e-06,641.568071782,1.84770146641,,,,,x,1,1.8340477898,2018_Nov_14_1407,59.986917459,chinese_cond2,001,1026,
images/lettuce.jpg,mushroom,x,sounds/animalfarm_english.wav,,,,,,,,,0,1,1,1,0,27,27,205,642.689521255,9.62160993367e-06,645.3022943,2.61278330768,,,,,x,1,2.60079127958,2018_Nov_14_1407,59.986917459,chinese_cond2,001,1026,
images/wallet01.jpg,lamp,x,sounds/animalfarm_english.wav,,,,,,,,,0,1,1,1,0,28,28,193,646.406158074,9.62160993367e-06,649.153270956,2.74712346552,,,,,z,0,2.73426934297,2018_Nov_14_1407,59.986917459,chinese_cond2,001,1026,
images/banana04a.jpg,banana,z,sounds/animalfarm_english.wav,,,,,,,,,0,1,1,1,0,29,29,118,650.258722933,9.62149351835e-06,651.420739592,1.16202724318,,,,,z,1,1.1507828125,2018_Nov_14_1407,59.986917459,chinese_cond2,001,1026,
images/umbrella01.jpg,umbrella,z,sounds/animalfarm_english.wav,,,,,,,,,0,1,1,1,0,30,30,53,652.531309614,9.30088572204e-06,653.821067624,1.28976795299,,,,,z,1,1.26721526834,2018_Nov_14_1407,59.986917459,chinese_cond2,001,1026,
images/radish01.jpg,raisin,x,sounds/animalfarm_english.wav,,,,,,,,,0,1,1,1,0,31,31,214,654.931712374,8.98016151041e-06,656.85515884,1.92345640843,,,,,z,0,1.9007132164,2018_Nov_14_1407,59.986917459,chinese_cond2,001,1026,
images/cauliflower01.jpg,glue stick,x,sounds/animalfarm_english.wav,,,,,,,,,0,1,1,1,0,32,32,181,657.969389876,9.62160993367e-06,660.139288541,2.16990860773,,,,,x,1,2.15076581435,2018_Nov_14_1407,59.986917459,chinese_cond2,001,1026,
images/ant.jpg,ant,z,sounds/animalfarm_english.wav,,,,,,,,,0,1,1,1,0,33,33,98,661.232725399,9.62160993367e-06,662.006419524,0.773704388877,,,,,z,1,0.750415331917,2018_Nov_14_1407,59.986917459,chinese_cond2,001,1026,
images/8ball.jpg,nail clipper,x,sounds/animalfarm_english.wav,,,,,,,,,0,1,1,1,0,34,34,206,663.121950437,9.94233414531e-06,664.657073408,1.53513227124,,,,,z,0,1.51727075281,2018_Nov_14_1407,59.986917459,chinese_cond2,001,1026,
images/carrot02.jpg,corkscrew,x,sounds/animalfarm_english.wav,,,,,,,,,0,1,1,1,0,35,35,161,665.757800543,8.98016151041e-06,667.291090601,1.53329967917,,,,,x,1,1.51731372927,2018_Nov_14_1407,59.986917459,chinese_cond2,001,1026,
images/cupcake.jpg,scissors,x,sounds/animalfarm_english.wav,,,,,,,,,0,1,1,1,0,36,36,219,668.408673157,8.98016151041e-06,669.34159753,0.932933994685,,,,,x,1,0.917167096166,2018_Nov_14_1407,59.986917459,chinese_cond2,001,1026,
images/toucan.jpg,toucan,z,sounds/animalfarm_english.wav,,,,,,,,,0,1,1,1,0,37,37,81,670.440646981,9.94221772999e-06,671.475425178,1.03478845966,,,,,z,1,1.01714535151,2018_Nov_14_1407,59.986917459,chinese_cond2,001,1026,
images/volleyball.jpg,volley ball,z,sounds/animalfarm_english.wav,,,,,,,,,0,1,1,1,0,38,38,2,672.605683216,9.62149351835e-06,673.292532877,0.686860565213,,,,,z,1,0.667063824483,2018_Nov_14_1407,59.986917459,chinese_cond2,001,1026,
images/bowl02b (1).jpg,bowl,z,sounds/animalfarm_english.wav,,,,,,,,,0,1,1,1,0,39,39,24,674.410959888,9.30076930672e-06,675.326375855,0.915425909217,,,,,z,1,0.900468827924,2018_Nov_14_1407,59.986917459,chinese_cond2,001,1026,
images/parkbench03.jpg,park bench,z,sounds/animalfarm_english.wav,,,,,,,,,0,1,1,1,0,40,40,71,676.430213009,9.30088572204e-06,677.793648019,1.36344431085,,,,,z,1,1.35057222797,2018_Nov_14_1407,59.986917459,chinese_cond2,001,1026,
images/snowman.jpg,globe,x,sounds/animalfarm_english.wav,,,,,,,,,0,1,1,1,0,41,41,180,678.902689491,9.62160993367e-06,679.994191126,1.09151125664,,,,,x,1,1.0671731258,2018_Nov_14_1407,59.986917459,chinese_cond2,001,1026,
images/hammer02a.jpg,flower,x,sounds/animalfarm_english.wav,,,,,,,,,0,1,1,1,0,42,42,176,681.087498733,9.30088572204e-06,683.094959634,2.00747052266,,,,,x,1,1.98406119586,2018_Nov_14_1407,59.986917459,chinese_cond2,001,1026,
images/lion.jpg,lion,z,sounds/animalfarm_english.wav,,,,,,,,,0,1,1,1,0,43,43,44,684.205263458,9.30088572204e-06,685.245492927,1.04023973155,,,,,z,1,1.01715978375,2018_Nov_14_1407,59.986917459,chinese_cond2,001,1026,
images/scooter.jpg,pen,x,sounds/animalfarm_english.wav,,,,,,,,,0,1,1,1,0,44,44,212,686.336486221,8.98016151041e-06,687.596054892,1.25957829214,,,,,x,1,1.25053496042,2018_Nov_14_1407,59.986917459,chinese_cond2,001,1026,
images/swan.jpg,swan,z,sounds/animalfarm_english.wav,,,,,,,,,0,1,1,1,0,45,45,54,688.686999116,1.02630583569e-05,689.629889211,0.942900357535,,,,,z,1,0.933796089026,2018_Nov_14_1407,59.986917459,chinese_cond2,001,1026,
images/rubberglove02a.jpg,lady bug,x,sounds/animalfarm_english.wav,,,,,,,,,0,1,1,1,0,46,46,192,690.732919113,9.30076930672e-06,691.897119873,1.1642103818,,,,,x,1,1.15051629453,2018_Nov_14_1407,59.986917459,chinese_cond2,001,1026,
images/lychee02a.jpg,lychee,z,sounds/animalfarm_english.wav,,,,,,,,,0,1,1,1,0,47,47,62,693.019095006,9.62149351835e-06,693.797607945,0.778525446542,,,,,z,1,0.767106544343,2018_Nov_14_1407,59.986917459,chinese_cond2,001,1026,
images/flipflop01b.jpg,flip flop,z,sounds/animalfarm_english.wav,,,,,,,,,0,1,1,1,0,48,48,27,694.913109031,9.62160993367e-06,695.898113463,0.985014053877,,,,,z,1,0.967146121082,2018_Nov_14_1407,59.986917459,chinese_cond2,001,1026,
images/beachumbrella01.jpg,beach umbrella,z,sounds/animalfarm_english.wav,,,,,,,,,0,1,1,1,0,49,49,92,697.002079546,9.94233414531e-06,697.715250027,0.713180743507,,,,,z,1,0.70043245831,2018_Nov_14_1407,59.986917459,chinese_cond2,001,1026,
images/banjo.jpg,knife,x,sounds/animalfarm_english.wav,,,,,,,,,0,1,1,1,0,50,50,191,698.811998314,8.98016151041e-06,699.799083576,0.987094882992,,,,,x,1,0.967156704864,2018_Nov_14_1407,59.986917459,chinese_cond2,001,1026,
images/safe.jpg,safe,z,sounds/animalfarm_english.wav,,,,,,,,,0,1,1,1,0,51,51,78,700.908578224,9.94233414531e-06,703.199913855,2.29134621425,,,,,z,1,2.26746542961,2018_Nov_14_1407,59.986917459,chinese_cond2,001,1026,
images/parkfountain.jpg,park fountain,z,sounds/animalfarm_english.wav,,,,,,,,,0,1,1,1,0,52,52,93,704.318780893,9.94221772999e-06,705.117322453,0.79855182243,,,,,z,1,0.784021298401,2018_Nov_14_1407,59.986917459,chinese_cond2,001,1026,
images/battery03b.jpg,battery,z,sounds/animalfarm_english.wav,,,,,,,,,0,1,1,1,0,53,53,34,706.22469073,9.94233414531e-06,707.417607444,1.19292890164,,,,,z,1,1.18385381857,2018_Nov_14_1407,59.986917459,chinese_cond2,001,1026,
images/bottleofredwine02.jpg,pipe,x,sounds/animalfarm_english.wav,,,,,,,,,0,1,1,1,0,54,54,213,708.514200824,9.30088572204e-06,710.818461777,2.30427153665,,,,,x,1,2.28413419169,2018_Nov_14_1407,59.986917459,chinese_cond2,001,1026,
images/glasses01b.jpg,calculator,x,sounds/animalfarm_english.wav,,,,,,,,,0,1,1,1,0,55,55,142,711.91008721,9.94233414531e-06,712.718921946,0.808844998828,,,,,x,1,0.800423863111,2018_Nov_14_1407,59.986917459,chinese_cond2,001,1026,
images/apple06.jpg,apple,z,sounds/animalfarm_english.wav,,,,,,,,,0,1,1,1,0,56,56,13,713.844454822,9.62160993367e-06,714.486023359,0.641578479554,,,,,z,1,0.617039898876,2018_Nov_14_1407,59.986917459,chinese_cond2,001,1026,
images/handfan01b.jpg,handfan,z,sounds/animalfarm_english.wav,,,,,,,,,0,1,1,1,0,57,57,69,715.598802176,9.30088572204e-06,716.403176022,0.804383788607,,,,,z,1,0.783771137008,2018_Nov_14_1407,59.986917459,chinese_cond2,001,1026,
images/comb02a.jpg,diploma,x,sounds/animalfarm_english.wav,,,,,,,,,0,1,1,1,0,58,58,166,717.506258202,9.30088572204e-06,718.553709957,1.04746233788,,,,,x,1,1.03383303585,2018_Nov_14_1407,59.986917459,chinese_cond2,001,1026,
images/lip.jpg,boxing glove,x,sounds/animalfarm_english.wav,,,,,,,,,0,1,1,1,0,59,59,136,719.65471708,9.62160993367e-06,720.870940491,1.21623335313,,,,,x,1,1.20052963647,2018_Nov_14_1407,59.986917459,chinese_cond2,001,1026,
images/flower01.jpg,bus,x,sounds/animalfarm_english.wav,,,,,,,,,0,1,1,1,0,60,60,140,721.98352399,9.94221772999e-06,722.654725419,0.671211691573,,,,,x,1,0.650406929082,2018_Nov_14_1407,59.986917459,chinese_cond2,001,1026,
images/basketball01.jpg,basket ball,z,sounds/animalfarm_english.wav,,,,,,,,,0,1,1,1,0,61,61,33,723.792683615,1.02629419416e-05,725.305381547,1.51270851586,,,,,z,1,1.50061610248,2018_Nov_14_1407,59.986917459,chinese_cond2,001,1026,
images/butterfly.jpg,butterfly,z,sounds/animalfarm_english.wav,,,,,,,,,0,1,1,1,0,62,62,91,726.411014731,9.94233414531e-06,728.089388734,1.67838394502,,,,,z,1,1.66732007952,2018_Nov_14_1407,59.986917459,chinese_cond2,001,1026,
images/flamingo.jpg,flamingo,z,sounds/animalfarm_english.wav,,,,,,,,,0,1,1,1,0,63,63,52,729.18661297,9.62160993367e-06,729.889826709,0.703224322875,,,,,z,1,0.68372039916,2018_Nov_14_1407,59.986917459,chinese_cond2,001,1026,
images/atm.jpg,atm,z,sounds/animalfarm_english.wav,,,,,,,,,0,1,1,1,0,64,64,96,731.026807672,9.62160993367e-06,731.656933253,0.630135843996,,,,,z,1,0.617055614013,2018_Nov_14_1407,59.986917459,chinese_cond2,001,1026,
images/cigar.jpg,crocodile,x,sounds/animalfarm_english.wav,,,,,,,,,0,1,1,1,0,65,65,162,732.753669353,9.62160993367e-06,733.790788804,1.03713035455,,,,,x,1,1.0171536901,2018_Nov_14_1407,59.986917459,chinese_cond2,001,1026,
images/bicycle.jpg,hand bag,x,sounds/animalfarm_english.wav,,,,,,,,,0,1,1,1,0,66,66,186,734.899535213,9.62160993367e-06,735.924880083,1.02537982829,,,,,x,1,1.00065106084,2018_Nov_14_1407,59.986917459,chinese_cond2,001,1026,
images/teapot.jpg,light switch,x,sounds/animalfarm_english.wav,,,,,,,,,0,1,1,1,0,67,67,197,737.040074561,9.30088572204e-06,738.175210104,1.13514548482,,,,,x,1,1.11718165688,2018_Nov_14_1407,59.986917459,chinese_cond2,001,1026,
images/lily.jpg,kiwi,x,sounds/animalfarm_english.wav,,,,,,,,,0,1,1,1,0,68,68,190,739.273364747,9.30088572204e-06,740.592478868,1.31912438408,,,,,x,1,1.30055183021,2018_Nov_14_1407,59.986917459,chinese_cond2,001,1026,
images/belt02a.jpg,snowman,x,sounds/animalfarm_english.wav,,,,,,,,,0,1,1,1,0,69,69,224,741.694097604,4.10521170124e-05,742.743002218,1.04891648074,,,,,x,1,1.03382598003,2018_Nov_14_1407,59.986917459,chinese_cond2,001,1026,
images/table02.jpg,table,z,sounds/animalfarm_english.wav,,,,,,,,,0,1,1,1,0,70,70,49,743.856154353,9.94233414531e-06,744.776831085,0.920686673606,,,,,z,1,0.900457923533,2018_Nov_14_1407,59.986917459,chinese_cond2,001,1026,
images/orange.jpg,bat,x,sounds/animalfarm_english.wav,,,,,,,,,0,1,1,1,0,71,71,128,745.899986466,9.30088572204e-06,748.511085354,2.61110883043,,,,,x,1,2.60087947745,2018_Nov_14_1407,59.986917459,chinese_cond2,001,1026,
images/axe01.jpg,axe,z,sounds/animalfarm_english.wav,,,,,,,,,0,1,1,1,0,72,72,104,749.61378267,9.62160993367e-06,750.511575413,0.897803006228,,,,,z,1,0.883781464188,2018_Nov_14_1407,59.986917459,chinese_cond2,001,1026,
images/remotecontrol01c.jpg,remote control,z,sounds/animalfarm_english.wav,,,,,,,,,0,1,1,1,0,73,73,85,751.620166915,9.94221772999e-06,752.928848668,1.30869169475,,,,,z,1,1.30055920675,2018_Nov_14_1407,59.986917459,chinese_cond2,001,1026,
images/lightbulb03b.jpg,treadmill,x,sounds/animalfarm_english.wav,,,,,,,,,0,1,1,1,0,74,74,234,754.029611403,9.30088572204e-06,755.896251685,1.86664990371,,,,,x,1,1.85069762939,2018_Nov_14_1407,59.986917459,chinese_cond2,001,1026,
images/parrot01.jpg,chameleon,x,sounds/animalfarm_english.wav,,,,,,,,,0,1,1,1,0,75,75,150,757.008189255,8.98016151041e-06,758.396861053,1.38868141884,,,,,z,0,1.36724419729,2018_Nov_14_1407,59.986917459,chinese_cond2,001,1026,
images/squirrel.jpg,binder,x,sounds/animalfarm_english.wav,,,,,,,,,0,1,1,1,0,76,76,132,759.498202366,9.94233414531e-06,760.313999926,0.815807501436,,,,,z,0,0.800427711802,2018_Nov_14_1407,59.986917459,chinese_cond2,001,1026,
images/radio03a.jpg,radio,z,sounds/animalfarm_english.wav,,,,,,,,,0,1,1,1,0,77,77,37,761.42618894,9.94233414531e-06,762.797950794,1.37177211721,,,,,z,1,1.35057286941,2018_Nov_14_1407,59.986917459,chinese_cond2,001,1026,
images/fork01.jpg,cooking pot,x,sounds/animalfarm_english.wav,,,,,,,,,0,1,1,1,0,78,78,160,763.890749099,9.62160993367e-06,764.648411732,0.757672896842,,,,,z,0,0.73376100231,2018_Nov_14_1407,59.986917459,chinese_cond2,001,1026,
images/kiwi03.jpg,backpack,x,sounds/animalfarm_english.wav,,,,,,,,,0,1,1,1,0,79,79,125,765.775447821,9.62160993367e-06,766.815622126,1.04018424707,,,,,x,1,1.01716876391,2018_Nov_14_1407,59.986917459,chinese_cond2,001,1026,
images/djmixer01.jpg,light bulb,x,sounds/animalfarm_english.wav,,,,,,,,,0,1,1,1,0,80,80,196,767.93541444,8.65943729877e-06,769.249546502,1.31414200435,,,,,x,1,1.30056594184,2018_Nov_14_1407,59.986917459,chinese_cond2,001,1026,
images/envelope02a.jpg,grand piano,x,sounds/animalfarm_english.wav,,,,,,,,,0,1,1,1,0,81,81,182,770.370973204,9.62160993367e-06,771.666800193,1.29583725147,,,,,x,1,1.28383335657,2018_Nov_14_1407,59.986917459,chinese_cond2,001,1026,
images/eraser.jpg,eraser,z,sounds/animalfarm_english.wav,,,,,,,,,0,1,1,1,0,82,82,110,772.772138315,9.94233414531e-06,773.500585634,0.7284575823,,,,,z,1,0.717063375516,2018_Nov_14_1407,59.986917459,chinese_cond2,001,1026,
images/grandpiano.jpg,tulip,x,sounds/animalfarm_english.wav,,,,,,,,,0,1,1,1,0,83,83,236,774.613777859,9.62160993367e-06,775.784475758,1.17070752045,,,,,x,1,1.15051789815,2018_Nov_14_1407,59.986917459,chinese_cond2,001,1026,
images/blackolive.jpg,tank,x,sounds/animalfarm_english.wav,,,,,,,,,0,1,1,1,0,84,84,229,776.898084598,9.62160993367e-06,778.585165818,1.68709148339,,,,,x,1,1.66730404354,2018_Nov_14_1407,59.986917459,chinese_cond2,001,1026,
images/headphones02b.jpg,headphones,z,sounds/animalfarm_english.wav,,,,,,,,,0,1,1,1,0,85,85,101,779.691438838,9.30076930672e-06,781.419194365,1.72776546923,,,,,z,1,1.71722309384,2018_Nov_14_1407,59.986917459,chinese_cond2,001,1026,
images/grasshopper.jpg,cauliflower,x,sounds/animalfarm_english.wav,,,,,,,,,0,1,1,1,0,86,86,148,782.511084712,9.62149351835e-06,783.45304023,0.941965780454,,,,,x,1,0.933799296152,2018_Nov_14_1407,59.986917459,chinese_cond2,001,1026,
images/rhinoceros01.jpg,envelope,x,sounds/animalfarm_english.wav,,,,,,,,,0,1,1,1,0,87,87,173,784.565660933,9.30088572204e-06,785.370170443,0.80451945297,,,,,x,1,0.783754138858,2018_Nov_14_1407,59.986917459,chinese_cond2,001,1026,
images/showerhead01.jpg,skateboard,x,sounds/animalfarm_english.wav,,,,,,,,,0,1,1,1,0,88,88,223,786.475986437,9.94233414531e-06,788.320920093,1.84494391899,,,,,x,1,1.83403175382,2018_Nov_14_1407,59.986917459,chinese_cond2,001,1026,
images/tape01a.jpg,tie,x,sounds/animalfarm_english.wav,,,,,,,,,0,1,1,1,0,89,89,232,789.446769519,9.62160993367e-06,790.221387638,0.774628061452,,,,,x,1,0.750425594975,2018_Nov_14_1407,59.986917459,chinese_cond2,001,1026,
images/dresser02.jpg,dresser,z,sounds/animalfarm_english.wav,,,,,,,,,0,1,1,1,0,90,90,87,791.342092721,9.62160993367e-06,792.40524274,1.06316060235,,,,,z,1,1.05048832775,2018_Nov_14_1407,59.986917459,chinese_cond2,001,1026,
images/cloud.jpg,ceiling fan,x,sounds/animalfarm_english.wav,,,,,,,,,0,1,1,1,0,91,91,149,793.508900932,9.30088572204e-06,794.872518752,1.36362744181,,,,,x,1,1.3505452876,2018_Nov_14_1407,59.986917459,chinese_cond2,001,1026,
images/bat.jpg,hand,x,sounds/animalfarm_english.wav,,,,,,,,,0,1,1,1,0,92,92,185,795.969406874,1.02630583569e-05,797.223120166,1.25372387574,,,,,x,1,1.23387293343,2018_Nov_14_1407,59.986917459,chinese_cond2,001,1026,
images/medal01.jpg,medal,z,sounds/animalfarm_english.wav,,,,,,,,,0,1,1,1,0,93,93,115,798.323094252,8.98016151041e-06,799.557021066,1.23393675662,,,,,z,1,1.21720288845,2018_Nov_14_1407,59.986917459,chinese_cond2,001,1026,
images/broadsword.jpg,teapot,x,sounds/animalfarm_english.wav,,,,,,,,,0,1,1,1,0,94,94,231,800.648170872,8.98016151041e-06,801.741040697,1.09287976741,,,,,x,1,1.08399455028,2018_Nov_14_1407,59.986917459,chinese_cond2,001,1026,
images/hairband.jpg,hairband,z,sounds/animalfarm_english.wav,,,,,,,,,0,1,1,1,0,95,95,66,802.848504548,9.62160993367e-06,803.658032359,0.809538073954,,,,,z,1,0.800446313457,2018_Nov_14_1407,59.986917459,chinese_cond2,001,1026,
images/doorhandle.jpg,doll,x,sounds/animalfarm_english.wav,,,,,,,,,0,1,1,1,0,96,96,168,804.759544937,9.94233414531e-06,805.625185216,0.86565086199,,,,,x,1,0.850455806707,2018_Nov_14_1407,59.986917459,chinese_cond2,001,1026,
images/mitten01.jpg,mitten,z,sounds/animalfarm_english.wav,,,,,,,,,0,1,1,1,0,97,97,102,806.743840259,9.30088572204e-06,807.525659175,0.781828538165,,,,,x,0,0.76710782724,2018_Nov_14_1407,59.986917459,chinese_cond2,001,1026,
images/birthdaycandle.jpg,birthday candle,z,sounds/animalfarm_english.wav,,,,,,,,,0,1,1,1,0,98,98,55,808.620790394,9.62160993367e-06,809.692841987,1.07206217607,,,,,z,1,1.05049442139,2018_Nov_14_1407,59.986917459,chinese_cond2,001,1026,
images/donut.jpg,rhinoceros,x,sounds/animalfarm_english.wav,,,,,,,,,0,1,1,1,0,99,99,216,810.816829956,9.30088572204e-06,811.676662322,0.859842629288,,,,,x,1,0.850440732902,2018_Nov_14_1407,59.986917459,chinese_cond2,001,1026,
images/tissuebox03.jpg,tissue box,z,sounds/animalfarm_english.wav,,,,,,,,,0,1,1,1,0,100,100,58,812.800411034,9.62160993367e-06,813.477108956,0.676707864157,,,,,z,1,0.66704586416,2018_Nov_14_1407,59.986917459,chinese_cond2,001,1026,
images/bull.jpg,button,x,sounds/animalfarm_english.wav,,,,,,,,,0,1,1,1,0,101,101,141,814.582707182,9.30088572204e-06,815.994406649,1.41171069292,,,,,x,1,1.40058717353,2018_Nov_14_1407,59.986917459,chinese_cond2,001,1026,
images/hand01a.jpg,cupcake,x,sounds/animalfarm_english.wav,,,,,,,,,0,1,1,1,0,102,102,163,817.104406111,9.62160993367e-06,818.228487088,1.12409124093,,,,,x,1,1.10070981667,2018_Nov_14_1407,59.986917459,chinese_cond2,001,1026,
images/cat.jpg,black olive,x,sounds/animalfarm_english.wav,,,,,,,,,0,1,1,1,0,103,103,133,819.357390086,9.30088572204e-06,820.412138854,1.05475870974,,,,,x,1,1.03379615315,2018_Nov_14_1407,59.986917459,chinese_cond2,001,1026,
images/leaf01a.jpg,leaf,z,sounds/animalfarm_english.wav,,,,,,,,,0,1,1,1,0,104,104,68,821.513852523,9.30088572204e-06,822.595866629,1.08202436951,,,,,z,1,1.06700603082,2018_Nov_14_1407,59.986917459,chinese_cond2,001,1026,
images/mirror02.jpg,8 ball,x,sounds/animalfarm_english.wav,,,,,,,,,0,1,1,1,0,105,105,121,823.697161759,9.30088572204e-06,825.04663873,1.34948691272,,,,,x,1,1.33384701936,2018_Nov_14_1407,59.986917459,chinese_cond2,001,1026,
images/giraffe.jpg,lettuce,x,sounds/animalfarm_english.wav,,,,,,,,,0,1,1,1,0,106,106,195,826.145971376,9.62160993367e-06,827.413891586,1.26793015248,,,,,x,1,1.25055324135,2018_Nov_14_1407,59.986917459,chinese_cond2,001,1026,
images/mailbox01.jpg,mail box,z,sounds/animalfarm_english.wav,,,,,,,,,0,1,1,1,0,107,107,73,828.532428925,9.62160993367e-06,829.397701338,0.86528267595,,,,,z,1,0.850433356361,2018_Nov_14_1407,59.986917459,chinese_cond2,001,1026,
images/desktopcomputer.jpg,desktop computer,z,sounds/animalfarm_english.wav,,,,,,,,,0,1,1,1,0,108,108,16,830.531605638,9.30088572204e-06,831.81497331,1.28337793471,,,,,z,1,1.26720596734,2018_Nov_14_1407,59.986917459,chinese_cond2,001,1026,
images/tie01.jpg,bench,x,sounds/animalfarm_english.wav,,,,,,,,,0,1,1,1,0,109,109,130,832.911583367,9.62160993367e-06,835.682590504,2.77101868263,,,,,x,1,2.75091308879,2018_Nov_14_1407,59.986917459,chinese_cond2,001,1026,
images/ashtray02b.jpg,ashtray,z,sounds/animalfarm_english.wav,,,,,,,,,0,1,1,1,0,110,110,43,836.795538982,9.62160993367e-06,837.999827774,1.20429937518,,,,,z,1,1.18385959149,2018_Nov_14_1407,59.986917459,chinese_cond2,001,1026,
images/cheetah.jpg,cheetah,z,sounds/animalfarm_english.wav,,,,,,,,,0,1,1,1,0,111,111,82,839.101091152,9.62160993367e-06,840.467105069,1.36602417973,,,,,x,0,1.35057190724,2018_Nov_14_1407,59.986917459,chinese_cond2,001,1026,
images/stapler03a.jpg,candy cane,x,sounds/animalfarm_english.wav,,,,,,,,,0,1,1,1,0,112,112,145,841.576664824,9.62160993367e-06,842.617657926,1.04100368568,,,,,x,1,1.01717966842,2018_Nov_14_1407,59.986917459,chinese_cond2,001,1026,
images/pouch01b.jpg,pouch,z,sounds/animalfarm_english.wav,,,,,,,,,0,1,1,1,0,113,113,25,843.728852067,9.94233414531e-06,845.10158474,1.37274325627,,,,,x,0,1.35057575582,2018_Nov_14_1407,59.986917459,chinese_cond2,001,1026,
images/mattress.jpg,cat,x,sounds/animalfarm_english.wav,,,,,,,,,0,1,1,1,0,114,114,147,846.205934404,9.94233414531e-06,846.968705139,0.762780357036,,,,,x,1,0.750400578836,2018_Nov_14_1407,59.986917459,chinese_cond2,001,1026,
images/diploma01.jpg,glasses,x,sounds/animalfarm_english.wav,,,,,,,,,0,1,1,1,0,115,115,179,848.098575748,9.30088572204e-06,848.919176405,0.820610598894,,,,,x,1,0.800420655869,2018_Nov_14_1407,59.986917459,chinese_cond2,001,1026,
images/gamecontroller01.jpg,game controller,z,sounds/animalfarm_english.wav,,,,,,,,,0,1,1,1,0,116,116,112,850.037728176,9.62160993367e-06,850.769643116,0.731924882275,,,,,z,1,0.717077166424,2018_Nov_14_1407,59.986917459,chinese_cond2,001,1026,
images/sportshorts02.jpg,tape,x,sounds/animalfarm_english.wav,,,,,,,,,0,1,1,1,0,117,117,230,851.875645448,9.62160993367e-06,854.087122529,2.21148702304,,,,,x,1,2.20077113842,2018_Nov_14_1407,59.986917459,chinese_cond2,001,1026,
images/watermelon01.jpg,orange,x,sounds/animalfarm_english.wav,,,,,,,,,0,1,1,1,0,118,118,207,855.214849769,9.62160993367e-06,856.154307842,0.939468015917,,,,,x,1,0.917120271246,2018_Nov_14_1407,59.986917459,chinese_cond2,001,1026,
images/panda.jpg,panda,z,sounds/animalfarm_english.wav,,,,,,,,,0,1,1,1,0,119,119,83,857.263421155,9.62160993367e-06,858.054762879,0.791351666441,,,,,z,1,0.767085697618,2018_Nov_14_1407,59.986917459,chinese_cond2,001,1026,
images/corkscrew02a.jpg,masquerade mask,x,sounds/animalfarm_english.wav,,,,,,,,,0,1,1,1,0,120,120,201,859.157424275,9.30088572204e-06,860.922153325,1.76473963342,,,,,x,1,1.75066292752,2018_Nov_14_1407,59.986917459,chinese_cond2,001,1026,
images/cake.jpg,cake,z,sounds/animalfarm_english.wav,,,,,,,,,0,1,1,1,0,121,121,23,862.03470828,9.62160993367e-06,863.056023949,1.02132625272,,,,,z,1,1.00049551192,2018_Nov_14_1407,59.986917459,chinese_cond2,001,1026,
images/ceilingfan02.jpg,paper clip,x,sounds/animalfarm_english.wav,,,,,,,,,0,1,1,1,0,122,122,208,864.152884168,9.30088572204e-06,865.123176228,0.970302643836,,,,,x,1,0.950466133887,2018_Nov_14_1407,59.986917459,chinese_cond2,001,1026,
images/lipstick04.jpg,lipstick,z,sounds/animalfarm_english.wav,,,,,,,,,0,1,1,1,0,123,123,56,866.221551847,9.30088572204e-06,867.073498679,0.851957095438,,,,,z,1,0.833608724643,2018_Nov_14_1407,59.986917459,chinese_cond2,001,1026,
images/printer03a.jpg,printer,z,sounds/animalfarm_english.wav,,,,,,,,,0,1,1,1,0,124,124,72,868.181507113,9.94233414531e-06,869.357563916,1.17606674554,,,,,z,1,1.167195961,2018_Nov_14_1407,59.986917459,chinese_cond2,001,1026,
images/button07.jpg,radish,x,sounds/animalfarm_english.wav,,,,,,,,,0,1,1,1,0,125,125,215,870.467866137,9.62160993367e-06,871.408070204,0.940213689115,,,,,x,1,0.917134382762,2018_Nov_14_1407,59.986917459,chinese_cond2,001,1026,
images/aloe02.jpg,broad sword,x,sounds/animalfarm_english.wav,,,,,,,,,0,1,1,1,0,126,126,137,872.528134489,9.62149351835e-06,874.04206174,1.51393719274,,,,,x,1,1.50061706465,2018_Nov_14_1407,59.986917459,chinese_cond2,001,1026,
images/plant01.jpg,plant,z,sounds/animalfarm_english.wav,,,,,,,,,0,1,1,1,0,127,127,47,875.153957296,9.94233414531e-06,875.859162383,0.705215671216,,,,,z,1,0.683719436987,2018_Nov_14_1407,59.986917459,chinese_cond2,001,1026,
images/computerkeyboard01a.jpg,computer keyboard,z,sounds/animalfarm_english.wav,,,,,,,,,0,1,1,1,0,128,128,61,876.974658017,9.30088572204e-06,878.776567132,1.80191873736,,,,,z,1,1.7840267506,2018_Nov_14_1407,59.986917459,chinese_cond2,001,1026,
images/licenseplate.jpg,license plate,z,sounds/animalfarm_english.wav,,,,,,,,,0,1,1,1,0,129,129,40,879.893670534,9.94233414531e-06,881.077109662,1.18344939104,,,,,z,1,1.16717928345,2018_Nov_14_1407,59.986917459,chinese_cond2,001,1026,
images/drink.jpg,drink,z,sounds/animalfarm_english.wav,,,,,,,,,0,1,1,1,0,130,130,117,882.175911197,9.30088572204e-06,882.844219093,0.668317838339,,,,,z,1,0.650393138174,2018_Nov_14_1407,59.986917459,chinese_cond2,001,1026,
images/hairdryer03a.jpg,hairdryer,z,sounds/animalfarm_english.wav,,,,,,,,,0,1,1,1,0,131,131,119,883.941923125,9.30088572204e-06,884.711351679,0.769438817631,,,,,z,1,0.750426877872,2018_Nov_14_1407,59.986917459,chinese_cond2,001,1026,
images/lightswitch02a.jpg,fork,x,sounds/animalfarm_english.wav,,,,,,,,,0,1,1,1,0,132,132,177,885.821914324,9.94233414531e-06,886.761842573,0.939938190975,,,,,x,1,0.917104235152,2018_Nov_14_1407,59.986917459,chinese_cond2,001,1026,
images/highheelshoe02a.jpg,high heel shoe,z,sounds/animalfarm_english.wav,,,,,,,,,0,1,1,1,0,133,133,75,887.866859334,9.94233414531e-06,888.612314416,0.745465344982,,,,,z,1,0.73375266348,2018_Nov_14_1407,59.986917459,chinese_cond2,001,1026,
images/weight01.jpg,weight,z,sounds/animalfarm_english.wav,,,,,,,,,0,1,1,1,0,134,134,67,889.716207696,9.94233414531e-06,890.512782923,0.796585811186,,,,,z,1,0.783764081192,2018_Nov_14_1407,59.986917459,chinese_cond2,001,1026,
images/bracelet02a.jpg,chess knight,x,sounds/animalfarm_english.wav,,,,,,,,,0,1,1,1,0,135,135,152,891.620231701,9.62149351835e-06,892.846709481,1.22648804286,,,,,x,1,1.21722854616,2018_Nov_14_1407,59.986917459,chinese_cond2,001,1026,
images/chessknight02b (1).jpg,cockroach,x,sounds/animalfarm_english.wav,,,,,,,,,0,1,1,1,0,136,136,155,893.955886296,9.62160993367e-06,894.647137513,0.691261159489,,,,,z,0,0.667066069553,2018_Nov_14_1407,59.986917459,chinese_cond2,001,1026,
images/puzzle.jpg,puzzle,z,sounds/animalfarm_english.wav,,,,,,,,,0,1,1,1,0,137,137,57,895.766205643,9.94233414531e-06,896.697641556,0.931445855531,,,,,z,1,0.917136948556,2018_Nov_14_1407,59.986917459,chinese_cond2,001,1026,
images/dragonfly02.jpg,dragon fly,z,sounds/animalfarm_english.wav,,,,,,,,,0,1,1,1,0,138,138,29,897.793795871,9.94233414531e-06,898.881499223,1.08771329466,,,,,z,1,1.06714554387,2018_Nov_14_1407,59.986917459,chinese_cond2,001,1026,
images/nailclipper03a.jpg,aquarium,x,sounds/animalfarm_english.wav,,,,,,,,,0,1,1,1,0,139,139,123,899.979448285,9.30088572204e-06,900.915338674,0.935900009936,,,,,x,1,0.91712411982,2018_Nov_14_1407,59.986917459,chinese_cond2,001,1026,
images/eyedrops.jpg,bicycle,x,sounds/animalfarm_english.wav,,,,,,,,,0,1,1,1,0,140,140,131,902.014074782,9.30088572204e-06,902.882485757,0.868420917541,,,,,x,1,0.850441053626,2018_Nov_14_1407,59.986917459,chinese_cond2,001,1026,
images/paintbrush03a.jpg,paint brush,z,sounds/animalfarm_english.wav,,,,,,,,,0,1,1,1,0,141,141,0,903.981199414,9.94233414531e-06,904.849635406,0.868446254404,,,,,z,1,0.850430790684,2018_Nov_14_1407,59.986917459,chinese_cond2,001,1026,
images/apricot.jpg,apricot,z,sounds/animalfarm_english.wav,,,,,,,,,0,1,1,1,0,142,142,32,905.965883769,9.62160993367e-06,906.883482554,0.917608727119,,,,,x,0,0.900457602809,2018_Nov_14_1407,59.986917459,chinese_cond2,001,1026,
images/candycane01a.jpg,lip,x,sounds/animalfarm_english.wav,,,,,,,,,0,1,1,1,0,143,143,200,907.976147118,9.94233414531e-06,908.817288585,0.8411514092,,,,,z,0,0.817099360167,2018_Nov_14_1407,59.986917459,chinese_cond2,001,1026,
images/marker01a.jpg,marker,z,sounds/animalfarm_english.wav,,,,,,,,,0,1,1,1,0,144,144,95,909.914785753,9.94221772999e-06,910.817778645,0.903003796004,,,,,z,1,0.883776974049,2018_Nov_14_1407,59.986917459,chinese_cond2,001,1026,
images/doll.jpg,carrot,x,sounds/animalfarm_english.wav,,,,,,,,,0,1,1,1,0,145,145,146,911.927442633,9.62160993367e-06,912.851614246,0.924181555514,,,,,x,1,0.900447981199,2018_Nov_14_1407,59.986917459,chinese_cond2,001,1026,
images/toothbrush03a.jpg,parrot,x,sounds/animalfarm_english.wav,,,,,,,,,0,1,1,1,0,146,146,210,913.942982462,9.62160993367e-06,914.735408539,0.792436340358,,,,,x,1,0.783756383928,2018_Nov_14_1407,59.986917459,chinese_cond2,001,1026,
images/screw03c.jpg,screw,z,sounds/animalfarm_english.wav,,,,,,,,,0,1,1,1,0,147,147,84,915.828091385,1.02629419416e-05,916.73589924,0.9078184393,,,,,z,1,0.883777615614,2018_Nov_14_1407,59.986917459,chinese_cond2,001,1026,
images/binder03b.jpg,dj mixer,x,sounds/animalfarm_english.wav,,,,,,,,,0,1,1,1,0,148,148,167,917.847087609,9.62160993367e-06,919.286549531,1.43947186461,,,,,x,1,1.4172626707,2018_Nov_14_1407,59.986917459,chinese_cond2,001,1026,
images/straw.jpg,straw,z,sounds/animalfarm_english.wav,,,,,,,,,0,1,1,1,0,149,149,109,920.37672467,9.94233414531e-06,921.120326954,0.743612226914,,,,,z,1,0.73374913563,2018_Nov_14_1407,59.986917459,chinese_cond2,001,1026,
images/bullet (2).jpg,rubber glove,x,sounds/animalfarm_english.wav,,,,,,,,,0,1,1,1,0,150,150,217,922.224139092,1.05837825686e-05,923.854336835,1.6302080059,,,,,z,0,1.61730160599,2018_Nov_14_1407,59.986917459,chinese_cond2,001,1026,
images/candle08a.jpg,screw driver,x,sounds/animalfarm_english.wav,,,,,,,,,0,1,1,1,0,151,151,221,924.966557601,8.98016151041e-06,926.571678916,1.60513061634,,,,,x,1,1.58396440267,2018_Nov_14_1407,59.986917459,chinese_cond2,001,1026,
images/cocktailshrimp01.jpg,cocktail shrimp,z,sounds/animalfarm_english.wav,,,,,,,,,0,1,1,1,0,152,152,30,927.684979865,9.30088572204e-06,928.488813299,0.803843696602,,,,,z,1,0.783765684697,2018_Nov_14_1407,59.986917459,chinese_cond2,001,1026,
images/ostrich.jpg,ostrich,z,sounds/animalfarm_english.wav,,,,,,,,,0,1,1,1,0,153,153,76,929.587611306,9.62160993367e-06,930.439295789,0.851694426034,,,,,z,1,0.833782233996,2018_Nov_14_1407,59.986917459,chinese_cond2,001,1026,
images/cactus.jpg,cactus,z,sounds/animalfarm_english.wav,,,,,,,,,0,1,1,1,0,154,154,70,931.549996023,9.62160993367e-06,932.356429531,0.806443450041,,,,,z,1,0.783760232502,2018_Nov_14_1407,59.986917459,chinese_cond2,001,1026,
images/parkingmeter.jpg,ear,x,sounds/animalfarm_english.wav,,,,,,,,,0,1,1,1,0,155,155,171,933.457369945,9.30088572204e-06,934.506964748,1.04960506584,,,,,x,1,1.03382726305,2018_Nov_14_1407,59.986917459,chinese_cond2,001,1026,
images/ladder.jpg,ladder,z,sounds/animalfarm_english.wav,,,,,,,,,0,1,1,1,0,156,156,113,935.598157851,1.02630583569e-05,936.457451087,0.85930414102,,,,,z,1,0.850454523927,2018_Nov_14_1407,59.986917459,chinese_cond2,001,1026,
images/pipe.jpg,icecube,x,sounds/animalfarm_english.wav,,,,,,,,,0,1,1,1,0,157,157,188,937.565025266,9.62160993367e-06,938.974724406,1.40970876091,,,,,z,0,1.40057209972,2018_Nov_14_1407,59.986917459,chinese_cond2,001,1026,
images/camera01a.jpg,bull,x,sounds/animalfarm_english.wav,,,,,,,,,0,1,1,1,0,158,158,138,940.084010907,9.30088572204e-06,941.058601893,0.974601249327,,,,,x,1,0.950495319441,2018_Nov_14_1407,59.986917459,chinese_cond2,001,1026,
images/gorilla.jpg,gorilla,z,sounds/animalfarm_english.wav,,,,,,,,,0,1,1,1,0,159,159,80,942.168107446,9.30088572204e-06,943.075740189,0.907642684993,,,,,z,1,0.883775049821,2018_Nov_14_1407,59.986917459,chinese_cond2,001,1026,
images/lemon02.jpg,lemon,z,sounds/animalfarm_english.wav,,,,,,,,,0,1,1,1,0,160,160,14,944.186161396,9.62160993367e-06,944.759487849,0.573336395202,,,,,z,1,0.550365171395,2018_Nov_14_1407,59.986917459,chinese_cond2,001,1026,
images/fryingpan01.jpg,frying pan,z,sounds/animalfarm_english.wav,,,,,,,,,0,1,1,1,0,161,161,45,945.858493682,9.30088572204e-06,946.9433561,1.08487171854,,,,,z,1,1.06715708971,2018_Nov_14_1407,59.986917459,chinese_cond2,001,1026,
images/handbag02a.jpg,candle,x,sounds/animalfarm_english.wav,,,,,,,,,0,1,1,1,0,162,162,144,948.058282456,9.94233414531e-06,948.793817359,0.73554516572,,,,,z,0,0.717079090769,2018_Nov_14_1407,59.986917459,chinese_cond2,001,1026,
images/calculator02b.jpg,dice,x,sounds/animalfarm_english.wav,,,,,,,,,0,1,1,1,0,163,163,165,949.894058604,9.94221772999e-06,950.760970536,0.86692187388,,,,,x,1,0.85043752566,2018_Nov_14_1407,59.986917459,chinese_cond2,001,1026,
images/skateboard.jpg,key,x,sounds/animalfarm_english.wav,,,,,,,,,0,1,1,1,0,164,164,189,951.851174219,9.94233414531e-06,952.694774643,0.843610687414,,,,,x,1,0.833753048442,2018_Nov_14_1407,59.986917459,chinese_cond2,001,1026,
images/ruler02b.jpg,watermelon,x,sounds/animalfarm_english.wav,,,,,,,,,0,1,1,1,0,165,165,238,953.795481894,9.30088572204e-06,954.928683818,1.13321218686,,,,,x,1,1.11719159922,2018_Nov_14_1407,59.986917459,chinese_cond2,001,1026,
images/floorlamp.jpg,floor lamp,z,sounds/animalfarm_english.wav,,,,,,,,,0,1,1,1,0,166,166,26,956.019886542,9.62160993367e-06,957.612655341,1.59277841984,,,,,z,1,1.58395670541,2018_Nov_14_1407,59.986917459,chinese_cond2,001,1026,
images/treadmill.jpg,lily,x,sounds/animalfarm_english.wav,,,,,,,,,0,1,1,1,0,167,167,199,958.716821232,9.30088572204e-06,959.629829878,0.913018908352,,,,,x,1,0.900463696453,2018_Nov_14_1407,59.986917459,chinese_cond2,001,1026,
images/magnifyingglass01b.jpg,magnifying glass,z,sounds/animalfarm_english.wav,,,,,,,,,0,1,1,1,0,168,168,64,960.735599047,9.62160993367e-06,962.230481002,1.49489382247,,,,,z,1,1.48394509533,2018_Nov_14_1407,59.986917459,chinese_cond2,001,1026,
images/pepper05a.jpg,lighter,x,sounds/animalfarm_english.wav,,,,,,,,,0,1,1,1,0,169,169,198,963.350547212,9.94233414531e-06,964.364321479,1.0137854924,,,,,x,1,1.00046857144,2018_Nov_14_1407,59.986917459,chinese_cond2,001,1026,
images/blueberry02.jpg,blueberry,z,sounds/animalfarm_english.wav,,,,,,,,,0,1,1,1,0,170,170,46,965.476078163,1.02629419416e-05,966.264788383,0.78872016177,,,,,z,1,0.767080886872,2018_Nov_14_1407,59.986917459,chinese_cond2,001,1026,
images/fireextinguisher02.jpg,fire extinguisher,z,sounds/animalfarm_english.wav,,,,,,,,,0,1,1,1,0,171,171,175,967.373865775,1.02630583569e-05,968.898786333,1.52493178297,,,,,z,1,1.50061129162,2018_Nov_14_1407,59.986917459,chinese_cond2,001,1026,
images/broom02.jpg,broom,z,sounds/animalfarm_english.wav,,,,,,,,,0,1,1,1,0,172,172,116,969.991498684,9.62160993367e-06,970.88244246,0.89095371752,,,,,z,1,0.866956190905,2018_Nov_14_1407,59.986917459,chinese_cond2,001,1026,
images/cookingpot.jpg,grasshopper,x,sounds/animalfarm_english.wav,,,,,,,,,0,1,1,1,0,173,173,183,971.996599089,9.30088572204e-06,973.199875689,1.20328654244,,,,,x,1,1.18389936071,2018_Nov_14_1407,59.986917459,chinese_cond2,001,1026,
images/mushroom01.jpg,shower head,x,sounds/animalfarm_english.wav,,,,,,,,,0,1,1,1,0,174,174,222,974.31496465,9.94233414531e-06,975.600440733,1.28548602504,,,,,x,1,1.26721655112,2018_Nov_14_1407,59.986917459,chinese_cond2,001,1026,
images/cola.jpg,comb,x,sounds/animalfarm_english.wav,,,,,,,,,0,1,1,1,0,175,175,157,976.719631378,8.98016151041e-06,977.500902505,0.781281069736,,,,,x,1,0.767093715491,2018_Nov_14_1407,59.986917459,chinese_cond2,001,1026,
images/electricguitar02.jpg,electric guitar,z,sounds/animalfarm_english.wav,,,,,,,,,0,1,1,1,0,176,176,100,978.601995261,9.62160993367e-06,979.334690833,0.732705513947,,,,,z,1,0.717081335722,2018_Nov_14_1407,59.986917459,chinese_cond2,001,1026,
images/diaper01a.jpg,camera,x,sounds/animalfarm_english.wav,,,,,,,,,0,1,1,1,0,177,177,143,980.453395908,9.94233414531e-06,981.201810911,0.748425907921,,,,,x,1,0.733752022148,2018_Nov_14_1407,59.986917459,chinese_cond2,001,1026,
images/icecube02 (2).jpg,aloe,x,sounds/animalfarm_english.wav,,,,,,,,,0,1,1,1,0,178,178,122,982.311454694,9.94233414531e-06,983.068955686,0.757511895499,,,,,x,1,0.733764209435,2018_Nov_14_1407,59.986917459,chinese_cond2,001,1026,
images/dryingmachine01.jpg,drying machine,z,sounds/animalfarm_english.wav,,,,,,,,,0,1,1,1,0,179,179,18,984.190194767,9.30088572204e-06,984.886046386,0.695861241315,,,,,z,1,0.683727134368,2018_Nov_14_1407,59.986917459,chinese_cond2,001,1026,
images/feather03b.jpg,feather,z,sounds/animalfarm_english.wav,,,,,,,,,0,1,1,1,0,180,180,114,985.986280255,9.62160993367e-06,986.953224964,0.966954651522,,,,,z,1,0.950461002416,2018_Nov_14_1407,59.986917459,chinese_cond2,001,1026,
images/puma.jpg,puma,z,sounds/animalfarm_english.wav,,,,,,,,,0,1,1,1,0,181,181,4,988.050760298,9.94233414531e-06,988.753678334,0.702928619343,,,,,z,1,0.683742849622,2018_Nov_14_1407,59.986917459,chinese_cond2,001,1026,
images/hanger02a.jpg,hanger,z,sounds/animalfarm_english.wav,,,,,,,,,0,1,1,1,0,182,182,88,989.845823332,9.94233414531e-06,990.687488534,0.841675144387,,,,,z,1,0.833780309651,2018_Nov_14_1407,59.986917459,chinese_cond2,001,1026,
images/bench02.jpg,electric toothbrush,x,sounds/animalfarm_english.wav,,,,,,,,,0,1,1,1,0,183,183,172,991.795713454,8.98016151041e-06,994.171684432,2.37598060025,,,,,x,1,2.36749467929,2018_Nov_14_1407,59.986917459,chinese_cond2,001,1026,
images/spoon02b.jpg,spoon,z,sounds/animalfarm_english.wav,,,,,,,,,0,1,1,1,0,184,184,38,995.261855402,9.62160993367e-06,995.905449925,0.643604465527,,,,,z,1,0.633740091347,2018_Nov_14_1407,59.986917459,chinese_cond2,001,1026,
images/acousticguitar02.jpg,acoustic guitar,z,sounds/animalfarm_english.wav,,,,,,,,,0,1,1,1,0,185,185,97,997.018291283,8.98016151041e-06,997.655868143,0.637586481986,,,,,z,1,0.617043426726,2018_Nov_14_1407,59.986917459,chinese_cond2,001,1026,
images/razor04a.jpg,razor,z,sounds/animalfarm_english.wav,,,,,,,,,0,1,1,1,0,186,186,36,998.754622853,1.02630583569e-05,999.573005412,0.818393463967,,,,,z,1,0.800426428905,2018_Nov_14_1407,59.986917459,chinese_cond2,001,1026,
images/electrictoothbrush01a.jpg,banjo,x,sounds/animalfarm_english.wav,,,,,,,,,0,1,1,1,0,187,187,127,1000.66634028,9.30088572204e-06,1001.973599,1.30726930324,,,,,z,0,1.28388178535,2018_Nov_14_1407,59.986917459,chinese_cond2,001,1026,
images/flashlight05.jpg,flash light,z,sounds/animalfarm_english.wav,,,,,,,,,0,1,1,1,0,188,188,8,1003.07471292,9.94233414531e-06,1003.94073903,0.866036367021,,,,,z,1,0.850427262718,2018_Nov_14_1407,59.986917459,chinese_cond2,001,1026,
images/pictureframe04.jpg,picture frame,z,sounds/animalfarm_english.wav,,,,,,,,,0,1,1,1,0,189,189,41,1005.06088959,9.30088572204e-06,1005.95793602,0.897056050249,,,,,z,1,0.883809046005,2018_Nov_14_1407,59.986917459,chinese_cond2,001,1026,
images/sunglasses03a.jpg,sun glasses,z,sounds/animalfarm_english.wav,,,,,,,,,0,1,1,1,0,190,190,17,1007.06533893,9.30088572204e-06,1007.80839022,0.743060909794,,,,,z,1,0.733767416677,2018_Nov_14_1407,59.986917459,chinese_cond2,001,1026,
images/bus.jpg,microphone,x,sounds/animalfarm_english.wav,,,,,,,,,0,1,1,1,0,191,191,203,1008.92532749,9.30088572204e-06,1010.0422484,1.11693117477,,,,,x,1,1.10049429315,2018_Nov_14_1407,59.986917459,chinese_cond2,001,1026,
images/plate01b.jpg,plate,z,sounds/animalfarm_english.wav,,,,,,,,,0,1,1,1,0,192,192,3,1011.14006885,9.94221772999e-06,1011.97607015,0.836012197542,,,,,z,1,0.817101926077,2018_Nov_14_1407,59.986917459,chinese_cond2,001,1026,
images/dolphin01.jpg,dolphin,z,sounds/animalfarm_english.wav,,,,,,,,,0,1,1,1,0,193,193,99,1013.07495443,9.30088572204e-06,1014.10993083,1.03498634382,,,,,z,1,1.017154973,2018_Nov_14_1407,59.986917459,chinese_cond2,001,1026,
images/pingpongpaddle01c (1).jpg,ping pong paddle,z,sounds/animalfarm_english.wav,,,,,,,,,0,1,1,1,0,194,194,10,1015.21933247,9.62160993367e-06,1015.94370536,0.72438315989,,,,,z,1,0.7004023107,2018_Nov_14_1407,59.986917459,chinese_cond2,001,1026,
images/ladybug03.jpg,giraffe,x,sounds/animalfarm_english.wav,,,,,,,,,0,1,1,1,0,195,195,178,1017.04510826,9.62160993367e-06,1018.42767034,1.38257203042,,,,,x,1,1.36724515934,2018_Nov_14_1407,59.986917459,chinese_cond2,001,1026,
images/lighter02b.jpg,stapler,x,sounds/animalfarm_english.wav,,,,,,,,,0,1,1,1,0,196,196,227,1019.52818067,9.30088572204e-06,1020.87826669,1.35009563854,,,,,x,1,1.33390314528,2018_Nov_14_1407,59.986917459,chinese_cond2,001,1026,
images/notebook02b.jpg,notebook,z,sounds/animalfarm_english.wav,,,,,,,,,0,1,1,1,0,197,197,7,1021.98346434,9.30088572204e-06,1022.71205694,0.728602868272,,,,,z,1,0.717083580792,2018_Nov_14_1407,59.986917459,chinese_cond2,001,1026,
images/gps.jpg,gps,z,sounds/animalfarm_english.wav,,,,,,,,,0,1,1,1,0,198,198,21,1023.82920332,9.30088572204e-06,1024.76255553,0.933362155338,,,,,z,1,0.917121233302,2018_Nov_14_1407,59.986917459,chinese_cond2,001,1026,
images/scissors04a.jpg,leek,x,sounds/animalfarm_english.wav,,,,,,,,,0,1,1,1,0,199,199,194,1025.85506776,9.62160993367e-06,1026.82973764,0.974680146319,,,,,x,1,0.950472227647,2018_Nov_14_1407,59.986917459,chinese_cond2,001,1026,
images/hairpin.jpg,hair pin,z,sounds/animalfarm_english.wav,,,,,,,,,0,1,1,1,0,200,200,28,1027.9190773,8.98016151041e-06,1028.780215,0.86114795832,,,,,z,1,0.850444902317,2018_Nov_14_1407,59.986917459,chinese_cond2,001,1026,
images/corn01.jpg,corn,z,sounds/animalfarm_english.wav,,,,,,,,,0,1,1,1,0,201,201,22,1029.8784758,9.30088572204e-06,1030.81404579,0.935579931713,,,,,z,1,0.917110970244,2018_Nov_14_1407,59.986917459,chinese_cond2,001,1026,
images/egg01b (1).jpg,egg,z,sounds/animalfarm_english.wav,,,,,,,,,0,1,1,1,0,202,202,19,1031.92559176,9.62160993367e-06,1032.63117016,0.705588988843,,,,,z,1,0.683744132402,2018_Nov_14_1407,59.986917459,chinese_cond2,001,1026,
images/beermug01b.jpg,beer mug,z,sounds/animalfarm_english.wav,,,,,,,,,0,1,1,1,0,203,203,111,1033.74657311,9.94233414531e-06,1034.93173514,1.18517197634,,,,,z,1,1.1671933952,2018_Nov_14_1407,59.986917459,chinese_cond2,001,1026,
images/arrow02.jpg,hammer,x,sounds/animalfarm_english.wav,,,,,,,,,0,1,1,1,0,204,204,184,1036.02880127,9.62160993367e-06,1037.33232777,1.30353676795,,,,,z,0,1.28388435103,2018_Nov_14_1407,59.986917459,chinese_cond2,001,1026,
images/raisin.jpg,ruler,x,sounds/animalfarm_english.wav,,,,,,,,,0,1,1,1,0,205,205,218,1038.43600072,9.30088572204e-06,1039.29947389,0.863483117893,,,,,x,1,0.850444260868,2018_Nov_14_1407,59.986917459,chinese_cond2,001,1026,
images/redfox.jpg,red fox,z,sounds/animalfarm_english.wav,,,,,,,,,0,1,1,1,0,206,206,1,1040.41113468,1.02630583569e-05,1041.3498195,0.938695723074,,,,,z,1,0.916955741937,2018_Nov_14_1407,59.986917459,chinese_cond2,001,1026,
images/masquerademask02b.jpg,mirror,x,sounds/animalfarm_english.wav,,,,,,,,,0,1,1,1,0,207,207,204,1042.45352644,9.30088572204e-06,1043.31714619,0.863630007487,,,,,x,1,0.85045324103,2018_Nov_14_1407,59.986917459,chinese_cond2,001,1026,
images/coffeepot03b.jpg,coffee pot,z,sounds/animalfarm_english.wav,,,,,,,,,0,1,1,1,0,208,208,107,1044.43712452,9.62160993367e-06,1045.20093438,0.763820130262,,,,,z,1,0.75042142556,2018_Nov_14_1407,59.986917459,chinese_cond2,001,1026,
images/shotglass.jpg,shot glass,z,sounds/animalfarm_english.wav,,,,,,,,,0,1,1,1,0,209,209,86,1046.30811793,9.94233414531e-06,1047.60153022,1.29342255322,,,,,z,1,1.28388691682,2018_Nov_14_1407,59.986917459,chinese_cond2,001,1026,
images/crocodile.jpg,triangle ruler,x,sounds/animalfarm_english.wav,,,,,,,,,0,1,1,1,0,210,210,235,1048.69768036,9.30088572204e-06,1050.2855197,1.58784960047,,,,,x,1,1.56727158662,2018_Nov_14_1407,59.986917459,chinese_cond2,001,1026,
images/bandaid01.jpg,door handle,x,sounds/animalfarm_english.wav,,,,,,,,,0,1,1,1,0,211,211,170,1051.39107591,9.62160993367e-06,1052.7027859,1.31171960896,,,,,x,1,1.30055760313,2018_Nov_14_1407,59.986917459,chinese_cond2,001,1026,
,,,sounds/animalfarm_english.wav,,,,,,,,,0,1,1,1,,,,,,,,,,,,,,,,2018_Nov_14_1407,59.986917459,chinese_cond2,001,1026,
