images,name,corrAns,sounds,trials_3.thisRepN,trials_3.thisTrialN,trials_3.thisN,trials_3.thisIndex,trials_4.thisRepN,trials_4.thisTrialN,trials_4.thisN,trials_4.thisIndex,trials_2.thisRepN,trials_2.thisTrialN,trials_2.thisN,trials_2.thisIndex,trials.thisRepN,trials.thisTrialN,trials.thisN,trials.thisIndex,begin_global,begin_routine,end_global,end_routine,key_resp_2.keys,key_resp_2.corr,key_resp_2.rt,begin_book,key_resp_1.keys,key_resp_1.corr,key_resp_1.rt,date,frameRate,expName,session,participant,
images/volleyball.jpg,volley ball,z,,0,0,0,0,,,,,,,,,,,,,,,,,,,,,,,,2018_Nov_14_1534,59.9860901603,chinese_cond2,001,1034,
images/puma.jpg,puma,z,,,,,,0,0,0,0,,,,,,,,,48.1587789241,1.02631747723e-05,50.2355126254,2.07674492663,x,0,2.06752056407,,,,,2018_Nov_14_1534,59.9860901603,chinese_cond2,001,1034,
images/wallet01.jpg,lamp,x,sounds/animalfarm_english.wav,,,,,,,,,0,0,0,1,0,0,0,193,92.3891426355,9.94245056063e-06,95.3806376583,2.99150560668,,,,82.232405124,None,0,,2018_Nov_14_1534,59.9860901603,chinese_cond2,001,1034,
images/grandpiano.jpg,tulip,x,sounds/animalfarm_english.wav,,,,,,,,,0,0,0,1,0,1,1,236,96.4986274587,9.30100213736e-06,97.9313392596,1.43272206408,,,,,x,1,1.41730675299,2018_Nov_14_1534,59.9860901603,chinese_cond2,001,1034,
images/flower01.jpg,bus,x,sounds/animalfarm_english.wav,,,,,,,,,0,0,0,1,0,2,2,140,99.049664538,9.94245056063e-06,100.298601737,1.24894746172,,,,,x,1,1.23390290828,2018_Nov_14_1534,59.9860901603,chinese_cond2,001,1034,
images/globe.jpg,cloud,x,sounds/animalfarm_english.wav,,,,,,,,,0,0,0,1,0,3,3,154,101.430763719,9.30100213736e-06,102.882608672,1.45185489522,,,,,x,1,1.43396551372,2018_Nov_14_1534,59.9860901603,chinese_cond2,001,1034,
images/aquarium.jpg,computer mouse,x,sounds/animalfarm_english.wav,,,,,,,,,0,0,0,1,0,4,4,159,104.01743748,9.621726349e-06,105.400202185,1.3827749677,,,,,x,1,1.36753862083,2018_Nov_14_1534,59.9860901603,chinese_cond2,001,1034,
images/daisy.jpg,daisy,z,sounds/animalfarm_english.wav,,,,,,,,,0,0,0,1,0,5,5,6,106.502103152,9.621726349e-06,107.817208419,1.31511520909,,,,,z,1,1.30057034467,2018_Nov_14_1534,59.9860901603,chinese_cond2,001,1034,
images/bullet (2).jpg,rubber glove,x,sounds/animalfarm_english.wav,,,,,,,,,0,0,0,1,0,6,6,217,108.922538254,9.621726349e-06,110.18450842,1.26198042999,,,,,x,1,1.2505629519,2018_Nov_14_1534,59.9860901603,chinese_cond2,001,1034,
images/cauliflower01.jpg,glue stick,x,sounds/animalfarm_english.wav,,,,,,,,,0,0,0,1,0,7,7,181,111.301584476,9.621726349e-06,112.668509551,1.36693501694,,,,,x,1,1.35059281148,2018_Nov_14_1534,59.9860901603,chinese_cond2,001,1034,
images/ladder.jpg,ladder,z,sounds/animalfarm_english.wav,,,,,,,,,0,0,0,1,0,8,8,113,113.761711823,9.621726349e-06,114.719041649,0.957339768298,,,,,z,1,0.933813971351,2018_Nov_14_1534,59.9860901603,chinese_cond2,001,1034,
images/magnifyingglass01b.jpg,magnifying glass,z,sounds/animalfarm_english.wav,,,,,,,,,0,0,0,1,0,9,9,64,115.82642797,9.30100213736e-06,117.086329784,1.25991207652,,,,,z,1,1.25056423491,2018_Nov_14_1534,59.9860901603,chinese_cond2,001,1034,
images/cola.jpg,comb,x,sounds/animalfarm_english.wav,,,,,,,,,0,0,0,1,0,10,10,157,118.207918115,9.30100213736e-06,119.570333159,1.36242498655,,,,,x,1,1.35054085404,2018_Nov_14_1534,59.9860901603,chinese_cond2,001,1034,
images/cherry01.jpg,highlighter,x,sounds/animalfarm_english.wav,,,,,,,,,0,0,0,1,0,11,11,187,120.680787533,1.09046231955e-05,121.720875873,1.04009892431,,,,,z,0,1.01717192028,2018_Nov_14_1534,59.9860901603,chinese_cond2,001,1034,
images/diploma01.jpg,glasses,x,sounds/animalfarm_english.wav,,,,,,,,,0,0,0,1,0,12,12,179,122.852600388,9.30100213736e-06,124.471592613,1.61900248856,,,,,z,0,1.60064805625,2018_Nov_14_1534,59.9860901603,chinese_cond2,001,1034,
images/carrot02.jpg,corkscrew,x,sounds/animalfarm_english.wav,,,,,,,,,0,0,0,1,0,13,13,161,125.573977874,9.621726349e-06,126.639151055,1.06518344325,,,,,x,1,1.05081497738,2018_Nov_14_1534,59.9860901603,chinese_cond2,001,1034,
images/glasses01b.jpg,calculator,x,sounds/animalfarm_english.wav,,,,,,,,,0,0,0,1,0,14,14,142,127.731844978,9.30100213736e-06,128.806074141,1.07423942548,,,,,x,1,1.05052664597,2018_Nov_14_1534,59.9860901603,chinese_cond2,001,1034,
images/cupcake.jpg,scissors,x,sounds/animalfarm_english.wav,,,,,,,,,0,0,0,1,0,15,15,219,129.924914823,9.30100213736e-06,130.856621313,0.931716431864,,,,,x,1,0.917135967058,2018_Nov_14_1534,59.9860901603,chinese_cond2,001,1034,
images/lip.jpg,boxing glove,x,sounds/animalfarm_english.wav,,,,,,,,,0,0,0,1,0,16,16,136,131.960152845,9.94256697595e-06,133.290587468,1.33044456621,,,,,x,1,1.31725700852,2018_Nov_14_1534,59.9860901603,chinese_cond2,001,1034,
images/antelope.jpg,antelope,z,sounds/animalfarm_english.wav,,,,,,,,,0,0,0,1,0,17,17,12,134.393872683,8.98027792573e-06,135.307785367,0.913922305685,,,,,x,0,0.900437436416,2018_Nov_14_1534,59.9860901603,chinese_cond2,001,1034,
images/flipflop01b.jpg,flip flop,z,sounds/animalfarm_english.wav,,,,,,,,,0,0,0,1,0,18,18,27,136.424940321,9.30100213736e-06,137.174931902,0.750001202687,,,,,x,0,0.733764515608,2018_Nov_14_1534,59.9860901603,chinese_cond2,001,1034,
images/doorhandle.jpg,doll,x,sounds/animalfarm_english.wav,,,,,,,,,0,0,0,1,0,19,19,168,138.277704599,9.30100213736e-06,139.792287149,1.51459185057,,,,,x,1,1.50063711952,2018_Nov_14_1534,59.9860901603,chinese_cond2,001,1034,
images/microphone01.jpg,diaper,x,sounds/animalfarm_english.wav,,,,,,,,,0,0,0,1,0,20,20,164,140.89245524,9.30100213736e-06,142.52633326,1.63388732111,,,,,x,1,1.61731643893,2018_Nov_14_1534,59.9860901603,chinese_cond2,001,1034,
images/hanger02a.jpg,hanger,z,sounds/animalfarm_english.wav,,,,,,,,,0,0,0,1,0,21,21,88,143.619820016,9.621726349e-06,145.16035689,1.5405464957,,,,,z,1,1.51730550209,2018_Nov_14_1534,59.9860901603,chinese_cond2,001,1034,
images/ant.jpg,ant,z,sounds/animalfarm_english.wav,,,,,,,,,0,0,0,1,0,22,22,98,146.255147391,9.621726349e-06,147.744369598,1.48923182918,,,,,z,1,1.46729426074,2018_Nov_14_1534,59.9860901603,chinese_cond2,001,1034,
images/backpack01b.jpg,swallow,x,sounds/animalfarm_english.wav,,,,,,,,,0,0,0,1,0,23,23,228,148.874591838,9.30111855268e-06,150.061651302,1.18706940708,,,,,x,1,1.16721590771,2018_Nov_14_1534,59.9860901603,chinese_cond2,001,1034,
images/masquerademask02b.jpg,mirror,x,sounds/animalfarm_english.wav,,,,,,,,,0,0,0,1,0,24,24,204,151.166397098,8.98027792573e-06,152.71233722,1.54594942357,,,,,x,1,1.53395496192,2018_Nov_14_1534,59.9860901603,chinese_cond2,001,1034,
images/boxingglove02a.jpg,bracelet,x,sounds/animalfarm_english.wav,,,,,,,,,0,0,0,1,0,25,25,135,153.821737693,9.621726349e-06,155.129476876,1.30774976674,,,,,x,1,1.28374095832,2018_Nov_14_1534,59.9860901603,chinese_cond2,001,1034,
images/scooter.jpg,pen,x,sounds/animalfarm_english.wav,,,,,,,,,0,0,0,1,0,26,26,212,156.222070733,9.621726349e-06,157.180172543,0.958112073364,,,,,x,1,0.933813971351,2018_Nov_14_1534,59.9860901603,chinese_cond2,001,1034,
images/parrot01.jpg,chameleon,x,sounds/animalfarm_english.wav,,,,,,,,,0,0,0,1,0,27,27,150,158.293681499,9.30100213736e-06,159.480782658,1.18711110123,,,,,z,0,1.16721109673,2018_Nov_14_1534,59.9860901603,chinese_cond2,001,1034,
images/battery03b.jpg,battery,z,sounds/animalfarm_english.wav,,,,,,,,,0,0,0,1,0,28,28,34,160.589671254,9.30100213736e-06,162.231501963,1.6418400103,,,,,z,1,1.61733343732,2018_Nov_14_1534,59.9860901603,chinese_cond2,001,1034,
images/mattress.jpg,cat,x,sounds/animalfarm_english.wav,,,,,,,,,0,0,0,1,0,29,29,147,163.336196122,9.621726349e-06,164.498769219,1.16258271888,,,,,x,1,1.15055009094,2018_Nov_14_1534,59.9860901603,chinese_cond2,001,1034,
images/fork01.jpg,cooking pot,x,sounds/animalfarm_english.wav,,,,,,,,,0,0,0,1,0,30,30,160,165.593283897,9.30100213736e-06,167.199478245,1.60620396992,,,,,x,1,1.58398705046,2018_Nov_14_1534,59.9860901603,chinese_cond2,001,1034,
images/printer03a.jpg,printer,z,sounds/animalfarm_english.wav,,,,,,,,,0,0,0,1,0,31,31,72,168.308281849,9.30100213736e-06,169.650143252,1.34187102446,,,,,z,1,1.3172845908,2018_Nov_14_1534,59.9860901603,chinese_cond2,001,1034,
images/axe01.jpg,axe,z,sounds/animalfarm_english.wav,,,,,,,,,0,0,0,1,0,32,32,104,170.752795998,9.30100213736e-06,172.400678782,1.64789272659,,,,,z,1,1.63379687665,2018_Nov_14_1534,59.9860901603,chinese_cond2,001,1034,
images/razor04a.jpg,razor,z,sounds/animalfarm_english.wav,,,,,,,,,0,0,0,1,0,33,33,36,173.500713773,9.30100213736e-06,175.068217819,1.56751366844,,,,,z,1,1.55065958633,2018_Nov_14_1534,59.9860901603,chinese_cond2,001,1034,
images/flamingo.jpg,flamingo,z,sounds/animalfarm_english.wav,,,,,,,,,0,0,0,1,0,34,34,52,176.1670796,9.62184276432e-06,177.118738372,0.951669035247,,,,,z,1,0.933812047006,2018_Nov_14_1534,59.9860901603,chinese_cond2,001,1034,
images/pepper05a.jpg,lighter,x,sounds/animalfarm_english.wav,,,,,,,,,0,0,0,1,0,35,35,198,178.239908478,9.621726349e-06,179.152643461,0.912744604633,,,,,x,1,0.900514410227,2018_Nov_14_1534,59.9860901603,chinese_cond2,001,1034,
images/computerkeyboard01a.jpg,computer keyboard,z,sounds/animalfarm_english.wav,,,,,,,,,0,0,0,1,0,36,36,61,180.270108876,9.30100213736e-06,181.286517793,1.01641853794,,,,,x,0,1.00037653081,2018_Nov_14_1534,59.9860901603,chinese_cond2,001,1034,
images/marker01a.jpg,marker,z,sounds/animalfarm_english.wav,,,,,,,,,0,0,0,1,0,37,37,95,182.384773724,9.30100213736e-06,183.737146557,1.35238245514,,,,,z,1,1.33391961805,2018_Nov_14_1534,59.9860901603,chinese_cond2,001,1034,
images/lamp04b.jpg,parking meter,x,sounds/animalfarm_english.wav,,,,,,,,,0,0,0,1,0,38,38,209,184.857614277,1.02631747723e-05,186.337825082,1.48022106907,,,,,x,1,1.46726539545,2018_Nov_14_1534,59.9860901603,chinese_cond2,001,1034,
images/donut.jpg,rhinoceros,x,sounds/animalfarm_english.wav,,,,,,,,,0,0,0,1,0,39,39,216,187.463642489,8.98027792573e-06,188.571749479,1.10811661161,,,,,x,1,1.08385956241,2018_Nov_14_1534,59.9860901603,chinese_cond2,001,1034,
images/mitten01.jpg,mitten,z,sounds/animalfarm_english.wav,,,,,,,,,0,0,0,1,0,40,40,102,189.69293466,9.30100213736e-06,191.105765379,1.41284034098,,,,,x,0,1.40061431611,2018_Nov_14_1534,59.9860901603,chinese_cond2,001,1034,
images/tie01.jpg,bench,x,sounds/animalfarm_english.wav,,,,,,,,,0,0,0,1,0,41,41,130,192.2039283,9.30100213736e-06,193.47303395,1.26911495056,,,,,x,1,1.25057642243,2018_Nov_14_1534,59.9860901603,chinese_cond2,001,1034,
images/bowl02b (1).jpg,bowl,z,sounds/animalfarm_english.wav,,,,,,,,,0,0,0,1,0,42,42,24,194.590641125,9.621726349e-06,195.606933298,1.01630147349,,,,,z,1,1.00050161337,2018_Nov_14_1534,59.9860901603,chinese_cond2,001,1034,
images/corn01.jpg,corn,z,sounds/animalfarm_english.wav,,,,,,,,,0,0,0,1,0,43,43,22,196.706413435,9.30111855268e-06,198.024278859,1.31787504512,,,,,z,1,1.30063609325,2018_Nov_14_1534,59.9860901603,chinese_cond2,001,1034,
images/watermelon01.jpg,orange,x,sounds/animalfarm_english.wav,,,,,,,,,0,0,0,1,0,44,44,207,199.153678439,9.30100213736e-06,200.091429627,0.937761130044,,,,,x,1,0.917141098646,2018_Nov_14_1534,59.9860901603,chinese_cond2,001,1034,
images/hairpin.jpg,hair pin,z,sounds/animalfarm_english.wav,,,,,,,,,0,0,0,1,0,45,45,28,201.182086628,9.94245056063e-06,202.225336993,1.04326094897,,,,,z,1,1.0338569805,2018_Nov_14_1534,59.9860901603,chinese_cond2,001,1034,
images/lollipop03b.jpg,lollipop,z,sounds/animalfarm_english.wav,,,,,,,,,0,0,0,1,0,46,46,42,203.318103401,9.62184276432e-06,204.542606189,1.22451273107,,,,,z,1,1.20056133228,2018_Nov_14_1534,59.9860901603,chinese_cond2,001,1034,
images/lightswitch02a.jpg,fork,x,sounds/animalfarm_english.wav,,,,,,,,,0,0,0,1,0,47,47,177,205.654600683,9.30100213736e-06,206.876539919,1.22194885788,,,,,x,1,1.20054978633,2018_Nov_14_1534,59.9860901603,chinese_cond2,001,1034,
images/lemon02.jpg,lemon,z,sounds/animalfarm_english.wav,,,,,,,,,0,0,0,1,0,48,48,14,207.988438837,8.98027792573e-06,209.010446324,1.02201710816,,,,,z,1,1.00050642423,2018_Nov_14_1534,59.9860901603,chinese_cond2,001,1034,
images/pictureframe04.jpg,picture frame,z,sounds/animalfarm_english.wav,,,,,,,,,0,0,0,1,0,49,49,41,210.133024411,9.621726349e-06,212.094623083,1.96160893457,,,,,z,1,1.95077966573,2018_Nov_14_1534,59.9860901603,chinese_cond2,001,1034,
images/feather03b.jpg,feather,z,sounds/animalfarm_english.wav,,,,,,,,,0,0,0,1,0,50,50,114,213.1963159,9.621726349e-06,214.428532758,1.2322268011,,,,,z,1,1.217226187,2018_Nov_14_1534,59.9860901603,chinese_cond2,001,1034,
images/dryingmachine01.jpg,drying machine,z,sounds/animalfarm_english.wav,,,,,,,,,0,0,0,1,0,51,51,18,215.549943087,9.30100213736e-06,217.996139758,2.44620661275,,,,,x,0,2.43421920692,2018_Nov_14_1534,59.9860901603,chinese_cond2,001,1034,
images/spoon02b.jpg,spoon,z,sounds/animalfarm_english.wav,,,,,,,,,0,0,0,1,0,52,52,38,219.087502033,8.98027792573e-06,220.046700721,0.959208310349,,,,,z,1,0.950506728957,2018_Nov_14_1534,59.9860901603,chinese_cond2,001,1034,
images/sportshorts02.jpg,tape,x,sounds/animalfarm_english.wav,,,,,,,,,0,0,0,1,0,53,53,230,221.154797127,9.30100213736e-06,222.597342347,1.44255484152,,,,,x,1,1.43394402519,2018_Nov_14_1534,59.9860901603,chinese_cond2,001,1034,
images/key03b.jpg,cigar,x,sounds/animalfarm_english.wav,,,,,,,,,0,0,0,1,0,54,54,153,223.698876405,9.30100213736e-06,225.464789722,1.76592357969,,,,,x,1,1.75066285767,2018_Nov_14_1534,59.9860901603,chinese_cond2,001,1034,
images/radio03a.jpg,radio,z,sounds/animalfarm_english.wav,,,,,,,,,0,0,0,1,0,55,55,37,226.579185481,8.65967012942e-06,227.331920862,0.752745002392,,,,,z,1,0.733768685022,2018_Nov_14_1534,59.9860901603,chinese_cond2,001,1034,
images/apricot.jpg,apricot,z,sounds/animalfarm_english.wav,,,,,,,,,0,0,0,1,0,56,56,32,228.44873681,9.30100213736e-06,229.549172707,1.10044583934,,,,,z,1,1.08386725967,2018_Nov_14_1534,59.9860901603,chinese_cond2,001,1034,
images/bat.jpg,hand,x,sounds/animalfarm_english.wav,,,,,,,,,0,0,0,1,0,57,57,185,230.647713441,9.621726349e-06,231.549695488,0.901991988998,,,,,x,1,0.883811068838,2018_Nov_14_1534,59.9860901603,chinese_cond2,001,1034,
images/bench02.jpg,electric toothbrush,x,sounds/animalfarm_english.wav,,,,,,,,,0,0,0,1,0,58,58,172,232.658687999,9.621726349e-06,234.283773672,1.62509561598,,,,,x,1,1.60065607447,2018_Nov_14_1534,59.9860901603,chinese_cond2,001,1034,
images/tent.jpg,tent,z,sounds/animalfarm_english.wav,,,,,,,,,0,0,0,1,0,59,59,11,235.410377175,8.98039434105e-06,236.534331172,1.12396297685,,,,,z,1,1.10050838068,2018_Nov_14_1534,59.9860901603,chinese_cond2,001,1034,
images/hairband.jpg,hairband,z,sounds/animalfarm_english.wav,,,,,,,,,0,0,0,1,0,60,60,66,237.644264047,9.62184276432e-06,239.101682233,1.45742812811,,,,,z,1,1.43396102358,2018_Nov_14_1534,59.9860901603,chinese_cond2,001,1034,
images/lion.jpg,lion,z,sounds/animalfarm_english.wav,,,,,,,,,0,0,0,1,0,61,61,44,240.213993282,9.94245056063e-06,241.268913215,1.05493051664,,,,,z,1,1.03385088674,2018_Nov_14_1534,59.9860901603,chinese_cond2,001,1034,
images/aloe02.jpg,broad sword,x,sounds/animalfarm_english.wav,,,,,,,,,0,0,0,1,0,62,62,137,242.389111846,9.621726349e-06,244.586447009,2.19734510512,,,,,x,1,2.18415049172,2018_Nov_14_1534,59.9860901603,chinese_cond2,001,1034,
images/bottleofredwine02.jpg,pipe,x,sounds/animalfarm_english.wav,,,,,,,,,0,0,0,1,0,63,63,213,245.684793384,9.621726349e-06,247.220449149,1.53566602815,,,,,x,1,1.5172699017,2018_Nov_14_1534,59.9860901603,chinese_cond2,001,1034,
images/bowtie.jpg,bowtie,z,sounds/animalfarm_english.wav,,,,,,,,,0,0,0,1,0,64,64,89,248.331096279,9.621726349e-06,249.621102273,1.29001593683,,,,,z,1,1.26724512572,2018_Nov_14_1534,59.9860901603,chinese_cond2,001,1034,
images/candycane01a.jpg,lip,x,sounds/animalfarm_english.wav,,,,,,,,,0,0,0,1,0,65,65,200,250.715436704,9.30100213736e-06,252.055087351,1.33966058982,,,,,x,1,1.31727176195,2018_Nov_14_1534,59.9860901603,chinese_cond2,001,1034,
images/banjo.jpg,knife,x,sounds/animalfarm_english.wav,,,,,,,,,0,0,0,1,0,66,66,191,253.152075137,8.98027792573e-06,254.122360316,0.970357983257,,,,,x,1,0.950499352301,2018_Nov_14_1534,59.9860901603,chinese_cond2,001,1034,
images/ostrich.jpg,ostrich,z,sounds/animalfarm_english.wav,,,,,,,,,0,0,0,1,0,67,67,76,255.223376403,8.98039434105e-06,256.256208348,1.03284188698,,,,,z,1,1.01720719994,2018_Nov_14_1534,59.9860901603,chinese_cond2,001,1034,
images/cocktailshrimp01.jpg,cocktail shrimp,z,sounds/animalfarm_english.wav,,,,,,,,,0,0,0,1,0,68,68,30,257.370820917,9.621726349e-06,259.056917727,1.68610643118,,,,,x,0,1.66736360139,2018_Nov_14_1534,59.9860901603,chinese_cond2,001,1034,
images/puzzle.jpg,puzzle,z,sounds/animalfarm_english.wav,,,,,,,,,0,0,0,1,0,69,69,57,260.261116718,9.621726349e-06,261.190817075,0.929710619734,,,,,z,1,0.917166115134,2018_Nov_14_1534,59.9860901603,chinese_cond2,001,1034,
images/floorlamp.jpg,floor lamp,z,sounds/animalfarm_english.wav,,,,,,,,,0,0,0,1,0,70,70,26,262.283704716,9.30111855268e-06,264.408314595,2.12461950036,,,,,z,1,2.10079446714,2018_Nov_14_1534,59.9860901603,chinese_cond2,001,1034,
images/sunglasses03a.jpg,sun glasses,z,sounds/animalfarm_english.wav,,,,,,,,,0,0,0,1,0,71,71,17,265.516638715,9.621726349e-06,266.392185351,0.87555689842,,,,,z,1,0.867148459307,2018_Nov_14_1534,59.9860901603,chinese_cond2,001,1034,
images/broom02.jpg,broom,z,sounds/animalfarm_english.wav,,,,,,,,,0,0,0,1,0,72,72,116,267.485781794,9.621726349e-06,268.642757924,1.15698607324,,,,,z,1,1.13387208665,2018_Nov_14_1534,59.9860901603,chinese_cond2,001,1034,
images/bicycle.jpg,hand bag,x,sounds/animalfarm_english.wav,,,,,,,,,0,0,0,1,0,73,73,186,269.753603262,9.30100213736e-06,271.893610491,2.14001717162,,,,,x,1,2.11746477406,2018_Nov_14_1534,59.9860901603,chinese_cond2,001,1034,
images/weight01.jpg,weight,z,sounds/animalfarm_english.wav,,,,,,,,,0,0,0,1,0,74,74,67,272.999101329,9.621726349e-06,273.827453327,0.828361940337,,,,,z,1,0.817120540189,2018_Nov_14_1534,59.9860901603,chinese_cond2,001,1034,
images/screwdriver02b.jpg,cola,x,sounds/animalfarm_english.wav,,,,,,,,,0,0,0,1,0,75,75,158,274.921374664,9.30100213736e-06,275.978013361,1.05664831796,,,,,x,1,1.03385152819,2018_Nov_14_1534,59.9860901603,chinese_cond2,001,1034,
images/lychee02a.jpg,lychee,z,sounds/animalfarm_english.wav,,,,,,,,,0,0,0,1,0,76,76,62,277.100307928,8.98027792573e-06,277.845169517,0.74487089063,,,,,z,1,0.733726990875,2018_Nov_14_1534,59.9860901603,chinese_cond2,001,1034,
images/showerhead01.jpg,skateboard,x,sounds/animalfarm_english.wav,,,,,,,,,0,0,0,1,0,77,77,223,278.953231285,9.621726349e-06,279.9623992,1.00917817827,,,,,x,1,1.00051219726,2018_Nov_14_1534,59.9860901603,chinese_cond2,001,1034,
images/raisin.jpg,ruler,x,sounds/animalfarm_english.wav,,,,,,,,,0,0,0,1,0,78,78,218,281.067746354,9.621726349e-06,282.279671283,1.21193519188,,,,,x,1,1.20055940794,2018_Nov_14_1534,59.9860901603,chinese_cond2,001,1034,
images/radish01.jpg,raisin,x,sounds/animalfarm_english.wav,,,,,,,,,0,0,0,1,0,79,79,214,283.390754598,9.30100213736e-06,284.413559406,1.02281442971,,,,,z,0,1.0005061035,2018_Nov_14_1534,59.9860901603,chinese_cond2,001,1034,
images/bowlingball.jpg,bowling ball,z,sounds/animalfarm_english.wav,,,,,,,,,0,0,0,1,0,80,80,20,285.546476695,9.621726349e-06,286.414078017,0.867611264926,,,,,z,1,0.850454739528,2018_Nov_14_1534,59.9860901603,chinese_cond2,001,1034,
images/atm.jpg,atm,z,sounds/animalfarm_english.wav,,,,,,,,,0,0,0,1,0,81,81,96,287.55130745,9.30100213736e-06,288.381270769,0.829972619656,,,,,z,1,0.817129841191,2018_Nov_14_1534,59.9860901603,chinese_cond2,001,1034,
images/eyedrops.jpg,bicycle,x,sounds/animalfarm_english.wav,,,,,,,,,0,0,0,1,0,82,82,131,289.48201841,9.30100213736e-06,290.298446827,0.816439320915,,,,,x,1,0.80045728921,2018_Nov_14_1534,59.9860901603,chinese_cond2,001,1034,
images/squirrel.jpg,binder,x,sounds/animalfarm_english.wav,,,,,,,,,0,0,0,1,0,83,83,132,291.40249697,9.30100213736e-06,292.465670432,1.06318308343,,,,,x,1,1.05051028891,2018_Nov_14_1534,59.9860901603,chinese_cond2,001,1034,
images/blueberry02.jpg,blueberry,z,sounds/animalfarm_english.wav,,,,,,,,,0,0,0,1,0,84,84,46,293.578331391,9.30100213736e-06,294.349519346,0.771198217757,,,,,z,1,0.750460480456,2018_Nov_14_1534,59.9860901603,chinese_cond2,001,1034,
images/safe.jpg,safe,z,sounds/animalfarm_english.wav,,,,,,,,,0,0,0,1,0,85,85,78,295.46117772,9.621726349e-06,296.466725937,1.00555783801,,,,,z,1,0.983832268743,2018_Nov_14_1534,59.9860901603,chinese_cond2,001,1034,
images/elbow.jpg,elbow,z,sounds/animalfarm_english.wav,,,,,,,,,0,0,0,1,0,86,86,105,297.578716902,9.94256697595e-06,298.500874456,0.922167495941,,,,,z,1,0.900701072183,2018_Nov_14_1534,59.9860901603,chinese_cond2,001,1034,
images/dresser02.jpg,dresser,z,sounds/animalfarm_english.wav,,,,,,,,,0,0,0,1,0,87,87,87,299.62311931,9.621726349e-06,300.834549361,1.21143967216,,,,,z,1,1.20057801006,2018_Nov_14_1534,59.9860901603,chinese_cond2,001,1034,
images/remotecontrol01c.jpg,remote control,z,sounds/animalfarm_english.wav,,,,,,,,,0,0,0,1,0,88,88,85,301.944708347,9.30100213736e-06,303.401887593,1.45718886738,,,,,z,1,1.43396455166,2018_Nov_14_1534,59.9860901603,chinese_cond2,001,1034,
images/ladybug03.jpg,giraffe,x,sounds/animalfarm_english.wav,,,,,,,,,0,0,0,1,0,89,89,178,304.505492891,9.62184276432e-06,305.319046331,0.813563703559,,,,,x,1,0.800427461858,2018_Nov_14_1534,59.9860901603,chinese_cond2,001,1034,
images/licenseplate.jpg,license plate,z,sounds/animalfarm_english.wav,,,,,,,,,0,0,0,1,0,90,90,40,306.436480957,9.621726349e-06,307.869722275,1.43325093912,,,,,z,1,1.41729328246,2018_Nov_14_1534,59.9860901603,chinese_cond2,001,1034,
images/handbag02a.jpg,candle,x,sounds/animalfarm_english.wav,,,,,,,,,0,0,0,1,0,91,91,144,308.986978578,4.61842864752e-05,310.237001109,1.25004658522,,,,,x,1,1.23389970104,2018_Nov_14_1534,59.9860901603,chinese_cond2,001,1034,
images/sock03.jpg,sock,z,sounds/animalfarm_english.wav,,,,,,,,,0,0,0,1,0,92,92,90,311.343084967,8.65967012942e-06,312.287539621,0.944463955238,,,,,z,1,0.933821989573,2018_Nov_14_1534,59.9860901603,chinese_cond2,001,1034,
images/corkscrew02a.jpg,masquerade mask,x,sounds/animalfarm_english.wav,,,,,,,,,0,0,0,1,0,93,93,201,313.391903434,9.30100213736e-06,315.238317042,1.84642323025,,,,,x,1,1.83406346303,2018_Nov_14_1534,59.9860901603,chinese_cond2,001,1034,
images/straw.jpg,straw,z,sounds/animalfarm_english.wav,,,,,,,,,0,0,0,1,0,94,94,109,316.328128613,9.30100213736e-06,317.655640473,1.32752148132,,,,,z,1,1.31727945933,2018_Nov_14_1534,59.9860901603,chinese_cond2,001,1034,
images/nailclipper03a.jpg,aquarium,x,sounds/animalfarm_english.wav,,,,,,,,,0,0,0,1,0,95,95,123,318.755237995,8.6595537141e-06,320.006224945,1.25099657173,,,,,x,1,1.23389841814,2018_Nov_14_1534,59.9860901603,chinese_cond2,001,1034,
images/binder03b.jpg,dj mixer,x,sounds/animalfarm_english.wav,,,,,,,,,0,0,0,1,0,96,96,167,321.119988236,9.30100213736e-06,322.34018305,1.22020443634,,,,,x,1,1.20054337173,2018_Nov_14_1534,59.9860901603,chinese_cond2,001,1034,
images/swallow.jpg,mattress,x,sounds/animalfarm_english.wav,,,,,,,,,0,0,0,1,0,97,97,202,323.44210294,9.30100213736e-06,325.424322926,1.98222960741,,,,,x,1,1.96743137052,2018_Nov_14_1534,59.9860901603,chinese_cond2,001,1034,
images/seagull.jpg,seagull,z,sounds/animalfarm_english.wav,,,,,,,,,0,0,0,1,0,98,98,50,326.531899437,9.30100213736e-06,327.858466121,1.32658945548,,,,,z,1,1.31728747743,2018_Nov_14_1534,59.9860901603,chinese_cond2,001,1034,
images/graduationcap.jpg,graduation cap,z,sounds/animalfarm_english.wav,,,,,,,,,0,0,0,1,0,99,99,35,328.961315471,9.30100213736e-06,329.975512991,1.01420746208,,,,,z,1,1.00050546206,2018_Nov_14_1534,59.9860901603,chinese_cond2,001,1034,
images/cat.jpg,black olive,x,sounds/animalfarm_english.wav,,,,,,,,,0,0,0,1,0,100,100,133,331.107017488,9.621726349e-06,332.442832589,1.33582472266,,,,,x,1,1.31725989515,2018_Nov_14_1534,59.9860901603,chinese_cond2,001,1034,
images/cake.jpg,cake,z,sounds/animalfarm_english.wav,,,,,,,,,0,0,0,1,0,101,101,23,333.55711385,8.98027792573e-06,335.727023203,2.1699186546,,,,,z,1,2.15080667078,2018_Nov_14_1534,59.9860901603,chinese_cond2,001,1034,
images/puma.jpg,puma,z,sounds/animalfarm_english.wav,,,,,,,,,0,0,0,1,0,102,102,4,336.826291021,9.30100213736e-06,338.211010863,1.38473074674,,,,,x,0,1.36727755098,2018_Nov_14_1534,59.9860901603,chinese_cond2,001,1034,
images/lightbulb03b.jpg,treadmill,x,sounds/animalfarm_english.wav,,,,,,,,,0,0,0,1,0,103,103,234,339.313385541,9.30100213736e-06,341.311817197,1.99844352307,,,,,x,1,1.98409494222,2018_Nov_14_1534,59.9860901603,chinese_cond2,001,1034,
images/banana04a.jpg,banana,z,sounds/animalfarm_english.wav,,,,,,,,,0,0,0,1,0,104,104,118,342.417044721,9.30100213736e-06,343.212330966,0.795296187629,,,,,x,0,0.783772228984,2018_Nov_14_1534,59.9860901603,chinese_cond2,001,1034,
images/50dollarbill.jpg,cherry,x,sounds/animalfarm_english.wav,,,,,,,,,0,0,0,1,0,105,105,151,344.332122918,9.30100213736e-06,345.412902241,1.08078990644,,,,,x,1,1.06719791505,2018_Nov_14_1534,59.9860901603,chinese_cond2,001,1034,
images/snowman.jpg,globe,x,sounds/animalfarm_english.wav,,,,,,,,,0,0,0,1,0,106,106,180,346.523988122,9.30100213736e-06,347.880205161,1.35622698208,,,,,x,1,1.33392250456,2018_Nov_14_1534,59.9860901603,chinese_cond2,001,1034,
images/orange.jpg,bat,x,sounds/animalfarm_english.wav,,,,,,,,,0,0,0,1,0,107,107,128,349.005508446,9.94245056063e-06,349.847442493,0.841943668551,,,,,x,1,0.817181798629,2018_Nov_14_1534,59.9860901603,chinese_cond2,001,1034,
images/charcoalbarbecue.jpg,charcoal barbecue,z,sounds/animalfarm_english.wav,,,,,,,,,0,0,0,1,0,108,108,77,350.965516323,9.30100213736e-06,353.064904733,2.09939803183,,,,,z,1,2.08412319806,2018_Nov_14_1534,59.9860901603,chinese_cond2,001,1034,
images/gluestick.jpg,squirrel,x,sounds/animalfarm_english.wav,,,,,,,,,0,0,0,1,0,109,109,226,354.172606648,9.62184276432e-06,355.315493023,1.1428966379,,,,,x,1,1.13386663434,2018_Nov_14_1534,59.9860901603,chinese_cond2,001,1034,
images/highlighter03b.jpg,coin,x,sounds/animalfarm_english.wav,,,,,,,,,0,0,0,1,0,110,110,156,356.418226591,9.621726349e-06,357.53273717,1.11452052137,,,,,x,1,1.10053179367,2018_Nov_14_1534,59.9860901603,chinese_cond2,001,1034,
images/bracelet02a.jpg,chess knight,x,sounds/animalfarm_english.wav,,,,,,,,,0,0,0,1,0,111,111,152,358.642187034,9.94245056063e-06,360.000060617,1.35788384569,,,,,x,1,1.33393180557,2018_Nov_14_1534,59.9860901603,chinese_cond2,001,1034,
images/gorilla.jpg,gorilla,z,sounds/animalfarm_english.wav,,,,,,,,,0,0,0,1,0,112,112,80,361.111321613,9.30100213736e-06,362.267606262,1.15629427007,,,,,z,1,1.13416362531,2018_Nov_14_1534,59.9860901603,chinese_cond2,001,1034,
images/flashlight05.jpg,flash light,z,sounds/animalfarm_english.wav,,,,,,,,,0,0,0,1,0,113,113,8,363.370648688,9.30100213736e-06,364.184483083,0.813844337594,,,,,z,1,0.800444780965,2018_Nov_14_1534,59.9860901603,chinese_cond2,001,1034,
images/clothespin02a.jpg,clothes pin,z,sounds/animalfarm_english.wav,,,,,,,,,0,0,0,1,0,114,114,79,365.290294967,9.621726349e-06,367.235282987,1.94499828247,,,,,z,1,1.93408434233,2018_Nov_14_1534,59.9860901603,chinese_cond2,001,1034,
images/nailpolish02b.jpg,nail polish,z,sounds/animalfarm_english.wav,,,,,,,,,0,0,0,1,0,115,115,94,368.344296024,8.98027792573e-06,371.086586684,2.74230060307,,,,,z,1,2.71791590529,2018_Nov_14_1534,59.9860901603,chinese_cond2,001,1034,
images/beachumbrella01.jpg,beach umbrella,z,sounds/animalfarm_english.wav,,,,,,,,,0,0,0,1,0,116,116,92,372.192487088,8.98027792573e-06,373.853706888,1.66122942104,,,,,z,1,1.65068463492,2018_Nov_14_1534,59.9860901603,chinese_cond2,001,1034,
images/screw03c.jpg,screw,z,sounds/animalfarm_english.wav,,,,,,,,,0,0,0,1,0,117,117,84,374.948389625,9.30100213736e-06,376.321016222,1.37263653963,,,,,x,0,1.35060564044,2018_Nov_14_1534,59.9860901603,chinese_cond2,001,1034,
images/cigar.jpg,crocodile,x,sounds/animalfarm_english.wav,,,,,,,,,0,0,0,1,0,118,118,162,377.419616291,9.30100213736e-06,379.438489656,2.01888298651,,,,,x,1,2.00076653203,2018_Nov_14_1534,59.9860901603,chinese_cond2,001,1034,
images/bus.jpg,microphone,x,sounds/animalfarm_english.wav,,,,,,,,,0,0,0,1,0,119,119,203,380.55728672,9.94256697595e-06,381.489035866,0.9317590883,,,,,x,1,0.917151682544,2018_Nov_14_1534,59.9860901603,chinese_cond2,001,1034,
images/leaf01a.jpg,leaf,z,sounds/animalfarm_english.wav,,,,,,,,,0,0,0,1,0,120,120,68,382.591943268,9.94245056063e-06,383.422862346,0.830929020769,,,,,z,1,0.817106749048,2018_Nov_14_1534,59.9860901603,chinese_cond2,001,1034,
images/rhinoceros01.jpg,envelope,x,sounds/animalfarm_english.wav,,,,,,,,,0,0,0,1,0,121,121,173,384.535248445,9.30100213736e-06,386.440324201,1.90508537844,,,,,x,1,1.88400189998,2018_Nov_14_1534,59.9860901603,chinese_cond2,001,1034,
images/hat05.jpg,hat,z,sounds/animalfarm_english.wav,,,,,,,,,0,0,0,1,0,122,122,15,387.54441636,9.621726349e-06,388.357498976,0.813092558878,,,,,z,1,0.800445743138,2018_Nov_14_1534,59.9860901603,chinese_cond2,001,1034,
images/scissors04a.jpg,leek,x,sounds/animalfarm_english.wav,,,,,,,,,0,0,0,1,0,123,123,194,389.451732378,9.94256697595e-06,390.524726751,1.07300431479,,,,,x,1,1.05051317555,2018_Nov_14_1534,59.9860901603,chinese_cond2,001,1034,
images/dice05a.jpg,band aid,x,sounds/animalfarm_english.wav,,,,,,,,,0,0,0,1,0,124,124,126,391.638136282,9.30100213736e-06,392.758645054,1.1205183937,,,,,x,1,1.10052024759,2018_Nov_14_1534,59.9860901603,chinese_cond2,001,1034,
images/pouch01b.jpg,pouch,z,sounds/animalfarm_english.wav,,,,,,,,,0,0,0,1,0,125,125,25,393.870993307,9.30100213736e-06,395.025916799,1.15493407659,,,,,z,1,1.1338820291,2018_Nov_14_1534,59.9860901603,chinese_cond2,001,1034,
images/icecube02 (2).jpg,aloe,x,sounds/animalfarm_english.wav,,,,,,,,,0,0,0,1,0,126,126,122,396.135948137,9.30100213736e-06,398.176735016,2.04079650051,,,,,z,0,2.01743683883,2018_Nov_14_1534,59.9860901603,chinese_cond2,001,1034,
images/cloud.jpg,ceiling fan,x,sounds/animalfarm_english.wav,,,,,,,,,0,0,0,1,0,127,127,149,399.282130279,9.30100213736e-06,400.377320082,1.09519942501,,,,,x,1,1.08385988313,2018_Nov_14_1534,59.9860901603,chinese_cond2,001,1034,
images/hairdryer03a.jpg,hairdryer,z,sounds/animalfarm_english.wav,,,,,,,,,0,0,0,1,0,128,128,119,401.477168091,9.621726349e-06,402.394518623,0.917361115804,,,,,z,1,0.90048650722,2018_Nov_14_1534,59.9860901603,chinese_cond2,001,1034,
images/parkingmeter.jpg,ear,x,sounds/animalfarm_english.wav,,,,,,,,,0,0,0,1,0,129,129,171,403.496408685,8.98027792573e-06,404.878591274,1.3821925316,,,,,x,1,1.36736286385,2018_Nov_14_1534,59.9860901603,chinese_cond2,001,1034,
images/umbrella01.jpg,umbrella,z,sounds/animalfarm_english.wav,,,,,,,,,0,0,0,1,0,130,130,53,405.991712474,9.30100213736e-06,407.245795059,1.25409220636,,,,,z,1,1.23391509592,2018_Nov_14_1534,59.9860901603,chinese_cond2,001,1034,
images/belt02a.jpg,snowman,x,sounds/animalfarm_english.wav,,,,,,,,,0,0,0,1,0,131,131,224,408.348948456,9.94245056063e-06,409.729764117,1.38082624448,,,,,x,1,1.36726664624,2018_Nov_14_1534,59.9860901603,chinese_cond2,001,1034,
images/tulip02.jpg,sport shorts,x,sounds/animalfarm_english.wav,,,,,,,,,0,0,0,1,0,132,132,225,410.824239666,9.94245056063e-06,412.54719127,1.72296218749,,,,,x,1,1.70070774318,2018_Nov_14_1534,59.9860901603,chinese_cond2,001,1034,
images/pipe.jpg,icecube,x,sounds/animalfarm_english.wav,,,,,,,,,0,0,0,1,0,133,133,188,413.656508354,9.94245056063e-06,415.347920854,1.69142244291,,,,,x,1,1.66735077242,2018_Nov_14_1534,59.9860901603,chinese_cond2,001,1034,
images/treadmill.jpg,lily,x,sounds/animalfarm_english.wav,,,,,,,,,0,0,0,1,0,134,134,199,416.45410093,9.30111855268e-06,417.265093384,0.811002075439,,,,,x,1,0.800435159239,2018_Nov_14_1534,59.9860901603,chinese_cond2,001,1034,
images/gps.jpg,gps,z,sounds/animalfarm_english.wav,,,,,,,,,0,0,0,1,0,135,135,21,418.384192571,9.30100213736e-06,419.382327236,0.998144607758,,,,,z,1,0.98386177537,2018_Nov_14_1534,59.9860901603,chinese_cond2,001,1034,
images/parkfountain.jpg,park fountain,z,sounds/animalfarm_english.wav,,,,,,,,,0,0,0,1,0,136,136,93,420.502754865,8.98027792573e-06,421.699594187,1.19684926479,,,,,z,1,1.18391187256,2018_Nov_14_1534,59.9860901603,chinese_cond2,001,1034,
images/skateboard.jpg,key,x,sounds/animalfarm_english.wav,,,,,,,,,0,0,0,1,0,137,137,189,422.79084068,9.621726349e-06,423.550066566,0.759235828533,,,,,x,1,0.750445727143,2018_Nov_14_1534,59.9860901603,chinese_cond2,001,1034,
images/eraser.jpg,eraser,z,sounds/animalfarm_english.wav,,,,,,,,,0,0,0,1,0,138,138,110,424.657053906,9.30100213736e-06,425.533944699,0.876900734729,,,,,z,1,0.867162891896,2018_Nov_14_1534,59.9860901603,chinese_cond2,001,1034,
images/desktopcomputer.jpg,desktop computer,z,sounds/animalfarm_english.wav,,,,,,,,,0,0,0,1,0,139,139,16,426.672512515,9.621726349e-06,428.001234149,1.32873221696,,,,,z,1,1.31722493609,2018_Nov_14_1534,59.9860901603,chinese_cond2,001,1034,
images/apple06.jpg,apple,z,sounds/animalfarm_english.wav,,,,,,,,,0,0,0,1,0,140,140,13,429.128432275,9.621726349e-06,430.068461249,0.940039558103,,,,,z,1,0.917175095528,2018_Nov_14_1534,59.9860901603,chinese_cond2,001,1034,
images/computermouse02a.jpg,world map,x,sounds/animalfarm_english.wav,,,,,,,,,0,0,0,1,0,141,141,239,431.170827588,9.621726349e-06,432.002273617,0.831455971347,,,,,x,1,0.817114767153,2018_Nov_14_1534,59.9860901603,chinese_cond2,001,1034,
images/camera01a.jpg,bull,x,sounds/animalfarm_english.wav,,,,,,,,,0,0,0,1,0,142,142,138,433.113491957,9.30100213736e-06,434.202855797,1.08937314036,,,,,x,1,1.06719695288,2018_Nov_14_1534,59.9860901603,chinese_cond2,001,1034,
images/ceilingfan02.jpg,paper clip,x,sounds/animalfarm_english.wav,,,,,,,,,0,0,0,1,0,143,143,208,435.301259903,9.62184276432e-06,436.470118242,1.1688682813,,,,,x,1,1.15054143139,2018_Nov_14_1534,59.9860901603,chinese_cond2,001,1034,
images/redfox.jpg,red fox,z,sounds/animalfarm_english.wav,,,,,,,,,0,0,0,1,0,144,144,1,437.637075004,9.30100213736e-06,438.654045188,1.01698044757,,,,,z,1,1.0004756347,2018_Nov_14_1534,59.9860901603,chinese_cond2,001,1034,
images/worldmap.jpg,scooter,x,sounds/animalfarm_english.wav,,,,,,,,,0,0,0,1,0,145,145,220,439.785333517,9.621726349e-06,440.60453556,0.819211665075,,,,,x,1,0.800427782582,2018_Nov_14_1534,59.9860901603,chinese_cond2,001,1034,
images/mailbox01.jpg,mail box,z,sounds/animalfarm_english.wav,,,,,,,,,0,0,0,1,0,146,146,73,441.724049444,9.30111855268e-06,442.488369721,0.764330540202,,,,,z,1,0.750445727026,2018_Nov_14_1534,59.9860901603,chinese_cond2,001,1034,
images/crocodile.jpg,triangle ruler,x,sounds/animalfarm_english.wav,,,,,,,,,0,0,0,1,0,147,147,235,443.586240783,9.30100213736e-06,444.655606155,1.06937499414,,,,,x,1,1.05052953248,2018_Nov_14_1534,59.9860901603,chinese_cond2,001,1034,
images/cookingpot.jpg,grasshopper,x,sounds/animalfarm_english.wav,,,,,,,,,0,0,0,1,0,148,148,183,445.769745976,9.30111855268e-06,446.556097473,0.786361439503,,,,,x,1,0.767106412328,2018_Nov_14_1534,59.9860901603,chinese_cond2,001,1034,
images/gamecontroller01.jpg,game controller,z,sounds/animalfarm_english.wav,,,,,,,,,0,0,0,1,0,149,149,112,447.677168476,9.621726349e-06,448.906721395,1.22956286184,,,,,z,1,1.21723131847,2018_Nov_14_1534,59.9860901603,chinese_cond2,001,1034,
images/highheelshoe02a.jpg,high heel shoe,z,sounds/animalfarm_english.wav,,,,,,,,,0,0,0,1,0,150,150,75,450.013821309,8.98027792573e-06,451.09062557,1.07681452401,,,,,z,1,1.06718123739,2018_Nov_14_1534,59.9860901603,chinese_cond2,001,1034,
images/bed.jpg,bed,z,sounds/animalfarm_english.wav,,,,,,,,,0,0,0,1,0,151,151,103,452.210422333,9.94245056063e-06,453.091157652,0.880745582166,,,,,z,1,0.867150062928,2018_Nov_14_1534,59.9860901603,chinese_cond2,001,1034,
images/electricguitar02.jpg,electric guitar,z,sounds/animalfarm_english.wav,,,,,,,,,0,0,0,1,0,152,152,100,454.193763893,9.621726349e-06,455.675181586,1.48142763542,,,,,z,1,1.46731157985,2018_Nov_14_1534,59.9860901603,chinese_cond2,001,1034,
images/plate01b.jpg,plate,z,sounds/animalfarm_english.wav,,,,,,,,,0,0,0,1,0,153,153,3,456.774213992,9.30100213736e-06,458.025770549,1.25156617875,,,,,x,0,1.23389136221,2018_Nov_14_1534,59.9860901603,chinese_cond2,001,1034,
images/thumbtack02a.jpg,thumb tack,z,sounds/animalfarm_english.wav,,,,,,,,,0,0,0,1,0,154,154,60,459.136886257,9.30100213736e-06,460.092994122,0.956117165857,,,,,x,0,0.933834818425,2018_Nov_14_1534,59.9860901603,chinese_cond2,001,1034,
images/tape01a.jpg,tie,x,sounds/animalfarm_english.wav,,,,,,,,,0,0,0,1,0,155,155,232,461.219026094,9.30111855268e-06,463.06042004,1.841403889,,,,,x,1,1.81737615773,2018_Nov_14_1534,59.9860901603,chinese_cond2,001,1034,
images/coin01b.jpg,arrow,x,sounds/animalfarm_english.wav,,,,,,,,,0,0,0,1,0,156,156,124,464.163702689,9.621726349e-06,465.594440751,1.43074768293,,,,,x,1,1.41728783026,2018_Nov_14_1534,59.9860901603,chinese_cond2,001,1034,
images/peach01.jpg,peach,z,sounds/animalfarm_english.wav,,,,,,,,,0,0,0,1,0,157,157,106,466.724104288,9.94245056063e-06,467.66165406,0.937559715007,,,,,z,1,0.917165152961,2018_Nov_14_1534,59.9860901603,chinese_cond2,001,1034,
images/doll.jpg,carrot,x,sounds/animalfarm_english.wav,,,,,,,,,0,0,0,1,0,158,158,146,468.773697304,9.30111855268e-06,469.645502045,0.871815965627,,,,,x,1,0.850471737911,2018_Nov_14_1534,59.9860901603,chinese_cond2,001,1034,
images/nametag01a.jpg,name tag,z,sounds/animalfarm_english.wav,,,,,,,,,0,0,0,1,0,159,159,108,470.765318051,9.30111855268e-06,472.029451827,1.26414371806,,,,,z,1,1.25057802605,2018_Nov_14_1534,59.9860901603,chinese_cond2,001,1034,
images/chessknight02b (1).jpg,cockroach,x,sounds/animalfarm_english.wav,,,,,,,,,0,0,0,1,0,160,160,155,473.138741649,9.30100213736e-06,474.946900501,1.80816879356,,,,,x,1,1.78404516564,2018_Nov_14_1534,59.9860901603,chinese_cond2,001,1034,
images/rubberglove02a.jpg,lady bug,x,sounds/animalfarm_english.wav,,,,,,,,,0,0,0,1,0,161,161,192,476.05216587,9.621726349e-06,477.280831023,1.22867477522,,,,,x,1,1.21723292221,2018_Nov_14_1534,59.9860901603,chinese_cond2,001,1034,
images/honeycomb.jpg,honey comb,z,sounds/animalfarm_english.wav,,,,,,,,,0,0,0,1,0,162,162,59,478.39392464,9.30111855268e-06,479.648149627,1.25423524971,,,,,z,1,1.23393722577,2018_Nov_14_1534,59.9860901603,chinese_cond2,001,1034,
images/lily.jpg,kiwi,x,sounds/animalfarm_english.wav,,,,,,,,,0,0,0,1,0,163,163,190,480.748528435,8.98027792573e-06,481.865370041,1.11685090698,,,,,x,1,1.10054077383,2018_Nov_14_1534,59.9860901603,chinese_cond2,001,1034,
images/mushroom01.jpg,shower head,x,sounds/animalfarm_english.wav,,,,,,,,,0,0,0,1,0,164,164,222,482.982258473,9.621726349e-06,484.232676778,1.25042888906,,,,,x,1,1.23392503837,2018_Nov_14_1534,59.9860901603,chinese_cond2,001,1034,
images/dolphin01.jpg,dolphin,z,sounds/animalfarm_english.wav,,,,,,,,,0,0,0,1,0,165,165,99,485.332856736,9.30100213736e-06,486.166484014,0.83363721997,,,,,z,1,0.817118295236,2018_Nov_14_1534,59.9860901603,chinese_cond2,001,1034,
images/hammer02a.jpg,flower,x,sounds/animalfarm_english.wav,,,,,,,,,0,0,0,1,0,166,166,176,487.26170621,9.30100213736e-06,488.167014493,0.905317903962,,,,,x,1,0.883806899306,2018_Nov_14_1534,59.9860901603,chinese_cond2,001,1034,
images/tissuebox03.jpg,tissue box,z,sounds/animalfarm_english.wav,,,,,,,,,0,0,0,1,0,167,167,58,489.292488724,9.621726349e-06,490.717676965,1.42519818374,,,,,z,1,1.40060597716,2018_Nov_14_1534,59.9860901603,chinese_cond2,001,1034,
images/beermug01b.jpg,beer mug,z,sounds/animalfarm_english.wav,,,,,,,,,0,0,0,1,0,168,168,111,491.835058992,9.30111855268e-06,493.285030272,1.44998122158,,,,,x,0,1.43393279985,2018_Nov_14_1534,59.9860901603,chinese_cond2,001,1034,
images/diaper01a.jpg,camera,x,sounds/animalfarm_english.wav,,,,,,,,,0,0,0,1,0,169,169,143,494.405507933,8.98027792573e-06,495.702331893,1.29683358141,,,,,x,1,1.28392858221,2018_Nov_14_1534,59.9860901603,chinese_cond2,001,1034,
images/lantern03.jpg,lantern,z,sounds/animalfarm_english.wav,,,,,,,,,0,0,0,1,0,170,170,5,496.809172341,9.30100213736e-06,497.702864937,0.8937025388,,,,,z,1,0.883823256358,2018_Nov_14_1534,59.9860901603,chinese_cond2,001,1034,
images/cheetah.jpg,cheetah,z,sounds/animalfarm_english.wav,,,,,,,,,0,0,0,1,0,171,171,82,498.805800242,8.98039434105e-06,500.086819851,1.28102923126,,,,,z,1,1.26725795469,2018_Nov_14_1534,59.9860901603,chinese_cond2,001,1034,
images/candy.jpg,candy,z,sounds/animalfarm_english.wav,,,,,,,,,0,0,0,1,0,172,172,31,501.189143534,9.621726349e-06,502.187364153,0.998230882571,,,,,z,1,0.983838362503,2018_Nov_14_1534,59.9860901603,chinese_cond2,001,1034,
images/lock02a.jpg,lock,z,sounds/animalfarm_english.wav,,,,,,,,,0,0,0,1,0,173,173,65,503.298304745,9.30100213736e-06,504.171219193,0.872924069408,,,,,z,1,0.850451852893,2018_Nov_14_1534,59.9860901603,chinese_cond2,001,1034,
images/ashtray02b.jpg,ashtray,z,sounds/animalfarm_english.wav,,,,,,,,,0,0,0,1,0,174,174,43,505.284557203,9.94245056063e-06,506.455150662,1.17060340184,,,,,z,1,1.15055361891,2018_Nov_14_1534,59.9860901603,chinese_cond2,001,1034,
images/tank.jpg,wallet,x,sounds/animalfarm_english.wav,,,,,,,,,0,0,0,1,0,175,175,237,507.560253744,9.30100213736e-06,508.605713261,1.04546913842,,,,,x,1,1.0338582634,2018_Nov_14_1534,59.9860901603,chinese_cond2,001,1034,
images/8ball.jpg,nail clipper,x,sounds/animalfarm_english.wav,,,,,,,,,0,0,0,1,0,176,176,206,509.7220029,8.98027792573e-06,511.039805461,1.31781314511,,,,,z,0,1.30062133993,2018_Nov_14_1534,59.9860901603,chinese_cond2,001,1034,
images/teapot.jpg,light switch,x,sounds/animalfarm_english.wav,,,,,,,,,0,0,0,1,0,177,177,197,512.156424163,9.30100213736e-06,514.32387869,2.16746446933,,,,,x,1,2.15078967228,2018_Nov_14_1534,59.9860901603,chinese_cond2,001,1034,
images/kiwi03.jpg,backpack,x,sounds/animalfarm_english.wav,,,,,,,,,0,0,0,1,0,178,178,125,515.452833747,9.62184276432e-06,516.157708987,0.704885182204,,,,,x,1,0.683768348303,2018_Nov_14_1534,59.9860901603,chinese_cond2,001,1034,
images/shotglass.jpg,shot glass,z,sounds/animalfarm_english.wav,,,,,,,,,0,0,0,1,0,179,179,86,517.266445559,8.98027792573e-06,518.474957977,1.20852171897,,,,,z,1,1.18388076231,2018_Nov_14_1534,59.9860901603,chinese_cond2,001,1034,
images/plant01.jpg,plant,z,sounds/animalfarm_english.wav,,,,,,,,,0,0,0,1,0,180,180,47,519.587539076,9.30100213736e-06,520.692208218,1.10467940522,,,,,z,1,1.08384961984,2018_Nov_14_1534,59.9860901603,chinese_cond2,001,1034,
images/birthdaycandle.jpg,birthday candle,z,sounds/animalfarm_english.wav,,,,,,,,,0,0,0,1,0,181,181,55,521.789147895,9.94245056063e-06,522.942803563,1.1536659312,,,,,z,1,1.13377683144,2018_Nov_14_1534,59.9860901603,chinese_cond2,001,1034,
images/coffeepot03b.jpg,coffee pot,z,sounds/animalfarm_english.wav,,,,,,,,,0,0,0,1,0,182,182,107,524.064669001,9.30100213736e-06,525.36011192,1.29545318242,,,,,z,1,1.28392409207,2018_Nov_14_1534,59.9860901603,chinese_cond2,001,1034,
images/ear.jpg,bullet,x,sounds/animalfarm_english.wav,,,,,,,,,0,0,0,1,0,183,183,139,526.464199588,9.621726349e-06,527.310609027,0.846419702284,,,,,x,1,0.833781225374,2018_Nov_14_1534,59.9860901603,chinese_cond2,001,1034,
images/pen03c.jpg,pepper,x,sounds/animalfarm_english.wav,,,,,,,,,0,0,0,1,0,184,184,211,528.404631713,8.98027792573e-06,529.261133717,0.856511625112,,,,,x,1,0.833799827495,2018_Nov_14_1534,59.9860901603,chinese_cond2,001,1034,
images/grasshopper.jpg,cauliflower,x,sounds/animalfarm_english.wav,,,,,,,,,0,0,0,1,0,185,185,148,530.354869034,9.30111855268e-06,531.528624197,1.17376510578,,,,,x,1,1.15077427751,2018_Nov_14_1534,59.9860901603,chinese_cond2,001,1034,
images/bull.jpg,button,x,sounds/animalfarm_english.wav,,,,,,,,,0,0,0,1,0,186,186,141,532.634506961,8.98027792573e-06,533.512242542,0.877744882135,,,,,x,1,0.867131460807,2018_Nov_14_1534,59.9860901603,chinese_cond2,001,1034,
images/pineapple01a.jpg,pineapple,z,sounds/animalfarm_english.wav,,,,,,,,,0,0,0,1,0,187,187,51,534.625567402,9.30100213736e-06,535.646150871,1.02059341117,,,,,z,1,1.000513801,2018_Nov_14_1534,59.9860901603,chinese_cond2,001,1034,
images/barrel01.jpg,barrel,z,sounds/animalfarm_english.wav,,,,,,,,,0,0,0,1,0,188,188,9,536.776657914,9.30100213736e-06,538.513558796,1.73691082478,,,,,z,1,1.71735656145,2018_Nov_14_1534,59.9860901603,chinese_cond2,001,1034,
images/comb02a.jpg,diploma,x,sounds/animalfarm_english.wav,,,,,,,,,0,0,0,1,0,189,189,166,539.617954681,9.30100213736e-06,541.030879052,1.4129343133,,,,,x,1,1.40061239176,2018_Nov_14_1534,59.9860901603,chinese_cond2,001,1034,
images/candle08a.jpg,screw driver,x,sounds/animalfarm_english.wav,,,,,,,,,0,0,0,1,0,190,190,221,542.145409516,9.30111855268e-06,543.59823332,1.45283374691,,,,,x,1,1.43395974068,2018_Nov_14_1534,59.9860901603,chinese_cond2,001,1034,
images/panda.jpg,panda,z,sounds/animalfarm_english.wav,,,,,,,,,0,0,0,1,0,191,191,83,544.708008078,9.30100213736e-06,545.648797812,0.940799675649,,,,,z,1,0.917187282932,2018_Nov_14_1534,59.9860901603,chinese_cond2,001,1034,
images/broadsword.jpg,teapot,x,sounds/animalfarm_english.wav,,,,,,,,,0,0,0,1,0,192,192,231,546.741638627,9.30100213736e-06,547.76581774,1.02418873494,,,,,x,1,1.00033419509,2018_Nov_14_1534,59.9860901603,chinese_cond2,001,1034,
images/button07.jpg,radish,x,sounds/animalfarm_english.wav,,,,,,,,,0,0,0,1,0,193,193,215,548.878645798,9.621726349e-06,550.149949694,1.27131415973,,,,,x,1,1.25057610171,2018_Nov_14_1534,59.9860901603,chinese_cond2,001,1034,
images/drink.jpg,drink,z,sounds/animalfarm_english.wav,,,,,,,,,0,0,0,1,0,194,194,117,551.250120352,9.94245056063e-06,552.017252101,0.767142974888,,,,,z,1,0.75052654976,2018_Nov_14_1534,59.9860901603,chinese_cond2,001,1034,
images/egg01b (1).jpg,egg,z,sounds/animalfarm_english.wav,,,,,,,,,0,0,0,1,0,195,195,19,553.1302046,9.621726349e-06,553.900929428,0.770735091413,,,,,z,1,0.750436105416,2018_Nov_14_1534,59.9860901603,chinese_cond2,001,1034,
images/triangleruler02.jpg,bottle of red wine,x,sounds/animalfarm_english.wav,,,,,,,,,0,0,0,1,0,196,196,134,555.012274775,9.621726349e-06,556.218217868,1.20595303492,,,,,x,1,1.18390193011,2018_Nov_14_1534,59.9860901603,chinese_cond2,001,1034,
images/giraffe.jpg,lettuce,x,sounds/animalfarm_english.wav,,,,,,,,,0,0,0,1,0,197,197,195,557.319600223,9.30111855268e-06,558.36879522,1.04920493963,,,,,x,1,1.03387878975,2018_Nov_14_1534,59.9860901603,chinese_cond2,001,1034,
images/butterfly.jpg,butterfly,z,sounds/animalfarm_english.wav,,,,,,,,,0,0,0,1,0,198,198,91,559.476523755,9.30100213736e-06,560.335955258,0.859441765817,,,,,z,1,0.850472700084,2018_Nov_14_1534,59.9860901603,chinese_cond2,001,1034,
images/swan.jpg,swan,z,sounds/animalfarm_english.wav,,,,,,,,,0,0,0,1,0,199,199,54,561.427939097,8.98027792573e-06,562.336479963,0.908550808672,,,,,x,0,0.883817162481,2018_Nov_14_1534,59.9860901603,chinese_cond2,001,1034,
,,,sounds/animalfarm_english.wav,,,,,,,,,0,0,0,1,,,,,,,,,,,,,,,,2018_Nov_14_1534,59.9860901603,chinese_cond2,001,1034,
images/peach01.jpg,peach,z,sounds/greatgatsby_chinese.wav,,,,,,,,,0,1,1,0,0,0,0,106,583.493234473,9.621726349e-06,584.892404887,1.39918035606,,,,573.339534224,z,1,1.38395074441,2018_Nov_14_1534,59.9860901603,chinese_cond2,001,1034,
images/giraffe.jpg,lettuce,x,sounds/greatgatsby_chinese.wav,,,,,,,,,0,1,1,0,0,1,1,195,585.991310606,1.05838989839e-05,586.692856403,0.701557663502,,,,,x,1,0.68375519861,2018_Nov_14_1534,59.9860901603,chinese_cond2,001,1034,
images/notebook02b.jpg,notebook,z,sounds/greatgatsby_chinese.wav,,,,,,,,,0,1,1,0,0,2,2,7,587.798648402,9.621726349e-06,589.143519485,1.34488134633,,,,,z,1,1.33394559671,2018_Nov_14_1534,59.9860901603,chinese_cond2,001,1034,
images/pen03c.jpg,pepper,x,sounds/greatgatsby_chinese.wav,,,,,,,,,0,1,1,0,0,3,3,211,590.236667234,9.30100213736e-06,591.027415867,0.790758254007,,,,,x,1,0.767201026087,2018_Nov_14_1534,59.9860901603,chinese_cond2,001,1034,
images/microphone01.jpg,diaper,x,sounds/greatgatsby_chinese.wav,,,,,,,,,0,1,1,0,0,4,4,164,592.124980636,9.94245056063e-06,592.977861337,0.852890643524,,,,,x,1,0.833812014898,2018_Nov_14_1534,59.9860901603,chinese_cond2,001,1034,
images/desktopcomputer.jpg,desktop computer,z,sounds/greatgatsby_chinese.wav,,,,,,,,,0,1,1,0,0,5,5,16,594.113393495,9.30100213736e-06,594.878349127,0.764964933507,,,,,z,1,0.750437708921,2018_Nov_14_1534,59.9860901603,chinese_cond2,001,1034,
images/seagull.jpg,seagull,z,sounds/greatgatsby_chinese.wav,,,,,,,,,0,1,1,0,0,6,6,50,595.983922072,9.30100213736e-06,596.812184587,0.828272458166,,,,,z,1,0.817106428323,2018_Nov_14_1534,59.9860901603,chinese_cond2,001,1034,
images/glasses01b.jpg,calculator,x,sounds/greatgatsby_chinese.wav,,,,,,,,,0,1,1,0,0,7,7,142,597.904478247,9.621726349e-06,598.779378301,0.874910317361,,,,,x,1,0.850477831671,2018_Nov_14_1534,59.9860901603,chinese_cond2,001,1034,
images/handbag02a.jpg,candle,x,sounds/greatgatsby_chinese.wav,,,,,,,,,0,1,1,0,0,8,8,144,599.895381212,6.12584408373e-05,600.846609251,0.951264922158,,,,,x,1,0.933853741153,2018_Nov_14_1534,59.9860901603,chinese_cond2,001,1034,
images/parkfountain.jpg,park fountain,z,sounds/greatgatsby_chinese.wav,,,,,,,,,0,1,1,0,0,9,9,93,601.966762018,1.05838989839e-05,602.94697555,0.980224436731,,,,,z,1,0.967006730963,2018_Nov_14_1534,59.9860901603,chinese_cond2,001,1034,
images/redfox.jpg,red fox,z,sounds/greatgatsby_chinese.wav,,,,,,,,,0,1,1,0,0,10,10,1,604.059302315,9.30111855268e-06,604.814283089,0.754990716698,,,,,z,1,0.733769326471,2018_Nov_14_1534,59.9860901603,chinese_cond2,001,1034,
images/8ball.jpg,nail clipper,x,sounds/greatgatsby_chinese.wav,,,,,,,,,0,1,1,0,0,11,11,206,605.929889905,9.621726349e-06,606.731466844,0.801586881513,,,,,x,1,0.783802697901,2018_Nov_14_1534,59.9860901603,chinese_cond2,001,1034,
images/bull.jpg,button,x,sounds/greatgatsby_chinese.wav,,,,,,,,,0,1,1,0,0,12,12,141,607.836119308,9.621726349e-06,608.53192253,0.695813163766,,,,,x,1,0.68371991883,2018_Nov_14_1534,59.9860901603,chinese_cond2,001,1034,
images/mattress.jpg,cat,x,sounds/greatgatsby_chinese.wav,,,,,,,,,0,1,1,0,0,13,13,147,609.635711924,9.94245056063e-06,610.28239616,0.646694499184,,,,,x,1,0.63375454105,2018_Nov_14_1534,59.9860901603,chinese_cond2,001,1034,
images/bed.jpg,bed,z,sounds/greatgatsby_chinese.wav,,,,,,,,,0,1,1,0,0,14,14,103,611.401875405,9.30100213736e-06,612.21622745,0.81436198717,,,,,z,1,0.800461138017,2018_Nov_14_1534,59.9860901603,chinese_cond2,001,1034,
images/gluestick.jpg,squirrel,x,sounds/greatgatsby_chinese.wav,,,,,,,,,0,1,1,0,0,15,15,226,613.323390227,9.94245056063e-06,614.750228917,1.42684895382,,,,,x,1,1.41729392391,2018_Nov_14_1534,59.9860901603,chinese_cond2,001,1034,
images/knife04.jpg,tooth brush,x,sounds/greatgatsby_chinese.wav,,,,,,,,,0,1,1,0,0,16,16,233,615.845673697,9.621726349e-06,616.96749744,1.12183368567,,,,,x,1,1.10055648943,2018_Nov_14_1534,59.9860901603,chinese_cond2,001,1034,
images/parkingmeter.jpg,ear,x,sounds/greatgatsby_chinese.wav,,,,,,,,,0,1,1,0,0,17,17,171,618.069605274,9.30100213736e-06,619.051354757,0.981759104296,,,,,x,1,0.967157150852,2018_Nov_14_1534,59.9860901603,chinese_cond2,001,1034,
images/envelope02a.jpg,grand piano,x,sounds/greatgatsby_chinese.wav,,,,,,,,,0,1,1,0,0,18,18,182,620.174155428,9.621726349e-06,621.668728926,1.49458408263,,,,,x,1,1.48397226492,2018_Nov_14_1534,59.9860901603,chinese_cond2,001,1034,
images/tape01a.jpg,tie,x,sounds/greatgatsby_chinese.wav,,,,,,,,,0,1,1,0,0,19,19,232,622.794757049,9.94245056063e-06,623.869282882,1.07453641645,,,,,x,1,1.0505218351,2018_Nov_14_1534,59.9860901603,chinese_cond2,001,1034,
images/bicycle.jpg,hand bag,x,sounds/greatgatsby_chinese.wav,,,,,,,,,0,1,1,0,0,20,20,186,624.978744292,9.30100213736e-06,625.786448676,0.807714326656,,,,,x,1,0.783787303022,2018_Nov_14_1534,59.9860901603,chinese_cond2,001,1034,
images/snowman.jpg,globe,x,sounds/greatgatsby_chinese.wav,,,,,,,,,0,1,1,0,0,21,21,180,626.897189137,8.98027792573e-06,627.636950562,0.739770726766,,,,,x,1,0.717121149646,2018_Nov_14_1534,59.9860901603,chinese_cond2,001,1034,
images/umbrella01.jpg,umbrella,z,sounds/greatgatsby_chinese.wav,,,,,,,,,0,1,1,0,0,22,22,53,628.749979714,9.94256697595e-06,629.587450556,0.837480784627,,,,,z,1,0.817124709603,2018_Nov_14_1534,59.9860901603,chinese_cond2,001,1034,
images/showerhead01.jpg,skateboard,x,sounds/greatgatsby_chinese.wav,,,,,,,,,0,1,1,0,0,23,23,223,630.694586071,9.621726349e-06,632.138125217,1.44354908797,,,,,x,1,1.43393312057,2018_Nov_14_1534,59.9860901603,chinese_cond2,001,1034,
images/mushroom01.jpg,shower head,x,sounds/greatgatsby_chinese.wav,,,,,,,,,0,1,1,0,0,24,24,222,633.254650267,9.30100213736e-06,634.038713714,0.784073710209,,,,,x,1,0.767201346811,2018_Nov_14_1534,59.9860901603,chinese_cond2,001,1034,
images/camera01a.jpg,bull,x,sounds/greatgatsby_chinese.wav,,,,,,,,,0,1,1,0,0,25,25,138,635.149362768,9.62184276432e-06,635.98912583,0.839772683219,,,,,x,1,0.817127275397,2018_Nov_14_1534,59.9860901603,chinese_cond2,001,1034,
images/flipflop01b.jpg,flip flop,z,sounds/greatgatsby_chinese.wav,,,,,,,,,0,1,1,0,0,26,26,27,637.106576171,9.94245056063e-06,638.02300911,0.91644320183,,,,,z,1,0.900490676751,2018_Nov_14_1534,59.9860901603,chinese_cond2,001,1034,
images/banjo.jpg,knife,x,sounds/greatgatsby_chinese.wav,,,,,,,,,0,1,1,0,0,27,27,191,639.119956163,9.30100213736e-06,639.890152116,0.770205895533,,,,,x,1,0.750434501795,2018_Nov_14_1534,59.9860901603,chinese_cond2,001,1034,
images/cherry01.jpg,highlighter,x,sounds/greatgatsby_chinese.wav,,,,,,,,,0,1,1,0,0,28,28,187,640.997338306,9.30100213736e-06,641.523918524,0.526589840301,,,,,x,1,0.517054374679,2018_Nov_14_1534,59.9860901603,chinese_cond2,001,1034,
images/remotecontrol01c.jpg,remote control,z,sounds/greatgatsby_chinese.wav,,,,,,,,,0,1,1,0,0,29,29,85,642.633573652,9.621726349e-06,644.0245627,1.39099866932,,,,,x,0,1.36726472201,2018_Nov_14_1534,59.9860901603,chinese_cond2,001,1034,
images/baseball01a.jpg,baseball,z,sounds/greatgatsby_chinese.wav,,,,,,,,,0,1,1,0,0,30,30,74,645.157010127,9.30100213736e-06,647.908925094,2.75192490942,,,,,z,1,2.7343007673,2018_Nov_14_1534,59.9860901603,chinese_cond2,001,1034,
images/kiwi03.jpg,backpack,x,sounds/greatgatsby_chinese.wav,,,,,,,,,0,1,1,0,0,31,31,125,649.037377896,9.621726349e-06,649.976135838,0.938768205582,,,,,x,1,0.917151041096,2018_Nov_14_1534,59.9860901603,chinese_cond2,001,1034,
images/rhinoceros01.jpg,envelope,x,sounds/greatgatsby_chinese.wav,,,,,,,,,0,1,1,0,0,32,32,173,651.08798312,8.98027792573e-06,652.576823985,1.48885080824,,,,,x,1,1.46730901406,2018_Nov_14_1534,59.9860901603,chinese_cond2,001,1034,
images/hanger02a.jpg,hanger,z,sounds/greatgatsby_chinese.wav,,,,,,,,,0,1,1,0,0,33,33,88,653.669950567,9.30100213736e-06,655.077479707,1.40753876197,,,,,z,1,1.38394914079,2018_Nov_14_1534,59.9860901603,chinese_cond2,001,1034,
images/apricot.jpg,apricot,z,sounds/greatgatsby_chinese.wav,,,,,,,,,0,1,1,0,0,34,34,32,656.194131123,9.94245056063e-06,656.927967481,0.733846300398,,,,,z,1,0.717118263012,2018_Nov_14_1534,59.9860901603,chinese_cond2,001,1034,
images/tank.jpg,wallet,x,sounds/greatgatsby_chinese.wav,,,,,,,,,0,1,1,0,0,35,35,237,658.032671261,9.94245056063e-06,658.845118522,0.812457203283,,,,,x,1,0.800444460241,2018_Nov_14_1534,59.9860901603,chinese_cond2,001,1034,
images/boxingglove02a.jpg,bracelet,x,sounds/greatgatsby_chinese.wav,,,,,,,,,0,1,1,0,0,36,36,135,659.956259247,9.30100213736e-06,660.912188468,0.955938842962,,,,,x,1,0.933681832743,2018_Nov_14_1534,59.9860901603,chinese_cond2,001,1034,
images/worldmap.jpg,scooter,x,sounds/greatgatsby_chinese.wav,,,,,,,,,0,1,1,0,0,37,37,220,662.043782127,9.621726349e-06,662.846173386,0.802401522291,,,,,x,1,0.783764531719,2018_Nov_14_1534,59.9860901603,chinese_cond2,001,1034,
images/dryingmachine01.jpg,drying machine,z,sounds/greatgatsby_chinese.wav,,,,,,,,,0,1,1,0,0,38,38,18,663.967352152,1.05838989839e-05,665.863641976,1.89630137081,,,,,x,0,1.88408304332,2018_Nov_14_1534,59.9860901603,chinese_cond2,001,1034,
images/lightbulb03b.jpg,treadmill,x,sounds/greatgatsby_chinese.wav,,,,,,,,,0,1,1,0,0,39,39,234,666.965794071,8.98027792573e-06,667.830815484,0.865031034919,,,,,x,1,0.850472058635,2018_Nov_14_1534,59.9860901603,chinese_cond2,001,1034,
images/axe01.jpg,axe,z,sounds/greatgatsby_chinese.wav,,,,,,,,,0,1,1,0,0,40,40,104,668.934055798,8.98039434105e-06,669.848061813,0.914015636663,,,,,z,1,0.900517296745,2018_Nov_14_1534,59.9860901603,chinese_cond2,001,1034,
images/bandaid01.jpg,door handle,x,sounds/greatgatsby_chinese.wav,,,,,,,,,0,1,1,0,0,41,41,170,670.955213364,9.30100213736e-06,673.098871723,2.1436683014,,,,,x,1,2.13415175851,2018_Nov_14_1534,59.9860901603,chinese_cond2,001,1034,
images/donut.jpg,rhinoceros,x,sounds/greatgatsby_chinese.wav,,,,,,,,,0,1,1,0,0,42,42,216,674.225240776,9.30100213736e-06,676.883195598,2.65796412306,,,,,z,0,2.63428149174,2018_Nov_14_1534,59.9860901603,chinese_cond2,001,1034,
images/wallet01.jpg,lamp,x,sounds/greatgatsby_chinese.wav,,,,,,,,,0,1,1,0,0,43,43,193,677.988110736,9.621726349e-06,678.850388991,0.862288838835,,,,,x,1,0.850484887604,2018_Nov_14_1534,59.9860901603,chinese_cond2,001,1034,
images/drink.jpg,drink,z,sounds/greatgatsby_chinese.wav,,,,,,,,,0,1,1,0,0,44,44,117,679.950338669,9.94245056063e-06,681.184315344,1.23398661753,,,,,z,1,1.21721624443,2018_Nov_14_1534,59.9860901603,chinese_cond2,001,1034,
images/diaper01a.jpg,camera,x,sounds/greatgatsby_chinese.wav,,,,,,,,,0,1,1,0,0,45,45,143,682.304898524,8.98039434105e-06,683.018130246,0.713241343154,,,,,x,1,0.700432561338,2018_Nov_14_1534,59.9860901603,chinese_cond2,001,1034,
images/plant01.jpg,plant,z,sounds/greatgatsby_chinese.wav,,,,,,,,,0,1,1,0,0,46,46,47,684.129804656,9.621726349e-06,685.068685436,0.938890722347,,,,,z,1,0.917143985163,2018_Nov_14_1534,59.9860901603,chinese_cond2,001,1034,
images/teapot.jpg,light switch,x,sounds/greatgatsby_chinese.wav,,,,,,,,,0,1,1,0,0,47,47,197,686.185612034,9.94245056063e-06,687.035863755,0.850261663203,,,,,x,1,0.833805279806,2018_Nov_14_1534,59.9860901603,chinese_cond2,001,1034,
images/bottleofredwine02.jpg,pipe,x,sounds/greatgatsby_chinese.wav,,,,,,,,,0,1,1,0,0,48,48,213,688.134402244,9.94245056063e-06,688.802997749,0.668605447398,,,,,x,1,0.650434469804,2018_Nov_14_1534,59.9860901603,chinese_cond2,001,1034,
images/broadsword.jpg,teapot,x,sounds/greatgatsby_chinese.wav,,,,,,,,,0,1,1,0,0,49,49,231,689.895665053,9.621726349e-06,690.653472695,0.757817263249,,,,,x,1,0.733774778782,2018_Nov_14_1534,59.9860901603,chinese_cond2,001,1034,
images/cat.jpg,black olive,x,sounds/greatgatsby_chinese.wav,,,,,,,,,0,1,1,0,0,50,50,133,691.784678918,9.621726349e-06,692.970764021,1.18609536625,,,,,x,1,1.16723643406,2018_Nov_14_1534,59.9860901603,chinese_cond2,001,1034,
images/raisin.jpg,ruler,x,sounds/greatgatsby_chinese.wav,,,,,,,,,0,1,1,0,0,51,51,218,694.076053123,9.94245056063e-06,694.771238308,0.695195768727,,,,,x,1,0.683781497995,2018_Nov_14_1534,59.9860901603,chinese_cond2,001,1034,
images/eyedrops.jpg,bicycle,x,sounds/greatgatsby_chinese.wav,,,,,,,,,0,1,1,0,0,52,52,131,695.872246699,9.621726349e-06,696.638389333,0.766152897733,,,,,x,1,0.750447010039,2018_Nov_14_1534,59.9860901603,chinese_cond2,001,1034,
images/coffeepot03b.jpg,coffee pot,z,sounds/greatgatsby_chinese.wav,,,,,,,,,0,1,1,0,0,53,53,107,697.759706973,9.62184276432e-06,698.622244053,0.862547022291,,,,,z,1,0.850482001202,2018_Nov_14_1534,59.9860901603,chinese_cond2,001,1034,
images/tent.jpg,tent,z,sounds/greatgatsby_chinese.wav,,,,,,,,,0,1,1,0,0,54,54,11,699.749110871,9.62184276432e-06,700.60592077,0.856820162386,,,,,z,1,0.833625994623,2018_Nov_14_1534,59.9860901603,chinese_cond2,001,1034,
images/lily.jpg,kiwi,x,sounds/greatgatsby_chinese.wav,,,,,,,,,0,1,1,0,0,55,55,190,701.705476598,9.94245056063e-06,702.906680342,1.20121368626,,,,,x,1,1.18388204521,2018_Nov_14_1534,59.9860901603,chinese_cond2,001,1034,
images/eraser.jpg,eraser,z,sounds/greatgatsby_chinese.wav,,,,,,,,,0,1,1,0,0,56,56,110,704.013817461,9.30100213736e-06,704.807458068,0.793650549254,,,,,z,1,0.784052542411,2018_Nov_14_1534,59.9860901603,chinese_cond2,001,1034,
images/sportshorts02.jpg,tape,x,sounds/greatgatsby_chinese.wav,,,,,,,,,0,1,1,0,0,57,57,230,705.914589734,9.30100213736e-06,706.791052038,0.8764722466,,,,,x,1,0.867157760309,2018_Nov_14_1534,59.9860901603,chinese_cond2,001,1034,
images/swan.jpg,swan,z,sounds/greatgatsby_chinese.wav,,,,,,,,,0,1,1,0,0,58,58,54,707.883086872,9.621726349e-06,708.924938236,1.04186130641,,,,,z,1,1.03384351009,2018_Nov_14_1534,59.9860901603,chinese_cond2,001,1034,
images/clothespin02a.jpg,clothes pin,z,sounds/greatgatsby_chinese.wav,,,,,,,,,0,1,1,0,0,59,59,79,710.029434187,9.621726349e-06,711.592300555,1.56287663092,,,,,z,1,1.55064900243,2018_Nov_14_1534,59.9860901603,chinese_cond2,001,1034,
images/bench02.jpg,electric toothbrush,x,sounds/greatgatsby_chinese.wav,,,,,,,,,0,1,1,0,0,60,60,172,712.70086586,9.621726349e-06,714.026273766,1.32541881036,,,,,x,1,1.317263423,2018_Nov_14_1534,59.9860901603,chinese_cond2,001,1034,
images/straw.jpg,straw,z,sounds/greatgatsby_chinese.wav,,,,,,,,,0,1,1,0,0,61,61,109,715.117316599,9.30100213736e-06,716.160178567,1.04287158919,,,,,z,1,1.03387205466,2018_Nov_14_1534,59.9860901603,chinese_cond2,001,1034,
images/ashtray02b.jpg,ashtray,z,sounds/greatgatsby_chinese.wav,,,,,,,,,0,1,1,0,0,62,62,43,717.272869995,9.30111855268e-06,718.144020457,0.871160404407,,,,,z,1,0.850470454898,2018_Nov_14_1534,59.9860901603,chinese_cond2,001,1034,
images/hairpin.jpg,hair pin,z,sounds/greatgatsby_chinese.wav,,,,,,,,,0,1,1,0,0,63,63,28,719.234713059,9.30100213736e-06,719.994504382,0.759801266133,,,,,z,1,0.75045085873,2018_Nov_14_1534,59.9860901603,chinese_cond2,001,1034,
images/feather03b.jpg,feather,z,sounds/greatgatsby_chinese.wav,,,,,,,,,0,1,1,0,0,64,64,114,721.094876134,9.94245056063e-06,722.645269199,1.55040396878,,,,,z,1,1.53404604772,2018_Nov_14_1534,59.9860901603,chinese_cond2,001,1034,
images/parkbench03.jpg,park bench,z,sounds/greatgatsby_chinese.wav,,,,,,,,,0,1,1,0,0,65,65,71,723.750948623,9.30100213736e-06,725.279237663,1.52829866135,,,,,z,1,1.51732955652,2018_Nov_14_1534,59.9860901603,chinese_cond2,001,1034,
images/dreamcatcher.jpg,dream catcher,z,sounds/greatgatsby_chinese.wav,,,,,,,,,0,1,1,0,0,66,66,48,726.377707518,9.621726349e-06,727.663177503,1.28547992767,,,,,x,0,1.26724095631,2018_Nov_14_1534,59.9860901603,chinese_cond2,001,1034,
images/radish01.jpg,raisin,x,sounds/greatgatsby_chinese.wav,,,,,,,,,0,1,1,0,0,67,67,214,728.77431951,8.6595537141e-06,730.197198213,1.42288832471,,,,,x,1,1.40063195594,2018_Nov_14_1534,59.9860901603,chinese_cond2,001,1034,
images/battery03b.jpg,battery,z,sounds/greatgatsby_chinese.wav,,,,,,,,,0,1,1,0,0,68,68,34,731.306352049,8.98027792573e-06,732.081012169,0.77467006247,,,,,x,0,0.750453745248,2018_Nov_14_1534,59.9860901603,chinese_cond2,001,1034,
images/medal01.jpg,medal,z,sounds/greatgatsby_chinese.wav,,,,,,,,,0,1,1,0,0,69,69,115,733.182048141,9.621726349e-06,733.981506053,0.79946785362,,,,,z,1,0.783785699401,2018_Nov_14_1534,59.9860901603,chinese_cond2,001,1034,
images/printer03a.jpg,printer,z,sounds/greatgatsby_chinese.wav,,,,,,,,,0,1,1,0,0,70,70,72,735.090889847,9.621726349e-06,735.848703583,0.757823677734,,,,,z,1,0.733811982907,2018_Nov_14_1534,59.9860901603,chinese_cond2,001,1034,
images/leek.jpg,donut,x,sounds/greatgatsby_chinese.wav,,,,,,,,,0,1,1,0,0,71,71,169,736.949234414,9.94256697595e-06,737.782509215,0.83328506432,,,,,x,1,0.817128558294,2018_Nov_14_1534,59.9860901603,chinese_cond2,001,1034,
images/ruler02b.jpg,watermelon,x,sounds/greatgatsby_chinese.wav,,,,,,,,,0,1,1,0,0,72,72,238,738.960300699,9.30100213736e-06,739.899727673,0.939436916495,,,,,x,1,0.917150399648,2018_Nov_14_1534,59.9860901603,chinese_cond2,001,1034,
images/computerkeyboard01a.jpg,computer keyboard,z,sounds/greatgatsby_chinese.wav,,,,,,,,,0,1,1,0,0,73,73,61,741.016517963,9.30100213736e-06,741.883579826,0.86707148538,,,,,z,1,0.850462757633,2018_Nov_14_1534,59.9860901603,chinese_cond2,001,1034,
images/pictureframe04.jpg,picture frame,z,sounds/greatgatsby_chinese.wav,,,,,,,,,0,1,1,0,0,74,74,41,743.005351291,9.621726349e-06,743.750746888,0.745405538706,,,,,z,1,0.7337471965,2018_Nov_14_1534,59.9860901603,chinese_cond2,001,1034,
images/floorlamp.jpg,floor lamp,z,sounds/greatgatsby_chinese.wav,,,,,,,,,0,1,1,0,0,75,75,26,744.843300655,9.30100213736e-06,745.784602906,0.941312193638,,,,,z,1,0.91714141937,2018_Nov_14_1534,59.9860901603,chinese_cond2,001,1034,
images/bowtie.jpg,bowtie,z,sounds/greatgatsby_chinese.wav,,,,,,,,,0,1,1,0,0,76,76,89,746.895162157,9.621726349e-06,747.968521193,1.07336929929,,,,,z,1,1.05053755059,2018_Nov_14_1534,59.9860901603,chinese_cond2,001,1034,
images/gorilla.jpg,gorilla,z,sounds/greatgatsby_chinese.wav,,,,,,,,,0,1,1,0,0,77,77,80,749.079553833,9.30100213736e-06,749.869054847,0.789510314236,,,,,z,1,0.767161897616,2018_Nov_14_1534,59.9860901603,chinese_cond2,001,1034,
images/electrictoothbrush01a.jpg,banjo,x,sounds/greatgatsby_chinese.wav,,,,,,,,,0,1,1,0,0,78,78,127,750.963531358,8.98027792573e-06,752.019565168,1.05604343128,,,,,x,1,1.03385377326,2018_Nov_14_1534,59.9860901603,chinese_cond2,001,1034,
images/lemon02.jpg,lemon,z,sounds/greatgatsby_chinese.wav,,,,,,,,,0,1,1,0,0,79,79,14,753.131401544,9.30100213736e-06,754.020109438,0.888717194321,,,,,z,1,0.867154232343,2018_Nov_14_1534,59.9860901603,chinese_cond2,001,1034,
images/lock02a.jpg,lock,z,sounds/greatgatsby_chinese.wav,,,,,,,,,0,1,1,0,0,80,80,65,755.13053238,9.30100213736e-06,755.820559992,0.690037553664,,,,,z,1,0.667077835766,2018_Nov_14_1534,59.9860901603,chinese_cond2,001,1034,
images/tissuebox03.jpg,tissue box,z,sounds/greatgatsby_chinese.wav,,,,,,,,,0,1,1,0,0,81,81,58,756.946113442,9.621726349e-06,757.921115198,0.97501201916,,,,,z,1,0.950487806113,2018_Nov_14_1534,59.9860901603,chinese_cond2,001,1034,
images/cockroach02.jpg,belt,x,sounds/greatgatsby_chinese.wav,,,,,,,,,0,1,1,0,0,82,82,129,759.019914437,9.621726349e-06,759.888322382,0.868418208323,,,,,x,1,0.850485849776,2018_Nov_14_1534,59.9860901603,chinese_cond2,001,1034,
images/globe.jpg,cloud,x,sounds/greatgatsby_chinese.wav,,,,,,,,,0,1,1,0,0,83,83,154,761.014595218,9.30100213736e-06,762.355629151,1.34104355471,,,,,x,1,1.31726823398,2018_Nov_14_1534,59.9860901603,chinese_cond2,001,1034,
images/safe.jpg,safe,z,sounds/greatgatsby_chinese.wav,,,,,,,,,0,1,1,0,0,84,84,78,763.465096334,9.94245056063e-06,764.322799452,0.857713059755,,,,,z,1,0.833802072448,2018_Nov_14_1534,59.9860901603,chinese_cond2,001,1034,
images/cupcake.jpg,scissors,x,sounds/greatgatsby_chinese.wav,,,,,,,,,0,1,1,0,0,85,85,219,765.44007564,8.98027792573e-06,766.239965246,0.799899228266,,,,,x,1,0.783784737345,2018_Nov_14_1534,59.9860901603,chinese_cond2,001,1034,
images/weight01.jpg,weight,z,sounds/greatgatsby_chinese.wav,,,,,,,,,0,1,1,0,0,86,86,67,767.344924003,9.621726349e-06,768.140461055,0.795546994312,,,,,z,1,0.783729893272,2018_Nov_14_1534,59.9860901603,chinese_cond2,001,1034,
images/broom02.jpg,broom,z,sounds/greatgatsby_chinese.wav,,,,,,,,,0,1,1,0,0,87,87,116,769.233210784,9.621726349e-06,770.45778734,1.22458649764,,,,,x,0,1.2005905183,2018_Nov_14_1534,59.9860901603,chinese_cond2,001,1034,
images/orange.jpg,bat,x,sounds/greatgatsby_chinese.wav,,,,,,,,,0,1,1,0,0,88,88,128,771.582964259,9.30100213736e-06,772.90838756,1.32543324295,,,,,x,1,1.3172621401,2018_Nov_14_1534,59.9860901603,chinese_cond2,001,1034,
images/mirror02.jpg,8 ball,x,sounds/greatgatsby_chinese.wav,,,,,,,,,0,1,1,0,0,89,89,121,774.011255833,9.621726349e-06,775.292336701,1.28109145176,,,,,x,1,1.2672435221,2018_Nov_14_1534,59.9860901603,chinese_cond2,001,1034,
images/nailpolish02b.jpg,nail polish,z,sounds/greatgatsby_chinese.wav,,,,,,,,,0,1,1,0,0,90,90,94,776.401378603,8.98027792573e-06,777.576434305,1.17506532359,,,,,z,1,1.15071430197,2018_Nov_14_1534,59.9860901603,chinese_cond2,001,1034,
images/honeycomb.jpg,honey comb,z,sounds/greatgatsby_chinese.wav,,,,,,,,,0,1,1,0,0,91,91,59,778.689494246,9.62184276432e-06,780.34366163,1.65417764755,,,,,z,1,1.63400181977,2018_Nov_14_1534,59.9860901603,chinese_cond2,001,1034,
images/squirrel.jpg,binder,x,sounds/greatgatsby_chinese.wav,,,,,,,,,0,1,1,0,0,92,92,132,781.445465097,9.30100213736e-06,782.49423353,1.048778055,,,,,x,1,1.03385249048,2018_Nov_14_1534,59.9860901603,chinese_cond2,001,1034,
images/triangleruler02.jpg,bottle of red wine,x,sounds/greatgatsby_chinese.wav,,,,,,,,,0,1,1,0,0,93,93,134,783.604829344,9.94245056063e-06,784.678155666,1.07333594398,,,,,x,1,1.05052824959,2018_Nov_14_1534,59.9860901603,chinese_cond2,001,1034,
images/magnifyingglass01b.jpg,magnifying glass,z,sounds/greatgatsby_chinese.wav,,,,,,,,,0,1,1,0,0,94,94,64,785.785241148,8.6595537141e-06,786.611982787,0.826751261018,,,,,z,1,0.81711605005,2018_Nov_14_1534,59.9860901603,chinese_cond2,001,1034,
images/50dollarbill.jpg,cherry,x,sounds/greatgatsby_chinese.wav,,,,,,,,,0,1,1,0,0,95,95,151,787.732152553,9.30100213736e-06,789.262677685,1.53053507465,,,,,x,1,1.51731127512,2018_Nov_14_1534,59.9860901603,chinese_cond2,001,1034,
images/tie01.jpg,bench,x,sounds/greatgatsby_chinese.wav,,,,,,,,,0,1,1,0,0,96,96,130,790.361348314,9.62184276432e-06,792.380157533,2.01881916227,,,,,x,1,2.00076909782,2018_Nov_14_1534,59.9860901603,chinese_cond2,001,1034,
images/dresser02.jpg,dresser,z,sounds/greatgatsby_chinese.wav,,,,,,,,,0,1,1,0,0,97,97,87,793.502637479,9.621726349e-06,794.397359602,0.894732065033,,,,,z,1,0.883818124654,2018_Nov_14_1534,59.9860901603,chinese_cond2,001,1034,
images/sunglasses03a.jpg,sun glasses,z,sounds/greatgatsby_chinese.wav,,,,,,,,,0,1,1,0,0,98,98,17,795.506007334,9.30100213736e-06,797.914943493,2.40894642263,,,,,z,1,2.40087827248,2018_Nov_14_1534,59.9860901603,chinese_cond2,001,1034,
images/charcoalbarbecue.jpg,charcoal barbecue,z,sounds/greatgatsby_chinese.wav,,,,,,,,,0,1,1,0,0,99,99,77,799.035136351,1.09046231955e-05,800.08218121,1.04705576343,,,,,z,1,1.03379989148,2018_Nov_14_1534,59.9860901603,chinese_cond2,001,1034,
images/cola.jpg,comb,x,sounds/greatgatsby_chinese.wav,,,,,,,,,0,1,1,0,0,100,100,157,801.204255119,1.02631747723e-05,802.382776571,1.178531716,,,,,x,1,1.16719345702,2018_Nov_14_1534,59.9860901603,chinese_cond2,001,1034,
images/calculator02b.jpg,dice,x,sounds/greatgatsby_chinese.wav,,,,,,,,,0,1,1,0,0,101,101,165,803.484631996,8.98027792573e-06,805.250204382,1.76558200782,,,,,x,1,1.75069557165,2018_Nov_14_1534,59.9860901603,chinese_cond2,001,1034,
images/crocodile.jpg,triangle ruler,x,sounds/greatgatsby_chinese.wav,,,,,,,,,0,1,1,0,0,102,102,235,806.345925305,9.94245056063e-06,808.050941022,1.70502630109,,,,,x,1,1.68402300368,2018_Nov_14_1534,59.9860901603,chinese_cond2,001,1034,
images/dice05a.jpg,band aid,x,sounds/greatgatsby_chinese.wav,,,,,,,,,0,1,1,0,0,103,103,126,809.162037487,9.94245056063e-06,810.234850329,1.07282342599,,,,,x,1,1.05052023148,2018_Nov_14_1534,59.9860901603,chinese_cond2,001,1034,
images/watermelon01.jpg,orange,x,sounds/greatgatsby_chinese.wav,,,,,,,,,0,1,1,0,0,104,104,207,811.364340033,9.621726349e-06,812.135349344,0.771019574138,,,,,x,1,0.750439312658,2018_Nov_14_1534,59.9860901603,chinese_cond2,001,1034,
images/dolphin01.jpg,dolphin,z,sounds/greatgatsby_chinese.wav,,,,,,,,,0,1,1,0,0,105,105,99,813.234004899,9.621726349e-06,814.736026266,1.50203130976,,,,,z,1,1.48396809562,2018_Nov_14_1534,59.9860901603,chinese_cond2,001,1034,
images/birthdaycandle.jpg,birthday candle,z,sounds/greatgatsby_chinese.wav,,,,,,,,,0,1,1,0,0,106,106,55,815.832569207,9.30100213736e-06,818.120090547,2.28753128264,,,,,z,1,2.26734294672,2018_Nov_14_1534,59.9860901603,chinese_cond2,001,1034,
images/volleyball.jpg,volley ball,z,sounds/greatgatsby_chinese.wav,,,,,,,,,0,1,1,0,0,107,107,2,819.253367689,9.621726349e-06,820.504068232,1.25071144756,,,,,z,1,1.23376146867,2018_Nov_14_1534,59.9860901603,chinese_cond2,001,1034,
images/puma.jpg,puma,z,sounds/greatgatsby_chinese.wav,,,,,,,,,0,1,1,0,0,108,108,4,821.603372933,9.94245056063e-06,822.521414627,0.918051636079,,,,,z,1,0.900484262151,2018_Nov_14_1534,59.9860901603,chinese_cond2,001,1034,
images/egg01b (1).jpg,egg,z,sounds/greatgatsby_chinese.wav,,,,,,,,,0,1,1,0,0,109,109,19,823.634615687,9.62184276432e-06,824.455249766,0.820644342341,,,,,z,1,0.800447988324,2018_Nov_14_1534,59.9860901603,chinese_cond2,001,1034,
images/doll.jpg,carrot,x,sounds/greatgatsby_chinese.wav,,,,,,,,,0,1,1,0,0,110,110,146,825.566590943,9.30100213736e-06,826.522464359,0.955883036833,,,,,x,1,0.93384155375,2018_Nov_14_1534,59.9860901603,chinese_cond2,001,1034,
images/diploma01.jpg,glasses,x,sounds/greatgatsby_chinese.wav,,,,,,,,,0,1,1,0,0,111,111,179,827.654496448,9.30100213736e-06,828.939746416,1.28525958979,,,,,x,1,1.26723839052,2018_Nov_14_1534,59.9860901603,chinese_cond2,001,1034,
images/lightswitch02a.jpg,fork,x,sounds/greatgatsby_chinese.wav,,,,,,,,,0,1,1,0,0,112,112,177,830.052614564,9.94245056063e-06,830.923626472,0.871022172039,,,,,x,1,0.850483925431,2018_Nov_14_1534,59.9860901603,chinese_cond2,001,1034,
images/acousticguitar02.jpg,acoustic guitar,z,sounds/greatgatsby_chinese.wav,,,,,,,,,0,1,1,0,0,113,113,97,832.03727334,9.621726349e-06,833.357583968,1.32032089145,,,,,z,1,1.30059760623,2018_Nov_14_1534,59.9860901603,chinese_cond2,001,1034,
images/elbow.jpg,elbow,z,sounds/greatgatsby_chinese.wav,,,,,,,,,0,1,1,0,0,114,114,105,834.469192309,9.30100213736e-06,835.308093263,0.838911216706,,,,,z,1,0.817134010606,2018_Nov_14_1534,59.9860901603,chinese_cond2,001,1034,
images/grasshopper.jpg,cauliflower,x,sounds/greatgatsby_chinese.wav,,,,,,,,,0,1,1,0,0,115,115,148,836.400116872,9.30100213736e-06,837.72538879,1.32528154016,,,,,x,1,1.31725540489,2018_Nov_14_1534,59.9860901603,chinese_cond2,001,1034,
images/lighter02b.jpg,stapler,x,sounds/greatgatsby_chinese.wav,,,,,,,,,0,1,1,0,0,116,116,227,838.827231386,9.62184276432e-06,840.02599217,1.19877072645,,,,,x,1,1.18389455345,2018_Nov_14_1534,59.9860901603,chinese_cond2,001,1034,
images/graduationcap.jpg,graduation cap,z,sounds/greatgatsby_chinese.wav,,,,,,,,,0,1,1,0,0,117,117,35,841.128732794,9.621726349e-06,842.126540962,0.997818109929,,,,,z,1,0.98382489197,2018_Nov_14_1534,59.9860901603,chinese_cond2,001,1034,
images/pepper05a.jpg,lighter,x,sounds/greatgatsby_chinese.wav,,,,,,,,,0,1,1,0,0,118,118,198,843.248266242,8.98027792573e-06,844.52700582,1.27874919947,,,,,x,1,1.26706423704,2018_Nov_14_1534,59.9860901603,chinese_cond2,001,1034,
images/lychee02a.jpg,lychee,z,sounds/greatgatsby_chinese.wav,,,,,,,,,0,1,1,0,0,119,119,62,845.651429999,9.621726349e-06,846.477689268,0.82626921183,,,,,z,1,0.8171259925,2018_Nov_14_1534,59.9860901603,chinese_cond2,001,1034,
images/grandpiano.jpg,tulip,x,sounds/greatgatsby_chinese.wav,,,,,,,,,0,1,1,0,0,120,120,236,847.592740589,9.30100213736e-06,848.494902883,0.902171915513,,,,,x,1,0.883828387945,2018_Nov_14_1534,59.9860901603,chinese_cond2,001,1034,
images/screw03c.jpg,screw,z,sounds/greatgatsby_chinese.wav,,,,,,,,,0,1,1,0,0,121,121,84,849.589078555,9.621726349e-06,850.328698862,0.739630570053,,,,,x,0,0.717110886355,2018_Nov_14_1534,59.9860901603,chinese_cond2,001,1034,
images/puzzle.jpg,puzzle,z,sounds/greatgatsby_chinese.wav,,,,,,,,,0,1,1,0,0,122,122,57,851.449350997,9.30111855268e-06,852.245869788,0.796528411913,,,,,z,1,0.783776077791,2018_Nov_14_1534,59.9860901603,chinese_cond2,001,1034,
images/belt02a.jpg,snowman,x,sounds/greatgatsby_chinese.wav,,,,,,,,,0,1,1,0,0,123,123,224,853.349683236,9.30100213736e-06,854.913269952,1.56359794084,,,,,x,1,1.55066920805,2018_Nov_14_1534,59.9860901603,chinese_cond2,001,1034,
images/scooter.jpg,pen,x,sounds/greatgatsby_chinese.wav,,,,,,,,,0,1,1,0,0,124,124,212,856.004320803,9.30100213736e-06,856.647034147,0.642723286175,,,,,x,1,0.633741070633,2018_Nov_14_1534,59.9860901603,chinese_cond2,001,1034,
images/sock03.jpg,sock,z,sounds/greatgatsby_chinese.wav,,,,,,,,,0,1,1,0,0,125,125,90,857.753451879,9.30100213736e-06,858.914288253,1.16084599483,,,,,z,1,1.15055041166,2018_Nov_14_1534,59.9860901603,chinese_cond2,001,1034,
images/bus.jpg,microphone,x,sounds/greatgatsby_chinese.wav,,,,,,,,,0,1,1,0,0,126,126,203,860.033859546,9.621726349e-06,861.832013712,1.79816442844,,,,,x,1,1.78434728831,2018_Nov_14_1534,59.9860901603,chinese_cond2,001,1034,
images/electricguitar02.jpg,electric guitar,z,sounds/greatgatsby_chinese.wav,,,,,,,,,0,1,1,0,0,127,127,100,862.932771616,8.98027792573e-06,864.749159942,1.81639762677,,,,,z,1,1.80072798091,2018_Nov_14_1534,59.9860901603,chinese_cond2,001,1034,
images/headphones02b.jpg,headphones,z,sounds/greatgatsby_chinese.wav,,,,,,,,,0,1,1,0,0,128,128,101,865.857346471,9.94245056063e-06,867.066433628,1.20909774059,,,,,z,1,1.20058025513,2018_Nov_14_1534,59.9860901603,chinese_cond2,001,1034,
images/hammer02a.jpg,flower,x,sounds/greatgatsby_chinese.wav,,,,,,,,,0,1,1,0,0,129,129,176,868.162208433,9.621726349e-06,869.116964123,0.954765311326,,,,,x,1,0.933826800319,2018_Nov_14_1534,59.9860901603,chinese_cond2,001,1034,
images/candy.jpg,candy,z,sounds/greatgatsby_chinese.wav,,,,,,,,,0,1,1,0,0,130,130,31,870.219228792,9.621726349e-06,871.867682145,1.64846297505,,,,,z,1,1.63401176233,2018_Nov_14_1534,59.9860901603,chinese_cond2,001,1034,
images/toothbrush03a.jpg,parrot,x,sounds/greatgatsby_chinese.wav,,,,,,,,,0,1,1,0,0,131,131,210,872.960946317,9.621726349e-06,874.301497239,1.3405611848,,,,,x,1,1.31710145704,2018_Nov_14_1534,59.9860901603,chinese_cond2,001,1034,
images/cake.jpg,cake,z,sounds/greatgatsby_chinese.wav,,,,,,,,,0,1,1,0,0,132,132,23,875.416003969,9.30100213736e-06,876.152164619,0.736169950687,,,,,z,1,0.717131733429,2018_Nov_14_1534,59.9860901603,chinese_cond2,001,1034,
images/carrot02.jpg,corkscrew,x,sounds/greatgatsby_chinese.wav,,,,,,,,,0,1,1,0,0,133,133,161,877.254974199,9.30100213736e-06,878.085973779,0.831009522662,,,,,x,1,0.817122464534,2018_Nov_14_1534,59.9860901603,chinese_cond2,001,1034,
images/bat.jpg,hand,x,sounds/greatgatsby_chinese.wav,,,,,,,,,0,1,1,0,0,134,134,185,879.184050746,9.621726349e-06,880.169860603,0.985819799593,,,,,x,1,0.967166772694,2018_Nov_14_1534,59.9860901603,chinese_cond2,001,1034,
images/bowl02b (1).jpg,bowl,z,sounds/greatgatsby_chinese.wav,,,,,,,,,0,1,1,0,0,135,135,24,881.288045084,8.98027792573e-06,882.037035362,0.748999900301,,,,,z,1,0.733794663684,2018_Nov_14_1534,59.9860901603,chinese_cond2,001,1034,
images/backpack01b.jpg,swallow,x,sounds/greatgatsby_chinese.wav,,,,,,,,,0,1,1,0,0,136,136,228,883.167618417,9.621726349e-06,884.104223014,0.936614218634,,,,,x,1,0.917158097029,2018_Nov_14_1534,59.9860901603,chinese_cond2,001,1034,
images/marker01a.jpg,marker,z,sounds/greatgatsby_chinese.wav,,,,,,,,,0,1,1,0,0,137,137,95,885.20254758,9.621726349e-06,885.988049157,0.785511518945,,,,,z,1,0.767104487983,2018_Nov_14_1534,59.9860901603,chinese_cond2,001,1034,
images/highheelshoe02a.jpg,high heel shoe,z,sounds/greatgatsby_chinese.wav,,,,,,,,,0,1,1,0,0,138,138,75,887.095610594,9.621726349e-06,888.472046759,1.37644642824,,,,,z,1,1.36727883387,2018_Nov_14_1534,59.9860901603,chinese_cond2,001,1034,
images/razor04a.jpg,razor,z,sounds/greatgatsby_chinese.wav,,,,,,,,,0,1,1,0,0,139,139,36,889.572429095,1.02631747723e-05,890.572614794,1.00019628345,,,,,z,1,0.983862096095,2018_Nov_14_1534,59.9860901603,chinese_cond2,001,1034,
images/nametag01a.jpg,name tag,z,sounds/greatgatsby_chinese.wav,,,,,,,,,0,1,1,0,0,140,140,108,891.693351602,9.94245056063e-06,892.539770983,0.846429965459,,,,,z,1,0.83379694086,2018_Nov_14_1534,59.9860901603,chinese_cond2,001,1034,
images/bracelet02a.jpg,chess knight,x,sounds/greatgatsby_chinese.wav,,,,,,,,,0,1,1,0,0,141,141,152,893.64911565,9.621726349e-06,895.540568946,1.89146291825,,,,,x,1,1.8674136987,2018_Nov_14_1534,59.9860901603,chinese_cond2,001,1034,
images/fireextinguisher02.jpg,fire extinguisher,z,sounds/greatgatsby_chinese.wav,,,,,,,,,0,1,1,0,0,142,142,175,896.650979702,9.30100213736e-06,897.657805685,1.00683592597,,,,,z,1,0.983863699716,2018_Nov_14_1534,59.9860901603,chinese_cond2,001,1034,
images/screwdriver02b.jpg,cola,x,sounds/greatgatsby_chinese.wav,,,,,,,,,0,1,1,0,0,143,143,158,898.75176134,8.98027792573e-06,899.691644064,0.93989202485,,,,,x,1,0.91715360689,2018_Nov_14_1534,59.9860901603,chinese_cond2,001,1034,
images/cigar.jpg,crocodile,x,sounds/greatgatsby_chinese.wav,,,,,,,,,0,1,1,0,0,144,144,162,900.790731955,9.621726349e-06,902.342339603,1.55161759094,,,,,x,1,1.53397709201,2018_Nov_14_1534,59.9860901603,chinese_cond2,001,1034,
images/lipstick04.jpg,lipstick,z,sounds/greatgatsby_chinese.wav,,,,,,,,,0,1,1,0,0,145,145,56,903.442577613,9.30100213736e-06,904.209498967,0.766931296559,,,,,z,1,0.75044476497,2018_Nov_14_1534,59.9860901603,chinese_cond2,001,1034,
images/stapler03a.jpg,candy cane,x,sounds/greatgatsby_chinese.wav,,,,,,,,,0,1,1,0,0,146,146,145,905.32152393,8.98027792573e-06,906.376724176,1.05520954705,,,,,x,1,1.03384511371,2018_Nov_14_1534,59.9860901603,chinese_cond2,001,1034,
images/djmixer01.jpg,light bulb,x,sounds/greatgatsby_chinese.wav,,,,,,,,,0,1,1,0,0,147,147,196,907.498211158,9.30100213736e-06,908.593983077,1.09578154038,,,,,x,1,1.08383614942,2018_Nov_14_1534,59.9860901603,chinese_cond2,001,1034,
images/aquarium.jpg,computer mouse,x,sounds/greatgatsby_chinese.wav,,,,,,,,,0,1,1,0,0,148,148,159,909.72974359,9.30100213736e-06,911.594770135,1.86503616651,,,,,x,1,1.85072446894,2018_Nov_14_1534,59.9860901603,chinese_cond2,001,1034,
images/coin01b.jpg,arrow,x,sounds/greatgatsby_chinese.wav,,,,,,,,,0,1,1,0,0,149,149,124,912.697935399,9.30100213736e-06,913.578628062,0.88070324657,,,,,x,1,0.86714108265,2018_Nov_14_1534,59.9860901603,chinese_cond2,001,1034,
images/tulip02.jpg,sport shorts,x,sounds/greatgatsby_chinese.wav,,,,,,,,,0,1,1,0,0,150,150,225,914.673904461,9.621726349e-06,915.545798362,0.871903523454,,,,,x,1,0.850453456631,2018_Nov_14_1534,59.9860901603,chinese_cond2,001,1034,
images/lollipop03b.jpg,lollipop,z,sounds/greatgatsby_chinese.wav,,,,,,,,,0,1,1,0,0,151,151,42,916.639670308,9.30100213736e-06,917.679702201,1.04004151467,,,,,z,1,1.01717769331,2018_Nov_14_1534,59.9860901603,chinese_cond2,001,1034,
images/shotglass.jpg,shot glass,z,sounds/greatgatsby_chinese.wav,,,,,,,,,0,1,1,0,0,152,152,86,918.788726463,9.94256697595e-06,919.863621129,1.07490460854,,,,,z,1,1.05053883349,2018_Nov_14_1534,59.9860901603,chinese_cond2,001,1034,
images/fryingpan01.jpg,frying pan,z,sounds/greatgatsby_chinese.wav,,,,,,,,,0,1,1,0,0,153,153,45,920.964271912,9.30100213736e-06,921.914149699,0.949887730298,,,,,z,1,0.933823913801,2018_Nov_14_1534,59.9860901603,chinese_cond2,001,1034,
images/toucan.jpg,toucan,z,sounds/greatgatsby_chinese.wav,,,,,,,,,0,1,1,0,0,154,154,81,923.015005104,9.94245056063e-06,923.99803075,0.983036230085,,,,,x,0,0.967163886176,2018_Nov_14_1534,59.9860901603,chinese_cond2,001,1034,
images/pouch01b.jpg,pouch,z,sounds/greatgatsby_chinese.wav,,,,,,,,,0,1,1,0,0,155,155,25,925.110493823,9.621726349e-06,925.998544551,0.888060670812,,,,,z,1,0.867132102372,2018_Nov_14_1534,59.9860901603,chinese_cond2,001,1034,
images/fork01.jpg,cooking pot,x,sounds/greatgatsby_chinese.wav,,,,,,,,,0,1,1,0,0,156,156,160,927.093503433,9.621726349e-06,928.765957897,1.67246472754,,,,,x,1,1.65069008723,2018_Nov_14_1534,59.9860901603,chinese_cond2,001,1034,
images/atm.jpg,atm,z,sounds/greatgatsby_chinese.wav,,,,,,,,,0,1,1,0,0,157,157,96,929.902939089,1.02631747723e-05,930.733122104,0.830192957539,,,,,z,1,0.81712214381,2018_Nov_14_1534,59.9860901603,chinese_cond2,001,1034,
images/key03b.jpg,cigar,x,sounds/greatgatsby_chinese.wav,,,,,,,,,0,1,1,0,0,158,158,153,931.834347304,9.62184276432e-06,932.650293351,0.815956309671,,,,,z,0,0.800459534279,2018_Nov_14_1534,59.9860901603,chinese_cond2,001,1034,
images/bullet (2).jpg,rubber glove,x,sounds/greatgatsby_chinese.wav,,,,,,,,,0,1,1,0,0,159,159,217,933.754704951,9.621726349e-06,935.034257566,1.27956255723,,,,,x,1,1.26725378528,2018_Nov_14_1534,59.9860901603,chinese_cond2,001,1034,
images/croissant02b.jpg,croissant,z,sounds/greatgatsby_chinese.wav,,,,,,,,,0,1,1,0,0,160,160,39,936.145853078,9.621726349e-06,937.101455801,0.955612986698,,,,,z,1,0.93380627397,2018_Nov_14_1534,59.9860901603,chinese_cond2,001,1034,
images/computermouse02a.jpg,world map,x,sounds/greatgatsby_chinese.wav,,,,,,,,,0,1,1,0,0,161,161,239,938.203351637,9.30100213736e-06,939.00195161,0.798609915073,,,,,x,1,0.783734383527,2018_Nov_14_1534,59.9860901603,chinese_cond2,001,1034,
images/candle08a.jpg,screw driver,x,sounds/greatgatsby_chinese.wav,,,,,,,,,0,1,1,0,0,162,162,221,940.115616117,9.30100213736e-06,941.635975239,1.5203690643,,,,,x,1,1.5006367988,2018_Nov_14_1534,59.9860901603,chinese_cond2,001,1034,
images/corn01.jpg,corn,z,sounds/greatgatsby_chinese.wav,,,,,,,,,0,1,1,0,0,163,163,22,942.736070526,9.30100213736e-06,943.803222577,1.0671616731,,,,,z,1,1.05052953248,2018_Nov_14_1534,59.9860901603,chinese_cond2,001,1034,
images/blueberry02.jpg,blueberry,z,sounds/greatgatsby_chinese.wav,,,,,,,,,0,1,1,0,0,164,164,46,944.916094253,9.30100213736e-06,945.753738928,0.837654617382,,,,,z,1,0.817137217964,2018_Nov_14_1534,59.9860901603,chinese_cond2,001,1034,
images/butterfly.jpg,butterfly,z,sounds/greatgatsby_chinese.wav,,,,,,,,,0,1,1,0,0,165,165,91,946.863283727,9.62184276432e-06,947.870958989,1.00768488424,,,,,z,1,0.983844776987,2018_Nov_14_1534,59.9860901603,chinese_cond2,001,1034,
images/nailclipper03a.jpg,aquarium,x,sounds/greatgatsby_chinese.wav,,,,,,,,,0,1,1,0,0,166,166,123,948.970744136,9.94256697595e-06,949.988183861,1.01744998863,,,,,x,1,1.00051283883,2018_Nov_14_1534,59.9860901603,chinese_cond2,001,1034,
images/ant.jpg,ant,z,sounds/greatgatsby_chinese.wav,,,,,,,,,0,1,1,0,0,167,167,98,951.083110991,9.30100213736e-06,952.155415484,1.07231443585,,,,,z,1,1.0505295326,2018_Nov_14_1534,59.9860901603,chinese_cond2,001,1034,
images/flower01.jpg,bus,x,sounds/greatgatsby_chinese.wav,,,,,,,,,0,1,1,0,0,168,168,140,953.270279502,9.621726349e-06,954.155945642,0.88567640353,,,,,x,1,0.867151987273,2018_Nov_14_1534,59.9860901603,chinese_cond2,001,1034,
images/corkscrew02a.jpg,masquerade mask,x,sounds/greatgatsby_chinese.wav,,,,,,,,,0,1,1,0,0,169,169,201,955.260990674,9.621726349e-06,957.240081028,1.97910061746,,,,,x,1,1.96742752183,2018_Nov_14_1534,59.9860901603,chinese_cond2,001,1034,
images/gamecontroller01.jpg,game controller,z,sounds/greatgatsby_chinese.wav,,,,,,,,,0,1,1,0,0,170,170,112,958.360986536,9.621726349e-06,959.457346664,1.0963697494,,,,,z,1,1.08389163483,2018_Nov_14_1534,59.9860901603,chinese_cond2,001,1034,
images/hat05.jpg,hat,z,sounds/greatgatsby_chinese.wav,,,,,,,,,0,1,1,0,0,171,171,15,960.561981809,9.30100213736e-06,961.307827382,0.745854874025,,,,,z,1,0.733797870926,2018_Nov_14_1534,59.9860901603,chinese_cond2,001,1034,
images/barrel01.jpg,barrel,z,sounds/greatgatsby_chinese.wav,,,,,,,,,0,1,1,0,0,172,172,9,962.438853999,9.621726349e-06,964.075200637,1.6363562597,,,,,z,1,1.61731772171,2018_Nov_14_1534,59.9860901603,chinese_cond2,001,1034,
images/hand01a.jpg,cupcake,x,sounds/greatgatsby_chinese.wav,,,,,,,,,0,1,1,0,0,173,173,163,965.187676539,8.98027792573e-06,966.442492621,1.25482506235,,,,,x,1,1.23390515335,2018_Nov_14_1534,59.9860901603,chinese_cond2,001,1034,
images/thumbtack02a.jpg,thumb tack,z,sounds/greatgatsby_chinese.wav,,,,,,,,,0,1,1,0,0,174,174,60,967.553215762,9.30100213736e-06,968.759773684,1.20656754344,,,,,x,0,1.18390225084,2018_Nov_14_1534,59.9860901603,chinese_cond2,001,1034,
images/aloe02.jpg,broad sword,x,sounds/greatgatsby_chinese.wav,,,,,,,,,0,1,1,0,0,175,175,137,969.880445705,9.62184276432e-06,971.510491065,1.63005530264,,,,,x,1,1.61734690762,2018_Nov_14_1534,59.9860901603,chinese_cond2,001,1034,
images/leaf01a.jpg,leaf,z,sounds/greatgatsby_chinese.wav,,,,,,,,,0,1,1,0,0,176,176,68,972.613731378,9.30100213736e-06,973.294298253,0.68057713774,,,,,z,1,0.667077515041,2018_Nov_14_1534,59.9860901603,chinese_cond2,001,1034,
images/spoon02b.jpg,spoon,z,sounds/greatgatsby_chinese.wav,,,,,,,,,0,1,1,0,0,177,177,38,974.386436681,1.02631747723e-05,975.094762598,0.708336500451,,,,,x,0,0.700437051477,2018_Nov_14_1534,59.9860901603,chinese_cond2,001,1034,
images/saltshaker03c.jpg,salt shaker,z,sounds/greatgatsby_chinese.wav,,,,,,,,,0,1,1,0,0,178,178,63,976.206458497,9.30100213736e-06,977.428709157,1.22226060217,,,,,z,1,1.20056646399,2018_Nov_14_1534,59.9860901603,chinese_cond2,001,1034,
images/lettuce.jpg,mushroom,x,sounds/greatgatsby_chinese.wav,,,,,,,,,0,1,1,0,0,179,179,205,978.552729864,9.621726349e-06,980.046176657,1.49345705612,,,,,x,1,1.48408163211,2018_Nov_14_1534,59.9860901603,chinese_cond2,001,1034,
images/cloud.jpg,ceiling fan,x,sounds/greatgatsby_chinese.wav,,,,,,,,,0,1,1,0,0,180,180,149,981.152248007,9.621726349e-06,982.546732954,1.39449456835,,,,,x,1,1.38396806363,2018_Nov_14_1534,59.9860901603,chinese_cond2,001,1034,
images/rubberglove02a.jpg,lady bug,x,sounds/greatgatsby_chinese.wav,,,,,,,,,0,1,1,0,0,181,181,192,983.651729556,9.94245056063e-06,985.463981816,1.8122631649,,,,,x,1,1.80055094091,2018_Nov_14_1534,59.9860901603,chinese_cond2,001,1034,
images/paperclip04.jpg,eye drops,x,sounds/greatgatsby_chinese.wav,,,,,,,,,0,1,1,0,0,182,182,174,986.569088427,9.30100213736e-06,988.281559068,1.71248058404,,,,,x,1,1.70069844218,2018_Nov_14_1534,59.9860901603,chinese_cond2,001,1034,
images/lamp04b.jpg,parking meter,x,sounds/greatgatsby_chinese.wav,,,,,,,,,0,1,1,0,0,183,183,209,989.401904271,9.94245056063e-06,991.132310799,1.7304167914,,,,,x,1,1.7173783707,2018_Nov_14_1534,59.9860901603,chinese_cond2,001,1034,
images/banana04a.jpg,banana,z,sounds/greatgatsby_chinese.wav,,,,,,,,,0,1,1,0,0,184,184,118,992.238207996,9.621726349e-06,992.932770333,0.694572600652,,,,,z,1,0.683753274265,2018_Nov_14_1534,59.9860901603,chinese_cond2,001,1034,
images/ladybug03.jpg,giraffe,x,sounds/greatgatsby_chinese.wav,,,,,,,,,0,1,1,0,0,185,185,178,994.036851266,9.94256697595e-06,995.233378844,1.19653784123,,,,,x,1,1.18387146131,2018_Nov_14_1534,59.9860901603,chinese_cond2,001,1034,
images/pingpongpaddle01c (1).jpg,ping pong paddle,z,sounds/greatgatsby_chinese.wav,,,,,,,,,0,1,1,0,0,186,186,10,996.345280328,9.621726349e-06,997.333928278,0.988658213057,,,,,z,1,0.967165169073,2018_Nov_14_1534,59.9860901603,chinese_cond2,001,1034,
images/pipe.jpg,icecube,x,sounds/greatgatsby_chinese.wav,,,,,,,,,0,1,1,0,0,187,187,188,998.442853115,9.94245056063e-06,1000.16799719,1.72515434073,,,,,x,1,1.70067919872,2018_Nov_14_1534,59.9860901603,chinese_cond2,001,1034,
images/chameleon.jpg,50 dollar bill,x,sounds/greatgatsby_chinese.wav,,,,,,,,,0,1,1,0,0,188,188,120,1001.28099908,9.30100213736e-06,1002.11851226,0.837523120223,,,,,x,1,0.817124068155,2018_Nov_14_1534,59.9860901603,chinese_cond2,001,1034,
images/ostrich.jpg,ostrich,z,sounds/greatgatsby_chinese.wav,,,,,,,,,0,1,1,0,0,189,189,76,1003.21929807,9.30100213736e-06,1004.2023962,0.983108072309,,,,,z,1,0.967137266067,2018_Nov_14_1534,59.9860901603,chinese_cond2,001,1034,
images/mitten01.jpg,mitten,z,sounds/greatgatsby_chinese.wav,,,,,,,,,0,1,1,0,0,190,190,102,1005.32364905,9.94245056063e-06,1006.06955556,0.745917094522,,,,,x,0,0.733750083018,2018_Nov_14_1534,59.9860901603,chinese_cond2,001,1034,
images/radio03a.jpg,radio,z,sounds/greatgatsby_chinese.wav,,,,,,,,,0,1,1,0,0,191,191,37,1007.18397858,9.621726349e-06,1007.98672488,0.802756243851,,,,,z,1,0.783786661574,2018_Nov_14_1534,59.9860901603,chinese_cond2,001,1034,
images/icecube02 (2).jpg,aloe,x,sounds/greatgatsby_chinese.wav,,,,,,,,,0,1,1,0,0,192,192,122,1009.09820397,9.94256697595e-06,1010.40403324,1.30584017199,,,,,x,1,1.28391992277,2018_Nov_14_1534,59.9860901603,chinese_cond2,001,1034,
images/arrow02.jpg,hammer,x,sounds/greatgatsby_chinese.wav,,,,,,,,,0,1,1,0,0,193,193,184,1011.50155183,9.621726349e-06,1012.58793196,1.08639008005,,,,,x,1,1.06719502853,2018_Nov_14_1534,59.9860901603,chinese_cond2,001,1034,
images/apple06.jpg,apple,z,sounds/greatgatsby_chinese.wav,,,,,,,,,0,1,1,0,0,194,194,13,1013.71564999,8.98027792573e-06,1014.53844318,0.822802819428,,,,,z,1,0.800452157739,2018_Nov_14_1534,59.9860901603,chinese_cond2,001,1034,
images/handfan01b.jpg,handfan,z,sounds/greatgatsby_chinese.wav,,,,,,,,,0,1,1,0,0,195,195,69,1015.65381812,9.621726349e-06,1016.80570916,1.15190066257,,,,,z,1,1.13388010475,2018_Nov_14_1534,59.9860901603,chinese_cond2,001,1034,
images/paintbrush03a.jpg,paint brush,z,sounds/greatgatsby_chinese.wav,,,,,,,,,0,1,1,0,0,196,196,0,1017.90667585,9.30100213736e-06,1019.20617337,1.29950810457,,,,,z,1,1.28374929714,2018_Nov_14_1534,59.9860901603,chinese_cond2,001,1034,
images/chessknight02b (1).jpg,cockroach,x,sounds/greatgatsby_chinese.wav,,,,,,,,,0,1,1,0,0,197,197,155,1020.31620535,9.62184276432e-06,1021.70700164,1.39080591383,,,,,x,1,1.3672871727,2018_Nov_14_1534,59.9860901603,chinese_cond2,001,1034,
images/flashlight05.jpg,flash light,z,sounds/greatgatsby_chinese.wav,,,,,,,,,0,1,1,0,0,198,198,8,1022.81062266,9.94256697595e-06,1024.07454957,1.26393652987,,,,,z,1,1.25079291163,2018_Nov_14_1534,59.9860901603,chinese_cond2,001,1034,
images/blackolive.jpg,tank,x,sounds/greatgatsby_chinese.wav,,,,,,,,,0,1,1,0,0,199,199,229,1025.18991391,9.30100213736e-06,1026.22484532,1.03494102997,,,,,x,1,1.01717256184,2018_Nov_14_1534,59.9860901603,chinese_cond2,001,1034,
images/treadmill.jpg,lily,x,sounds/greatgatsby_chinese.wav,,,,,,,,,0,1,1,0,0,200,200,199,1027.3314433,8.98027792573e-06,1028.19205443,0.860621711938,,,,,x,1,0.850495150778,2018_Nov_14_1534,59.9860901603,chinese_cond2,001,1034,
images/cactus.jpg,cactus,z,sounds/greatgatsby_chinese.wav,,,,,,,,,0,1,1,0,0,201,201,70,1029.30466247,9.94245056063e-06,1030.8093946,1.50474207476,,,,,z,1,1.48398894269,2018_Nov_14_1534,59.9860901603,chinese_cond2,001,1034,
images/basketball01.jpg,basket ball,z,sounds/greatgatsby_chinese.wav,,,,,,,,,0,1,1,0,0,202,202,33,1031.9489339,9.30100213736e-06,1033.943564,1.99464004906,,,,,z,1,1.98413118406,2018_Nov_14_1534,59.9860901603,chinese_cond2,001,1034,
images/mailbox01.jpg,mail box,z,sounds/greatgatsby_chinese.wav,,,,,,,,,0,1,1,0,0,203,203,73,1035.06344928,9.94245056063e-06,1035.81070861,0.747270552791,,,,,z,1,0.733792739338,2018_Nov_14_1534,59.9860901603,chinese_cond2,001,1034,
images/cheetah.jpg,cheetah,z,sounds/greatgatsby_chinese.wav,,,,,,,,,0,1,1,0,0,204,204,82,1036.91451244,8.98027792573e-06,1038.22798586,1.31348304125,,,,,x,0,1.30057515553,2018_Nov_14_1534,59.9860901603,chinese_cond2,001,1034,
images/highlighter03b.jpg,coin,x,sounds/greatgatsby_chinese.wav,,,,,,,,,0,1,1,0,0,205,205,156,1039.33056516,9.621726349e-06,1040.22851698,0.897962083342,,,,,x,1,0.883815558976,2018_Nov_14_1534,59.9860901603,chinese_cond2,001,1034,
images/cauliflower01.jpg,glue stick,x,sounds/greatgatsby_chinese.wav,,,,,,,,,0,1,1,0,0,206,206,181,1041.34562543,9.30100213736e-06,1042.162355,0.816739198519,,,,,x,1,0.800460817176,2018_Nov_14_1534,59.9860901603,chinese_cond2,001,1034,
images/lion.jpg,lion,z,sounds/greatgatsby_chinese.wav,,,,,,,,,0,1,1,0,0,207,207,44,1043.27496561,9.30100213736e-06,1044.26291695,0.987961599021,,,,,z,1,0.96717254573,2018_Nov_14_1534,59.9860901603,chinese_cond2,001,1034,
images/plate01b.jpg,plate,z,sounds/greatgatsby_chinese.wav,,,,,,,,,0,1,1,0,0,208,208,3,1045.36314469,9.30100213736e-06,1046.34678421,0.983648814145,,,,,z,1,0.967166772694,2018_Nov_14_1534,59.9860901603,chinese_cond2,001,1034,
images/scissors04a.jpg,leek,x,sounds/greatgatsby_chinese.wav,,,,,,,,,0,1,1,0,0,209,209,194,1047.44106604,9.621726349e-06,1048.3306447,0.889589244616,,,,,x,1,0.867146534962,2018_Nov_14_1534,59.9860901603,chinese_cond2,001,1034,
images/panda.jpg,panda,z,sounds/greatgatsby_chinese.wav,,,,,,,,,0,1,1,0,0,210,210,83,1049.43848709,9.30100213736e-06,1050.31449717,0.876020024763,,,,,z,1,0.867143648327,2018_Nov_14_1534,59.9860901603,chinese_cond2,001,1034,
images/cookingpot.jpg,grasshopper,x,sounds/greatgatsby_chinese.wav,,,,,,,,,0,1,1,0,0,211,211,183,1051.42826559,9.621726349e-06,1052.24836054,0.820105204126,,,,,x,1,0.800476853503,2018_Nov_14_1534,59.9860901603,chinese_cond2,001,1034,
images/table02.jpg,table,z,sounds/greatgatsby_chinese.wav,,,,,,,,,0,1,1,0,0,212,212,49,1053.36316875,9.62184276432e-06,1054.53228399,1.16912550246,,,,,x,0,1.15056131629,2018_Nov_14_1534,59.9860901603,chinese_cond2,001,1034,
,,,sounds/greatgatsby_chinese.wav,,,,,,,,,0,1,1,0,,,,,,,,,,,,,,,,2018_Nov_14_1534,59.9860901603,chinese_cond2,001,1034,
