images,name,corrAns,sounds,trials_3.thisRepN,trials_3.thisTrialN,trials_3.thisN,trials_3.thisIndex,trials_4.thisRepN,trials_4.thisTrialN,trials_4.thisN,trials_4.thisIndex,trials_2.thisRepN,trials_2.thisTrialN,trials_2.thisN,trials_2.thisIndex,trials.thisRepN,trials.thisTrialN,trials.thisN,trials.thisIndex,begin_global,begin_routine,end_global,end_routine,key_resp_2.keys,key_resp_2.corr,begin_book,key_resp_1.keys,key_resp_1.corr,key_resp_1.rt,date,frameRate,expName,session,participant,
images/volleyball.jpg,volley ball,z,,0,0,0,0,,,,,,,,,,,,,,,,,,,,,,,2018_Nov_15_1535,59.9886102373,chinese_cond1,001,1037,
images/puma.jpg,puma,z,,,,,,0,0,0,0,,,,,,,,,48.2292252914,1.02629956018e-05,51.0141712727,2.7849568858,None,0,,,,,2018_Nov_15_1535,59.9886102373,chinese_cond1,001,1037,
images/lightbulb03b.jpg,treadmill,x,sounds/animalfarm_chinese.wav,,,,,,,,,0,0,0,1,0,0,0,234,93.2483930394,9.30083990625e-06,96.0084518977,2.76006944199,,,83.0105144391,None,0,,2018_Nov_15_1535,59.9886102373,chinese_cond1,001,1037,
images/atm.jpg,atm,z,sounds/animalfarm_chinese.wav,,,,,,,,,0,0,0,1,0,1,1,96,97.2287717952,9.62155843354e-06,99.3261586441,2.09739647043,,,,z,1,2.08408279928,2018_Nov_15_1535,59.9886102373,chinese_cond1,001,1037,
images/screwdriver02b.jpg,cola,x,sounds/animalfarm_chinese.wav,,,,,,,,,0,0,0,1,0,2,2,158,100.509013797,9.62155843354e-06,102.626939145,2.11793561125,,,,x,1,2.1007332269,2018_Nov_15_1535,59.9886102373,chinese_cond1,001,1037,
images/charcoalbarbecue.jpg,charcoal barbecue,z,sounds/animalfarm_chinese.wav,,,,,,,,,0,0,0,1,0,3,3,77,103.828381224,9.30083990625e-06,105.477638536,1.6492675749,,,,z,1,1.63395678894,2018_Nov_15_1535,59.9886102373,chinese_cond1,001,1037,
images/razor04a.jpg,razor,z,sounds/animalfarm_chinese.wav,,,,,,,,,0,0,0,1,0,4,4,36,106.653447821,9.30083979256e-06,108.061609404,1.40817184617,,,,x,0,1.38390274785,2018_Nov_15_1535,59.9886102373,chinese_cond1,001,1037,
images/pineapple01a.jpg,pineapple,z,sounds/animalfarm_chinese.wav,,,,,,,,,0,0,0,1,0,5,5,51,109.214991158,9.94227707452e-06,110.262135191,1.04715461652,,,,z,1,1.03380887351,2018_Nov_15_1535,59.9886102373,chinese_cond1,001,1037,
images/gluestick.jpg,squirrel,x,sounds/animalfarm_chinese.wav,,,,,,,,,0,0,0,1,0,6,6,226,111.427346971,9.94227707452e-06,112.696061062,1.26872435454,,,,z,0,1.25052838392,2018_Nov_15_1535,59.9886102373,chinese_cond1,001,1037,
images/hammer02a.jpg,flower,x,sounds/animalfarm_chinese.wav,,,,,,,,,0,0,0,1,0,7,7,176,113.813574608,9.30083990625e-06,114.829914901,1.01635023499,,,,x,1,1.00046311768,2018_Nov_15_1535,59.9886102373,chinese_cond1,001,1037,
images/cigar.jpg,crocodile,x,sounds/animalfarm_chinese.wav,,,,,,,,,0,0,0,1,0,8,8,162,115.998054521,8.65940262429e-06,118.09737851,2.09933361086,,,,x,1,2.08405585892,2018_Nov_15_1535,59.9886102373,chinese_cond1,001,1037,
images/dolphin01.jpg,dolphin,z,sounds/animalfarm_chinese.wav,,,,,,,,,0,0,0,1,0,9,9,99,119.265775347,8.98012126527e-06,121.081452907,1.81568718133,,,,z,1,1.80067690871,2018_Nov_15_1535,59.9886102373,chinese_cond1,001,1037,
images/rubberglove02a.jpg,lady bug,x,sounds/animalfarm_chinese.wav,,,,,,,,,0,0,0,1,0,10,10,192,122.257371236,9.30083979256e-06,124.732334658,2.4749730436,,,,x,1,2.45082966699,2018_Nov_15_1535,59.9886102373,chinese_cond1,001,1037,
images/djmixer01.jpg,light bulb,x,sounds/animalfarm_chinese.wav,,,,,,,,,0,0,0,1,0,11,11,196,125.927831256,9.30083979256e-06,127.683186776,1.75536578279,,,,x,1,1.73412362676,2018_Nov_15_1535,59.9886102373,chinese_cond1,001,1037,
images/stapler03a.jpg,candy cane,x,sounds/animalfarm_chinese.wav,,,,,,,,,0,0,0,1,0,12,12,145,128.880160924,9.30083979256e-06,130.867158991,1.98700865106,,,,x,1,1.96737457817,2018_Nov_15_1535,59.9886102373,chinese_cond1,001,1037,
images/chessknight02b (1).jpg,cockroach,x,sounds/animalfarm_chinese.wav,,,,,,,,,0,0,0,1,0,13,13,155,132.040813047,8.98012126527e-06,134.451356287,2.41055254044,,,,x,1,2.40080718461,2018_Nov_15_1535,59.9886102373,chinese_cond1,001,1037,
images/banjo.jpg,knife,x,sounds/animalfarm_chinese.wav,,,,,,,,,0,0,0,1,0,14,14,191,135.613673261,8.98012115158e-06,136.818615984,1.20495234442,,,,x,1,1.18385707752,2018_Nov_15_1535,59.9886102373,chinese_cond1,001,1037,
images/backpack01b.jpg,swallow,x,sounds/animalfarm_chinese.wav,,,,,,,,,0,0,0,1,0,15,15,228,137.964546802,8.98012126527e-06,139.785996976,1.82145979568,,,,x,1,1.80066760787,2018_Nov_15_1535,59.9886102373,chinese_cond1,001,1037,
images/donut.jpg,rhinoceros,x,sounds/animalfarm_chinese.wav,,,,,,,,,0,0,0,1,0,16,16,216,140.925776412,9.30083979256e-06,142.303110842,1.37734469361,,,,x,1,1.3670621341,2018_Nov_15_1535,59.9886102373,chinese_cond1,001,1037,
images/graduationcap.jpg,graduation cap,z,sounds/animalfarm_chinese.wav,,,,,,,,,0,0,0,1,0,17,17,35,143.489963432,9.30083990625e-06,146.437608684,2.94765519413,,,,z,1,2.93427000274,2018_Nov_15_1535,59.9886102373,chinese_cond1,001,1037,
images/notebook02b.jpg,notebook,z,sounds/animalfarm_chinese.wav,,,,,,,,,0,0,0,1,0,18,18,7,147.624639592,9.30083979256e-06,148.588145983,0.963516653955,,,,z,1,0.950469820699,2018_Nov_15_1535,59.9886102373,chinese_cond1,001,1037,
images/scissors04a.jpg,leek,x,sounds/animalfarm_chinese.wav,,,,,,,,,0,0,0,1,0,19,19,194,149.74725096,9.62155843354e-06,151.288803264,1.54156224603,,,,x,1,1.51726364161,2018_Nov_15_1535,59.9886102373,chinese_cond1,001,1037,
images/nailclipper03a.jpg,aquarium,x,sounds/animalfarm_chinese.wav,,,,,,,,,0,0,0,1,0,20,20,123,152.467255592,1.1866588693e-05,154.372874838,1.90562918899,,,,x,1,1.88401756512,2018_Nov_15_1535,59.9886102373,chinese_cond1,001,1037,
images/corn01.jpg,corn,z,sounds/animalfarm_chinese.wav,,,,,,,,,0,0,0,1,0,21,21,22,155.549392912,9.30083990625e-06,156.789977415,1.24059444554,,,,z,1,1.21702900387,2018_Nov_15_1535,59.9886102373,chinese_cond1,001,1037,
images/cherry01.jpg,highlighter,x,sounds/animalfarm_chinese.wav,,,,,,,,,0,0,0,1,0,22,22,187,157.920062168,8.98012126527e-06,159.657497535,1.73744530946,,,,x,1,1.71731283984,2018_Nov_15_1535,59.9886102373,chinese_cond1,001,1037,
images/aquarium.jpg,computer mouse,x,sounds/animalfarm_chinese.wav,,,,,,,,,0,0,0,1,0,23,23,159,160.86245886,9.30083979256e-06,161.958058023,1.09560910559,,,,x,1,1.08382654511,2018_Nov_15_1535,59.9886102373,chinese_cond1,001,1037,
images/egg01b (1).jpg,egg,z,sounds/animalfarm_chinese.wav,,,,,,,,,0,0,0,1,0,24,24,19,163.114656584,9.94227707452e-06,163.89186555,0.777218907774,,,,z,1,0.767081313073,2018_Nov_15_1535,59.9886102373,chinese_cond1,001,1037,
images/masquerademask02b.jpg,mirror,x,sounds/animalfarm_chinese.wav,,,,,,,,,0,0,0,1,0,25,25,204,165.065103634,9.62155843354e-06,166.725890138,1.66079644695,,,,x,1,1.6506389677,2018_Nov_15_1535,59.9886102373,chinese_cond1,001,1037,
images/eraser.jpg,eraser,z,sounds/animalfarm_chinese.wav,,,,,,,,,0,0,0,1,0,26,26,110,167.861703888,8.98012115158e-06,169.443214203,1.58151929539,,,,z,1,1.5672813132,2018_Nov_15_1535,59.9886102373,chinese_cond1,001,1037,
images/highlighter03b.jpg,coin,x,sounds/animalfarm_chinese.wav,,,,,,,,,0,0,0,1,0,27,27,156,170.621987891,9.30083979256e-06,172.060525055,1.43854710619,,,,x,1,1.4172452965,2018_Nov_15_1535,59.9886102373,chinese_cond1,001,1037,
images/computermouse02a.jpg,world map,x,sounds/animalfarm_chinese.wav,,,,,,,,,0,0,0,1,0,28,28,239,173.236602782,8.98012126527e-06,174.811182688,1.57458920756,,,,x,1,1.55060202091,2018_Nov_15_1535,59.9886102373,chinese_cond1,001,1037,
images/showerhead01.jpg,skateboard,x,sounds/animalfarm_chinese.wav,,,,,,,,,0,0,0,1,0,29,29,223,175.987932,9.62155854722e-06,177.711888526,1.72396646823,,,,x,1,1.70063803761,2018_Nov_15_1535,59.9886102373,chinese_cond1,001,1037,
images/corkscrew02a.jpg,masquerade mask,x,sounds/animalfarm_chinese.wav,,,,,,,,,0,0,0,1,0,30,30,201,178.886065033,9.30083979256e-06,181.012713607,2.1266578747,,,,x,1,2.11742534793,2018_Nov_15_1535,59.9886102373,chinese_cond1,001,1037,
images/mailbox01.jpg,mail box,z,sounds/animalfarm_chinese.wav,,,,,,,,,0,0,0,1,0,31,31,73,182.22014254,9.62155831985e-06,183.329929012,1.10979609352,,,,z,1,1.10047119979,2018_Nov_15_1535,59.9886102373,chinese_cond1,001,1037,
images/spoon02b.jpg,spoon,z,sounds/animalfarm_chinese.wav,,,,,,,,,0,0,0,1,0,32,32,38,184.44355192,9.30084001993e-06,185.597145989,1.15360401129,,,,z,1,1.13384197168,2018_Nov_15_1535,59.9886102373,chinese_cond1,001,1037,
images/skateboard.jpg,key,x,sounds/animalfarm_chinese.wav,,,,,,,,,0,0,0,1,0,33,33,189,186.71059603,8.98012126527e-06,187.914381921,1.2037958331,,,,x,1,1.18385098387,2018_Nov_15_1535,59.9886102373,chinese_cond1,001,1037,
images/beermug01b.jpg,beer mug,z,sounds/animalfarm_chinese.wav,,,,,,,,,0,0,0,1,0,34,34,111,189.080512239,9.62155854722e-06,190.698385951,1.61788365483,,,,x,0,1.60061359885,2018_Nov_15_1535,59.9886102373,chinese_cond1,001,1037,
images/safe.jpg,safe,z,sounds/animalfarm_chinese.wav,,,,,,,,,0,0,0,1,0,35,35,78,191.877139754,8.98012126527e-06,193.615756328,1.73862587468,,,,z,1,1.71729552104,2018_Nov_15_1535,59.9886102373,chinese_cond1,001,1037,
images/parkfountain.jpg,park fountain,z,sounds/animalfarm_chinese.wav,,,,,,,,,0,0,0,1,0,36,36,93,194.806096733,9.30084001993e-06,197.799957216,2.99387042583,,,,None,0,,2018_Nov_15_1535,59.9886102373,chinese_cond1,001,1037,
images/desktopcomputer.jpg,desktop computer,z,sounds/animalfarm_chinese.wav,,,,,,,,,0,0,0,1,0,37,37,16,198.961802413,8.98012126527e-06,200.267381826,1.30558967645,,,,z,1,1.28387125328,2018_Nov_15_1535,59.9886102373,chinese_cond1,001,1037,
images/cupcake.jpg,scissors,x,sounds/animalfarm_chinese.wav,,,,,,,,,0,0,0,1,0,38,38,219,201.464481376,9.30083979256e-06,202.467928459,1.00345638451,,,,z,0,0.983808520724,2018_Nov_15_1535,59.9886102373,chinese_cond1,001,1037,
images/knife04.jpg,tooth brush,x,sounds/animalfarm_chinese.wav,,,,,,,,,0,0,0,1,0,39,39,233,203.618466721,9.30084001993e-06,204.585098515,0.96664173614,,,,x,1,0.950455067643,2018_Nov_15_1535,59.9886102373,chinese_cond1,001,1037,
images/bottleofredwine02.jpg,pipe,x,sounds/animalfarm_chinese.wav,,,,,,,,,0,0,0,1,0,40,40,213,205.751839802,9.30083979256e-06,206.985689856,1.23386031678,,,,x,1,1.21719545683,2018_Nov_15_1535,59.9886102373,chinese_cond1,001,1037,
images/highheelshoe02a.jpg,high heel shoe,z,sounds/animalfarm_chinese.wav,,,,,,,,,0,0,0,1,0,41,41,75,208.118929198,9.30083979256e-06,210.103115845,1.98419626953,,,,z,1,1.96738452045,2018_Nov_15_1535,59.9886102373,chinese_cond1,001,1037,
images/bench02.jpg,electric toothbrush,x,sounds/animalfarm_chinese.wav,,,,,,,,,0,0,0,1,0,42,42,172,211.249534477,1.1866588693e-05,213.20386158,1.95433800791,,,,x,1,1.93403170881,2018_Nov_15_1535,59.9886102373,chinese_cond1,001,1037,
images/plant01.jpg,plant,z,sounds/animalfarm_chinese.wav,,,,,,,,,0,0,0,1,0,43,43,47,214.390472989,9.62155854722e-06,215.287713783,0.897250735889,,,,z,1,0.883784402684,2018_Nov_15_1535,59.9886102373,chinese_cond1,001,1037,
images/lantern03.jpg,lantern,z,sounds/animalfarm_chinese.wav,,,,,,,,,0,0,0,1,0,44,44,5,216.464364634,8.98012126527e-06,218.188409358,1.72405466585,,,,z,1,1.7006325854,2018_Nov_15_1535,59.9886102373,chinese_cond1,001,1037,
images/radio03a.jpg,radio,z,sounds/animalfarm_chinese.wav,,,,,,,,,0,0,0,1,0,45,45,37,219.363577526,8.98012126527e-06,220.205568445,0.842000860809,,,,z,1,0.833763844621,2018_Nov_15_1535,59.9886102373,chinese_cond1,001,1037,
images/globe.jpg,cloud,x,sounds/animalfarm_chinese.wav,,,,,,,,,0,0,0,1,0,46,46,154,221.391551245,8.98012126527e-06,222.439442232,1.04790060802,,,,x,1,1.03380791136,2018_Nov_15_1535,59.9886102373,chinese_cond1,001,1037,
images/wallet01.jpg,lamp,x,sounds/animalfarm_chinese.wav,,,,,,,,,0,0,0,1,0,47,47,193,223.582980489,9.62155831985e-06,224.656651159,1.07368093244,,,,x,1,1.05047726137,2018_Nov_15_1535,59.9886102373,chinese_cond1,001,1037,
images/seagull.jpg,seagull,z,sounds/animalfarm_chinese.wav,,,,,,,,,0,0,0,1,0,48,48,50,225.832716378,8.98012126527e-06,228.674296456,2.84159002026,,,,z,1,2.81757942115,2018_Nov_15_1535,59.9886102373,chinese_cond1,001,1037,
images/ear.jpg,bullet,x,sounds/animalfarm_chinese.wav,,,,,,,,,0,0,0,1,0,49,49,139,229.841974241,9.30084001993e-06,231.041549097,1.19958479768,,,,x,1,1.1838567568,2018_Nov_15_1535,59.9886102373,chinese_cond1,001,1037,
images/parkbench03.jpg,park bench,z,sounds/animalfarm_chinese.wav,,,,,,,,,0,0,0,1,0,50,50,71,232.176987926,9.62155854722e-06,234.24231895,2.0653412863,,,,z,1,2.05072261111,2018_Nov_15_1535,59.9886102373,chinese_cond1,001,1037,
images/doll.jpg,carrot,x,sounds/animalfarm_chinese.wav,,,,,,,,,0,0,0,1,0,51,51,146,235.428207779,8.98012126527e-06,236.759593816,1.33139565837,,,,x,1,1.31720899115,2018_Nov_15_1535,59.9886102373,chinese_cond1,001,1037,
images/flamingo.jpg,flamingo,z,sounds/animalfarm_chinese.wav,,,,,,,,,0,0,0,1,0,52,52,52,237.87429049,9.30083979256e-06,239.743651215,1.86937034597,,,,z,1,1.85066667779,2018_Nov_15_1535,59.9886102373,chinese_cond1,001,1037,
images/redfox.jpg,red fox,z,sounds/animalfarm_chinese.wav,,,,,,,,,0,0,0,1,0,53,53,1,240.932740816,8.98012126527e-06,242.444312665,1.51158114919,,,,z,1,1.50058659435,2018_Nov_15_1535,59.9886102373,chinese_cond1,001,1037,
images/ruler02b.jpg,watermelon,x,sounds/animalfarm_chinese.wav,,,,,,,,,0,0,0,1,0,54,54,238,243.628168459,8.6594025106e-06,246.328603482,2.70044432357,,,,x,1,2.68422494177,2018_Nov_15_1535,59.9886102373,chinese_cond1,001,1037,
images/cockroach02.jpg,belt,x,sounds/animalfarm_chinese.wav,,,,,,,,,0,0,0,1,0,55,55,129,247.506466649,9.94227684714e-06,248.612482433,1.1060260462,,,,x,1,1.08382045146,2018_Nov_15_1535,59.9886102373,chinese_cond1,001,1037,
images/mattress.jpg,cat,x,sounds/animalfarm_chinese.wav,,,,,,,,,0,0,0,1,0,56,56,147,249.735044731,8.98012126527e-06,250.763004338,1.02796890825,,,,x,1,1.01710103727,2018_Nov_15_1535,59.9886102373,chinese_cond1,001,1037,
images/volleyball.jpg,volley ball,z,sounds/animalfarm_chinese.wav,,,,,,,,,0,0,0,1,0,57,57,2,251.894816161,9.30083979256e-06,252.763493755,0.868687536041,,,,z,1,0.850433515352,2018_Nov_15_1535,59.9886102373,chinese_cond1,001,1037,
images/candle08a.jpg,screw driver,x,sounds/animalfarm_chinese.wav,,,,,,,,,0,0,0,1,0,58,58,221,253.948141404,8.98012126527e-06,256.080974394,2.13284261247,,,,x,1,2.11741091559,2018_Nov_15_1535,59.9886102373,chinese_cond1,001,1037,
images/nametag01a.jpg,name tag,z,sounds/animalfarm_chinese.wav,,,,,,,,,0,0,0,1,0,59,59,108,257.271492477,9.30083979256e-06,258.898318408,1.62683587353,,,,z,1,1.61728102455,2018_Nov_15_1535,59.9886102373,chinese_cond1,001,1037,
images/gps.jpg,gps,z,sounds/animalfarm_chinese.wav,,,,,,,,,0,0,0,1,0,60,60,21,260.083216218,9.30083979256e-06,261.265563673,1.182357718,,,,z,1,1.16717938883,2018_Nov_15_1535,59.9886102373,chinese_cond1,001,1037,
images/binder03b.jpg,dj mixer,x,sounds/animalfarm_chinese.wav,,,,,,,,,0,0,0,1,0,61,61,167,262.401670238,9.94227707452e-06,264.683100502,2.28144020618,,,,x,1,2.26747996631,2018_Nov_15_1535,59.9886102373,chinese_cond1,001,1037,
images/croissant02b.jpg,croissant,z,sounds/animalfarm_chinese.wav,,,,,,,,,0,0,0,1,0,62,62,39,265.881215447,9.62155854722e-06,266.733573915,0.852368410756,,,,z,1,0.833770258993,2018_Nov_15_1535,59.9886102373,chinese_cond1,001,1037,
images/carrot02.jpg,corkscrew,x,sounds/animalfarm_chinese.wav,,,,,,,,,0,0,0,1,0,63,63,161,267.905585571,9.30083979256e-06,269.184162081,1.27858645195,,,,x,1,1.2672057519,2018_Nov_15_1535,59.9886102373,chinese_cond1,001,1037,
images/electricguitar02.jpg,electric guitar,z,sounds/animalfarm_chinese.wav,,,,,,,,,0,0,0,1,0,64,64,100,270.353242048,8.98012103789e-06,271.251322162,0.898089415067,,,,z,1,0.883766121723,2018_Nov_15_1535,59.9886102373,chinese_cond1,001,1037,
images/calculator02b.jpg,dice,x,sounds/animalfarm_chinese.wav,,,,,,,,,0,0,0,1,0,65,65,165,272.422235678,8.98012126527e-06,273.635236456,1.21301039962,,,,x,1,1.2005119952,2018_Nov_15_1535,59.9886102373,chinese_cond1,001,1037,
images/camera01a.jpg,bull,x,sounds/animalfarm_chinese.wav,,,,,,,,,0,0,0,1,0,66,66,138,274.787942776,9.62155831985e-06,276.35267598,1.5647434668,,,,x,1,1.55070914093,2018_Nov_15_1535,59.9886102373,chinese_cond1,001,1037,
images/puma.jpg,puma,z,sounds/animalfarm_chinese.wav,,,,,,,,,0,0,0,1,0,67,67,4,277.449805933,9.62155854722e-06,278.569783881,1.11998821038,,,,z,1,1.10049685728,2018_Nov_15_1535,59.9886102373,chinese_cond1,001,1037,
images/broadsword.jpg,teapot,x,sounds/animalfarm_chinese.wav,,,,,,,,,0,0,0,1,0,68,68,231,279.734933441,9.62155831985e-06,281.303786917,1.56886341813,,,,x,1,1.5506103596,2018_Nov_15_1535,59.9886102373,chinese_cond1,001,1037,
images/lock02a.jpg,lock,z,sounds/animalfarm_chinese.wav,,,,,,,,,0,0,0,1,0,69,69,65,282.49494323,9.62155854722e-06,283.470970475,0.976037508683,,,,z,1,0.967124417655,2018_Nov_15_1535,59.9886102373,chinese_cond1,001,1037,
images/barrel01.jpg,barrel,z,sounds/animalfarm_chinese.wav,,,,,,,,,0,0,0,1,0,70,70,9,284.692967731,8.6594025106e-06,286.088274592,1.39531680264,,,,z,1,1.38389889923,2018_Nov_15_1535,59.9886102373,chinese_cond1,001,1037,
images/shotglass.jpg,shot glass,z,sounds/animalfarm_chinese.wav,,,,,,,,,0,0,0,1,0,71,71,86,287.266355848,9.30083979256e-06,288.455513121,1.18916689491,,,,z,1,1.16717586092,2018_Nov_15_1535,59.9886102373,chinese_cond1,001,1037,
images/cookingpot.jpg,grasshopper,x,sounds/animalfarm_chinese.wav,,,,,,,,,0,0,0,1,0,72,72,183,289.603033421,9.62155831985e-06,291.372903062,1.76987958299,,,,z,0,1.75065795424,2018_Nov_15_1535,59.9886102373,chinese_cond1,001,1037,
images/snowman.jpg,globe,x,sounds/animalfarm_chinese.wav,,,,,,,,,0,0,0,1,0,73,73,180,292.557080537,1.02629958292e-05,293.623439463,1.0663698309,,,,x,1,1.05048239287,2018_Nov_15_1535,59.9886102373,chinese_cond1,001,1037,
images/handbag02a.jpg,candle,x,sounds/animalfarm_chinese.wav,,,,,,,,,0,0,0,1,0,74,74,144,294.809716042,8.98012126527e-06,295.890834119,1.08112769797,,,,x,1,1.06732461021,2018_Nov_15_1535,59.9886102373,chinese_cond1,001,1037,
images/electrictoothbrush01a.jpg,banjo,x,sounds/animalfarm_chinese.wav,,,,,,,,,0,0,0,1,0,75,75,127,297.051698558,9.30083979256e-06,298.207884354,1.1561954177,,,,x,1,1.13383010509,2018_Nov_15_1535,59.9886102373,chinese_cond1,001,1037,
images/8ball.jpg,nail clipper,x,sounds/animalfarm_chinese.wav,,,,,,,,,0,0,0,1,0,76,76,206,299.390127896,1.12251516384e-05,300.658506837,1.26838888287,,,,x,1,1.25054249554,2018_Nov_15_1535,59.9886102373,chinese_cond1,001,1037,
images/button07.jpg,radish,x,sounds/animalfarm_chinese.wav,,,,,,,,,0,0,0,1,0,77,77,215,301.821031316,9.30084001993e-06,303.692567795,1.87154610106,,,,z,0,1.85068527946,2018_Nov_15_1535,59.9886102373,chinese_cond1,001,1037,
images/diploma01.jpg,glasses,x,sounds/animalfarm_chinese.wav,,,,,,,,,0,0,0,1,0,78,78,179,304.891065357,8.98012126527e-06,306.143157244,1.25210150872,,,,x,1,1.23385486456,2018_Nov_15_1535,59.9886102373,chinese_cond1,001,1037,
images/coffeepot03b.jpg,coffee pot,z,sounds/animalfarm_chinese.wav,,,,,,,,,0,0,0,1,0,79,79,107,307.294327963,8.98012103789e-06,308.460393496,1.16607483392,,,,z,1,1.15050330372,2018_Nov_15_1535,59.9886102373,chinese_cond1,001,1037,
images/parkingmeter.jpg,ear,x,sounds/animalfarm_chinese.wav,,,,,,,,,0,0,0,1,0,80,80,171,309.638417023,9.30083979256e-06,310.694263434,1.05585603326,,,,x,1,1.03381047711,2018_Nov_15_1535,59.9886102373,chinese_cond1,001,1037,
images/flipflop01b.jpg,flip flop,z,sounds/animalfarm_chinese.wav,,,,,,,,,0,0,0,1,0,81,81,27,311.84303614,9.62155854722e-06,312.978161628,1.13513510913,,,,x,0,1.11716941448,2018_Nov_15_1535,59.9886102373,chinese_cond1,001,1037,
images/bed.jpg,bed,z,sounds/animalfarm_chinese.wav,,,,,,,,,0,0,0,1,0,82,82,103,314.16805912,9.30083979256e-06,314.961964376,0.793914556712,,,,z,1,0.783740079371,2018_Nov_15_1535,59.9886102373,chinese_cond1,001,1037,
images/apricot.jpg,apricot,z,sounds/animalfarm_chinese.wav,,,,,,,,,0,0,0,1,0,83,83,32,316.154630311,9.30083979256e-06,317.595962538,1.44134152748,,,,x,0,1.41724144788,2018_Nov_15_1535,59.9886102373,chinese_cond1,001,1037,
images/bus.jpg,microphone,x,sounds/animalfarm_chinese.wav,,,,,,,,,0,0,0,1,0,84,84,203,318.770682342,9.62155831985e-06,319.863162837,1.09249043777,,,,x,1,1.08380858487,2018_Nov_15_1535,59.9886102373,chinese_cond1,001,1037,
images/printer03a.jpg,printer,z,sounds/animalfarm_chinese.wav,,,,,,,,,0,0,0,1,0,85,85,72,320.998302116,8.98012126527e-06,321.863642632,0.865350779571,,,,z,1,0.850427421698,2018_Nov_15_1535,59.9886102373,chinese_cond1,001,1037,
images/tie01.jpg,bench,x,sounds/animalfarm_chinese.wav,,,,,,,,,0,0,0,1,0,86,86,130,323.025441325,9.94227707452e-06,324.681004927,1.65557354431,,,,z,0,1.63396576906,2018_Nov_15_1535,59.9886102373,chinese_cond1,001,1037,
images/bracelet02a.jpg,chess knight,x,sounds/animalfarm_chinese.wav,,,,,,,,,0,0,0,1,0,87,87,152,325.855718958,9.62155831985e-06,327.248295541,1.39258684579,,,,x,1,1.38390114426,2018_Nov_15_1535,59.9886102373,chinese_cond1,001,1037,
images/coin01b.jpg,arrow,x,sounds/animalfarm_chinese.wav,,,,,,,,,0,0,0,1,0,88,88,124,328.423364608,9.30083979256e-06,329.648880788,1.22552580213,,,,x,1,1.2171932118,2018_Nov_15_1535,59.9886102373,chinese_cond1,001,1037,
images/envelope02a.jpg,grand piano,x,sounds/animalfarm_chinese.wav,,,,,,,,,0,0,0,1,0,89,89,182,330.789761892,9.30083979256e-06,332.482908905,1.6931569552,,,,x,1,1.68395168951,2018_Nov_15_1535,59.9886102373,chinese_cond1,001,1037,
images/belt02a.jpg,snowman,x,sounds/animalfarm_chinese.wav,,,,,,,,,0,0,0,1,0,90,90,224,333.655990158,9.62155831985e-06,335.083533088,1.42755415494,,,,x,1,1.41723759925,2018_Nov_15_1535,59.9886102373,chinese_cond1,001,1037,
images/basketball01.jpg,basket ball,z,sounds/animalfarm_chinese.wav,,,,,,,,,0,0,0,1,0,91,91,33,336.290361957,9.94227707452e-06,337.734176545,1.44382421028,,,,z,1,1.43390470424,2018_Nov_15_1535,59.9886102373,chinese_cond1,001,1037,
images/arrow02.jpg,hammer,x,sounds/animalfarm_chinese.wav,,,,,,,,,0,0,0,1,0,92,92,184,338.831519135,9.62155854722e-06,340.11809148,1.28658453277,,,,x,1,1.26719805465,2018_Nov_15_1535,59.9886102373,chinese_cond1,001,1037,
images/headphones02b.jpg,headphones,z,sounds/animalfarm_chinese.wav,,,,,,,,,0,0,0,1,0,93,93,101,341.256875405,9.30083979256e-06,342.085243159,0.82837801692,,,,z,1,0.817082307301,2018_Nov_15_1535,59.9886102373,chinese_cond1,001,1037,
images/boxingglove02a.jpg,bracelet,x,sounds/animalfarm_chinese.wav,,,,,,,,,0,0,0,1,0,94,94,135,343.261314151,9.62155854722e-06,344.602516743,1.34121253445,,,,z,0,1.31720610469,2018_Nov_15_1535,59.9886102373,chinese_cond1,001,1037,
images/cake.jpg,cake,z,sounds/animalfarm_chinese.wav,,,,,,,,,0,0,0,1,0,95,95,23,345.752754171,9.30084001993e-06,346.953102279,1.20035805026,,,,z,1,1.18385387034,2018_Nov_15_1535,59.9886102373,chinese_cond1,001,1037,
images/clothespin02a.jpg,clothes pin,z,sounds/animalfarm_chinese.wav,,,,,,,,,0,0,0,1,0,96,96,79,348.09513797,9.62155831985e-06,350.253898495,2.15877046746,,,,z,1,2.15075699215,2018_Nov_15_1535,59.9886102373,chinese_cond1,001,1037,
images/bullet (2).jpg,rubber glove,x,sounds/animalfarm_chinese.wav,,,,,,,,,0,0,0,1,0,97,97,217,351.430422983,9.62155854722e-06,353.304666969,1.87425392832,,,,x,1,1.8507048433,2018_Nov_15_1535,59.9886102373,chinese_cond1,001,1037,
images/paintbrush03a.jpg,paint brush,z,sounds/animalfarm_chinese.wav,,,,,,,,,0,0,0,1,0,98,98,0,354.475169644,9.30084001993e-06,355.421818423,0.946659042116,,,,z,1,0.933786359068,2018_Nov_15_1535,59.9886102373,chinese_cond1,001,1037,
images/glasses01b.jpg,calculator,x,sounds/animalfarm_chinese.wav,,,,,,,,,0,0,0,1,0,99,99,142,356.602866006,9.94227707452e-06,358.072304087,1.46944802402,,,,x,1,1.450418185,2018_Nov_15_1535,59.9886102373,chinese_cond1,001,1037,
images/axe01.jpg,axe,z,sounds/animalfarm_chinese.wav,,,,,,,,,0,0,0,1,0,100,100,104,359.240479628,9.30083979256e-06,361.039867248,1.79939756215,,,,x,0,1.78401012445,2018_Nov_15_1535,59.9886102373,chinese_cond1,001,1037,
images/flower01.jpg,bus,x,sounds/animalfarm_chinese.wav,,,,,,,,,0,0,0,1,0,101,101,140,362.232863203,9.30084001993e-06,363.340410096,1.10755651543,,,,x,1,1.08381852714,2018_Nov_15_1535,59.9886102373,chinese_cond1,001,1037,
images/magnifyingglass01b.jpg,magnifying glass,z,sounds/animalfarm_chinese.wav,,,,,,,,,0,0,0,1,0,102,102,64,364.479449634,9.30083979256e-06,365.657639614,1.17819928044,,,,z,1,1.16717008799,2018_Nov_15_1535,59.9886102373,chinese_cond1,001,1037,
images/candycane01a.jpg,lip,x,sounds/animalfarm_chinese.wav,,,,,,,,,0,0,0,1,0,103,103,200,366.813656712,8.98012126527e-06,367.774821215,0.961174125192,,,,x,1,0.950457312673,2018_Nov_15_1535,59.9886102373,chinese_cond1,001,1037,
images/bowl02b (1).jpg,bowl,z,sounds/animalfarm_chinese.wav,,,,,,,,,0,0,0,1,0,104,104,24,369.00001347,9.62155831985e-06,369.758641923,0.758638716253,,,,z,1,0.750407152282,2018_Nov_15_1535,59.9886102373,chinese_cond1,001,1037,
images/lamp04b.jpg,parking meter,x,sounds/animalfarm_chinese.wav,,,,,,,,,0,0,0,1,0,105,105,209,370.954282524,8.98012126527e-06,372.826067881,1.8717949787,,,,x,1,1.85069201456,2018_Nov_15_1535,59.9886102373,chinese_cond1,001,1037,
images/medal01.jpg,medal,z,sounds/animalfarm_chinese.wav,,,,,,,,,0,0,0,1,0,106,106,115,374.002788969,9.62155831985e-06,375.460028518,1.45724981222,,,,z,1,1.43389764843,2018_Nov_15_1535,59.9886102373,chinese_cond1,001,1037,
images/cocktailshrimp01.jpg,cocktail shrimp,z,sounds/animalfarm_chinese.wav,,,,,,,,,0,0,0,1,0,107,107,30,376.654316648,8.98012126527e-06,378.010640481,1.35633377571,,,,z,1,1.33387353039,2018_Nov_15_1535,59.9886102373,chinese_cond1,001,1037,
images/floorlamp.jpg,floor lamp,z,sounds/animalfarm_chinese.wav,,,,,,,,,0,0,0,1,0,108,108,26,379.192516801,8.98012126527e-06,380.527928498,1.33542163914,,,,z,1,1.31721251906,2018_Nov_15_1535,59.9886102373,chinese_cond1,001,1037,
images/grasshopper.jpg,cauliflower,x,sounds/animalfarm_chinese.wav,,,,,,,,,0,0,0,1,0,109,109,148,381.694724307,9.30083979256e-06,382.661787788,0.967073102677,,,,x,1,0.950460199141,2018_Nov_15_1535,59.9886102373,chinese_cond1,001,1037,
images/peach01.jpg,peach,z,sounds/animalfarm_chinese.wav,,,,,,,,,0,0,0,1,0,110,110,106,383.892327064,9.62155831985e-06,384.645601761,0.753284639695,,,,z,1,0.733739405862,2018_Nov_15_1535,59.9886102373,chinese_cond1,001,1037,
images/apple06.jpg,apple,z,sounds/animalfarm_chinese.wav,,,,,,,,,0,0,0,1,0,111,111,13,385.848341147,9.62155831985e-06,386.512715852,0.664384646815,,,,z,1,0.650375657714,2018_Nov_15_1535,59.9886102373,chinese_cond1,001,1037,
images/squirrel.jpg,binder,x,sounds/animalfarm_chinese.wav,,,,,,,,,0,0,0,1,0,112,112,132,387.697574533,9.62155854722e-06,388.946642044,1.24907777362,,,,x,1,1.23384877091,2018_Nov_15_1535,59.9886102373,chinese_cond1,001,1037,
images/butterfly.jpg,butterfly,z,sounds/animalfarm_chinese.wav,,,,,,,,,0,0,0,1,0,113,113,91,390.085826546,8.98012103789e-06,391.247204456,1.16138753136,,,,z,1,1.15049785151,2018_Nov_15_1535,59.9886102373,chinese_cond1,001,1037,
images/watermelon01.jpg,orange,x,sounds/animalfarm_chinese.wav,,,,,,,,,0,0,0,1,0,114,114,207,392.39953329,8.6594025106e-06,393.397733738,0.99821006941,,,,x,1,0.983799219884,2018_Nov_15_1535,59.9886102373,chinese_cond1,001,1037,
images/comb02a.jpg,diploma,x,sounds/animalfarm_chinese.wav,,,,,,,,,0,0,0,1,0,115,115,166,394.58004431,9.62155831985e-06,395.931676351,1.35164198309,,,,x,1,1.33388475554,2018_Nov_15_1535,59.9886102373,chinese_cond1,001,1037,
images/tissuebox03.jpg,tissue box,z,sounds/animalfarm_chinese.wav,,,,,,,,,0,0,0,1,0,116,116,58,397.086133153,8.98012126527e-06,398.365448278,1.27932506692,,,,z,1,1.26704122325,2018_Nov_15_1535,59.9886102373,chinese_cond1,001,1037,
images/doorhandle.jpg,doll,x,sounds/animalfarm_chinese.wav,,,,,,,,,0,0,0,1,0,117,117,168,399.480671893,9.62155831985e-06,401.016251774,1.5355901447,,,,x,1,1.51726171729,2018_Nov_15_1535,59.9886102373,chinese_cond1,001,1037,
images/umbrella01.jpg,umbrella,z,sounds/animalfarm_chinese.wav,,,,,,,,,0,0,0,1,0,118,118,53,402.226604379,9.30083979256e-06,403.150111065,0.923516628298,,,,z,1,0.900449904073,2018_Nov_15_1535,59.9886102373,chinese_cond1,001,1037,
images/paperclip04.jpg,eye drops,x,sounds/animalfarm_chinese.wav,,,,,,,,,0,0,0,1,0,119,119,174,404.317694238,9.30083979256e-06,406.2175181,1.8998334829,,,,x,1,1.88402141374,2018_Nov_15_1535,59.9886102373,chinese_cond1,001,1037,
images/saltshaker03c.jpg,salt shaker,z,sounds/animalfarm_chinese.wav,,,,,,,,,0,0,0,1,0,120,120,63,407.401121489,9.30083979256e-06,408.284685558,0.883574011272,,,,z,1,0.867105431113,2018_Nov_15_1535,59.9886102373,chinese_cond1,001,1037,
images/grandpiano.jpg,tulip,x,sounds/animalfarm_chinese.wav,,,,,,,,,0,0,0,1,0,121,121,236,409.476930389,8.98012103789e-06,410.351861034,0.874940586876,,,,x,1,0.850438005412,2018_Nov_15_1535,59.9886102373,chinese_cond1,001,1037,
images/fork01.jpg,cooking pot,x,sounds/animalfarm_chinese.wav,,,,,,,,,0,0,0,1,0,122,122,160,411.51092528,9.30084001993e-06,412.63574672,1.12483106147,,,,z,0,1.10048659428,2018_Nov_15_1535,59.9886102373,chinese_cond1,001,1037,
images/cat.jpg,black olive,x,sounds/animalfarm_chinese.wav,,,,,,,,,0,0,0,1,0,123,123,133,413.791651887,9.62155831985e-06,415.719844593,1.9282029687,,,,x,1,1.91736845245,2018_Nov_15_1535,59.9886102373,chinese_cond1,001,1037,
images/gamecontroller01.jpg,game controller,z,sounds/animalfarm_chinese.wav,,,,,,,,,0,0,0,1,0,124,124,112,416.918694945,9.30083979256e-06,417.770314477,0.851629154348,,,,z,1,0.833746846534,2018_Nov_15_1535,59.9886102373,chinese_cond1,001,1037,
images/lollipop03b.jpg,lollipop,z,sounds/animalfarm_chinese.wav,,,,,,,,,0,0,0,1,0,125,125,42,418.927137541,9.30083979256e-06,420.337615354,1.41048775528,,,,z,1,1.40055445834,2018_Nov_15_1535,59.9886102373,chinese_cond1,001,1037,
images/blackolive.jpg,tank,x,sounds/animalfarm_chinese.wav,,,,,,,,,0,0,0,1,0,126,126,229,421.482169007,3.3034017406e-05,422.954967579,1.47282519104,,,,z,0,1.4506179927,2018_Nov_15_1535,59.9886102373,chinese_cond1,001,1037,
images/key03b.jpg,cigar,x,sounds/animalfarm_chinese.wav,,,,,,,,,0,0,0,1,0,127,127,153,424.123671343,8.6594025106e-06,425.188971898,1.06530985588,,,,x,1,1.0506568638,2018_Nov_15_1535,59.9886102373,chinese_cond1,001,1037,
images/thumbtack02a.jpg,thumb tack,z,sounds/animalfarm_chinese.wav,,,,,,,,,0,0,0,1,0,128,128,60,426.340473278,9.30083979256e-06,427.639401308,1.29893765166,,,,z,1,1.28387285688,2018_Nov_15_1535,59.9886102373,chinese_cond1,001,1037,
images/remotecontrol01c.jpg,remote control,z,sounds/animalfarm_chinese.wav,,,,,,,,,0,0,0,1,0,129,129,85,428.774791389,8.98012126527e-06,429.739923502,0.965142376615,,,,z,1,0.950463406327,2018_Nov_15_1535,59.9886102373,chinese_cond1,001,1037,
images/bandaid01.jpg,door handle,x,sounds/animalfarm_chinese.wav,,,,,,,,,0,0,0,1,0,130,130,170,430.953543909,8.98012103789e-06,432.740651533,1.78711852926,,,,x,1,1.76733307719,2018_Nov_15_1535,59.9886102373,chinese_cond1,001,1037,
images/nailpolish02b.jpg,nail polish,z,sounds/animalfarm_chinese.wav,,,,,,,,,0,0,0,1,0,131,131,94,433.938271288,3.20718613693e-05,435.307931243,1.36968689524,,,,z,1,1.35054352184,2018_Nov_15_1535,59.9886102373,chinese_cond1,001,1037,
images/cheetah.jpg,cheetah,z,sounds/animalfarm_chinese.wav,,,,,,,,,0,0,0,1,0,132,132,82,436.504207828,9.30084001993e-06,437.625167816,1.12096993006,,,,z,1,1.10049974375,2018_Nov_15_1535,59.9886102373,chinese_cond1,001,1037,
images/radish01.jpg,raisin,x,sounds/animalfarm_chinese.wav,,,,,,,,,0,0,0,1,0,133,133,214,438.805776335,8.98012126527e-06,440.309149012,1.50338261923,,,,z,0,1.48391532002,2018_Nov_15_1535,59.9886102373,chinese_cond1,001,1037,
images/drink.jpg,drink,z,sounds/animalfarm_chinese.wav,,,,,,,,,0,0,0,1,0,134,134,117,441.478071506,8.98012126527e-06,442.359665401,0.881603516102,,,,z,1,0.867119542732,2018_Nov_15_1535,59.9886102373,chinese_cond1,001,1037,
images/bowtie.jpg,bowtie,z,sounds/animalfarm_chinese.wav,,,,,,,,,0,0,0,1,0,135,135,89,443.601113278,8.98012103789e-06,444.810248756,1.20914509887,,,,z,1,1.20052995544,2018_Nov_15_1535,59.9886102373,chinese_cond1,001,1037,
images/bicycle.jpg,hand bag,x,sounds/animalfarm_chinese.wav,,,,,,,,,0,0,0,1,0,136,136,186,445.948475592,9.62155854722e-06,446.960774831,1.01230950116,,,,x,1,1.00042687648,2018_Nov_15_1535,59.9886102373,chinese_cond1,001,1037,
images/ostrich.jpg,ostrich,z,sounds/animalfarm_chinese.wav,,,,,,,,,0,0,0,1,0,137,137,76,448.124164608,9.62155854722e-06,449.761453664,1.63729963906,,,,z,1,1.61728743893,2018_Nov_15_1535,59.9886102373,chinese_cond1,001,1037,
images/lightswitch02a.jpg,fork,x,sounds/animalfarm_chinese.wav,,,,,,,,,0,0,0,1,0,138,138,177,450.946273538,9.62155831985e-06,451.961991316,1.01572804088,,,,x,1,1.00047241852,2018_Nov_15_1535,59.9886102373,chinese_cond1,001,1037,
images/blueberry02.jpg,blueberry,z,sounds/animalfarm_chinese.wav,,,,,,,,,0,0,0,1,0,139,139,46,453.140200218,9.30083979256e-06,453.879118909,0.738928953771,,,,z,1,0.717062037884,2018_Nov_15_1535,59.9886102373,chinese_cond1,001,1037,
images/cactus.jpg,cactus,z,sounds/animalfarm_chinese.wav,,,,,,,,,0,0,0,1,0,140,140,70,455.066799594,8.98012103789e-06,455.912947667,0.846158336214,,,,x,0,0.833753902344,2018_Nov_15_1535,59.9886102373,chinese_cond1,001,1037,
images/baseball01a.jpg,baseball,z,sounds/animalfarm_chinese.wav,,,,,,,,,0,0,0,1,0,141,141,74,457.113139906,9.30084001993e-06,458.830336325,1.71720636126,,,,z,1,1.70064573486,2018_Nov_15_1535,59.9886102373,chinese_cond1,001,1037,
images/50dollarbill.jpg,cherry,x,sounds/animalfarm_chinese.wav,,,,,,,,,0,0,0,1,0,142,142,151,460.021160693,8.98012126527e-06,460.980853099,0.959701706031,,,,x,1,0.95045570908,2018_Nov_15_1535,59.9886102373,chinese_cond1,001,1037,
images/sock03.jpg,sock,z,sounds/animalfarm_chinese.wav,,,,,,,,,0,0,0,1,0,143,143,90,462.173586064,9.30083979256e-06,463.048022802,0.87444668021,,,,z,1,0.850435439663,2018_Nov_15_1535,59.9886102373,chinese_cond1,001,1037,
images/computerkeyboard01a.jpg,computer keyboard,z,sounds/animalfarm_chinese.wav,,,,,,,,,0,0,0,1,0,144,144,61,464.232987641,9.94227707452e-06,465.28189723,1.04891953106,,,,z,1,1.03381528789,2018_Nov_15_1535,59.9886102373,chinese_cond1,001,1037,
images/birthdaycandle.jpg,birthday candle,z,sounds/animalfarm_chinese.wav,,,,,,,,,0,0,0,1,0,145,145,55,466.44579695,9.62155854722e-06,467.63247122,1.18668645714,,,,z,1,1.16718003026,2018_Nov_15_1535,59.9886102373,chinese_cond1,001,1037,
images/hand01a.jpg,cupcake,x,sounds/animalfarm_chinese.wav,,,,,,,,,0,0,0,1,0,146,146,163,468.817645489,9.30083979256e-06,470.266456232,1.44882164774,,,,x,1,1.43391945729,2018_Nov_15_1535,59.9886102373,chinese_cond1,001,1037,
images/scooter.jpg,pen,x,sounds/animalfarm_chinese.wav,,,,,,,,,0,0,0,1,0,147,147,212,471.429951527,9.30083979256e-06,473.000437139,1.57049587588,,,,x,1,1.5506000966,2018_Nov_15_1535,59.9886102373,chinese_cond1,001,1037,
images/leek.jpg,donut,x,sounds/animalfarm_chinese.wav,,,,,,,,,0,0,0,1,0,148,148,169,474.185717245,9.30083979256e-06,475.634418303,1.4487106791,,,,x,1,1.43391240148,2018_Nov_15_1535,59.9886102373,chinese_cond1,001,1037,
images/tent.jpg,tent,z,sounds/animalfarm_chinese.wav,,,,,,,,,0,0,0,1,0,149,149,11,476.828231449,9.30083979256e-06,478.335083602,1.50686177477,,,,z,1,1.48392494158,2018_Nov_15_1535,59.9886102373,chinese_cond1,001,1037,
images/weight01.jpg,weight,z,sounds/animalfarm_chinese.wav,,,,,,,,,0,0,0,1,0,150,150,67,479.511042983,9.94227707452e-06,480.685649895,1.17461749494,,,,z,1,1.15050683163,2018_Nov_15_1535,59.9886102373,chinese_cond1,001,1037,
images/ladybug03.jpg,giraffe,x,sounds/animalfarm_chinese.wav,,,,,,,,,0,0,0,1,0,151,151,178,481.84911921,9.62155831985e-06,483.002879091,1.15377046425,,,,z,0,1.13383748161,2018_Nov_15_1535,59.9886102373,chinese_cond1,001,1037,
images/dreamcatcher.jpg,dream catcher,z,sounds/animalfarm_chinese.wav,,,,,,,,,0,0,0,1,0,152,152,48,484.184045339,9.62155854722e-06,485.536821383,1.35278598639,,,,z,1,1.33387096464,2018_Nov_15_1535,59.9886102373,chinese_cond1,001,1037,
images/flashlight05.jpg,flash light,z,sounds/animalfarm_chinese.wav,,,,,,,,,0,0,0,1,0,153,153,8,486.754261869,9.30083979256e-06,487.63757674,0.88332449219,,,,z,1,0.867345007918,2018_Nov_15_1535,59.9886102373,chinese_cond1,001,1037,
images/banana04a.jpg,banana,z,sounds/animalfarm_chinese.wav,,,,,,,,,0,0,0,1,0,154,154,118,488.815417457,9.30083979256e-06,490.137942359,1.32253484447,,,,z,1,1.30053803755,2018_Nov_15_1535,59.9886102373,chinese_cond1,001,1037,
images/orange.jpg,bat,x,sounds/animalfarm_chinese.wav,,,,,,,,,0,0,0,1,0,155,155,128,491.289954644,9.62155854722e-06,492.188444957,0.898500255613,,,,x,1,0.883770932502,2018_Nov_15_1535,59.9886102373,chinese_cond1,001,1037,
images/cloud.jpg,ceiling fan,x,sounds/animalfarm_chinese.wav,,,,,,,,,0,0,0,1,0,156,156,149,493.368240775,9.62155854722e-06,495.305868702,1.9376375482,,,,x,1,1.91735498227,2018_Nov_15_1535,59.9886102373,chinese_cond1,001,1037,
images/sunglasses03a.jpg,sun glasses,z,sounds/animalfarm_chinese.wav,,,,,,,,,0,0,0,1,0,157,157,17,496.490775491,8.98012126527e-06,497.356370979,0.865605430151,,,,z,1,0.85043383607,2018_Nov_15_1535,59.9886102373,chinese_cond1,001,1037,
images/parrot01.jpg,chameleon,x,sounds/animalfarm_chinese.wav,,,,,,,,,0,0,0,1,0,158,158,150,498.469298248,9.30083979256e-06,499.423542286,0.954253979637,,,,x,1,0.933779623977,2018_Nov_15_1535,59.9886102373,chinese_cond1,001,1037,
images/chameleon.jpg,50 dollar bill,x,sounds/animalfarm_chinese.wav,,,,,,,,,0,0,0,1,0,159,159,120,500.640332675,9.30083979256e-06,501.657427619,1.01710488589,,,,x,1,1.00046889062,2018_Nov_15_1535,59.9886102373,chinese_cond1,001,1037,
images/lion.jpg,lion,z,sounds/animalfarm_chinese.wav,,,,,,,,,0,0,0,1,0,160,160,44,502.805400773,9.30083979256e-06,503.624569997,0.819178844887,,,,z,1,0.800427389626,2018_Nov_15_1535,59.9886102373,chinese_cond1,001,1037,
images/screw03c.jpg,screw,z,sounds/animalfarm_chinese.wav,,,,,,,,,0,0,0,1,0,161,161,84,504.787647394,9.30083979256e-06,505.841767057,1.05412960496,,,,z,1,1.03379508261,2018_Nov_15_1535,59.9886102373,chinese_cond1,001,1037,
images/lychee02a.jpg,lychee,z,sounds/animalfarm_chinese.wav,,,,,,,,,0,0,0,1,0,162,162,62,507.018151711,9.62155854722e-06,507.908936119,0.890794349451,,,,z,1,0.867103186083,2018_Nov_15_1535,59.9886102373,chinese_cond1,001,1037,
images/puzzle.jpg,puzzle,z,sounds/animalfarm_chinese.wav,,,,,,,,,0,0,0,1,0,163,163,57,509.094245089,9.62155831985e-06,511.043040759,1.94880561181,,,,x,0,1.93403299168,2018_Nov_15_1535,59.9886102373,chinese_cond1,001,1037,
images/toothbrush03a.jpg,parrot,x,sounds/animalfarm_chinese.wav,,,,,,,,,0,0,0,1,0,164,164,210,512.208442404,9.62155831985e-06,513.126877246,0.918444463402,,,,z,0,0.90044605545,2018_Nov_15_1535,59.9886102373,chinese_cond1,001,1037,
images/beachumbrella01.jpg,beach umbrella,z,sounds/animalfarm_chinese.wav,,,,,,,,,0,0,0,1,0,165,165,92,514.305158631,1.09044331111e-05,515.64416398,1.33901625338,,,,z,1,1.31709128742,2018_Nov_15_1535,59.9886102373,chinese_cond1,001,1037,
images/panda.jpg,panda,z,sounds/animalfarm_chinese.wav,,,,,,,,,0,0,0,1,0,166,166,83,516.788202237,9.94227707452e-06,517.594627386,0.806435090722,,,,z,1,0.78373815506,2018_Nov_15_1535,59.9886102373,chinese_cond1,001,1037,
images/rhinoceros01.jpg,envelope,x,sounds/animalfarm_chinese.wav,,,,,,,,,0,0,0,1,0,167,167,173,518.78233437,9.62155831985e-06,520.728723367,1.94639893932,,,,x,1,1.9340281809,2018_Nov_15_1535,59.9886102373,chinese_cond1,001,1037,
images/candy.jpg,candy,z,sounds/animalfarm_chinese.wav,,,,,,,,,0,0,0,1,0,168,168,31,521.906850806,9.62155854722e-06,522.745882454,0.83904126943,,,,z,1,0.817088721673,2018_Nov_15_1535,59.9886102373,chinese_cond1,001,1037,
images/dryingmachine01.jpg,drying machine,z,sounds/animalfarm_chinese.wav,,,,,,,,,0,0,0,1,0,169,169,18,523.930415927,9.30083979256e-06,524.963093947,1.03268764124,,,,z,1,1.01713695775,2018_Nov_15_1535,59.9886102373,chinese_cond1,001,1037,
images/pen03c.jpg,pepper,x,sounds/animalfarm_chinese.wav,,,,,,,,,0,0,0,1,0,170,170,211,526.123955179,9.30083979256e-06,527.613740612,1.48979537511,,,,x,1,1.46725238438,2018_Nov_15_1535,59.9886102373,chinese_cond1,001,1037,
images/lipstick04.jpg,lipstick,z,sounds/animalfarm_chinese.wav,,,,,,,,,0,0,0,1,0,171,171,56,528.780156049,9.30083979256e-06,529.79761565,1.01747018439,,,,z,1,1.0004858887,2018_Nov_15_1535,59.9886102373,chinese_cond1,001,1037,
images/diaper01a.jpg,camera,x,sounds/animalfarm_chinese.wav,,,,,,,,,0,0,0,1,0,172,172,143,530.972225768,8.98012126527e-06,532.264868675,1.2926531704,,,,x,1,1.28387125329,2018_Nov_15_1535,59.9886102373,chinese_cond1,001,1037,
images/broom02.jpg,broom,z,sounds/animalfarm_chinese.wav,,,,,,,,,0,0,0,1,0,173,173,116,533.381061822,9.62155854722e-06,534.98219723,1.60114567104,,,,z,1,1.58394489028,2018_Nov_15_1535,59.9886102373,chinese_cond1,001,1037,
images/microphone01.jpg,diaper,x,sounds/animalfarm_chinese.wav,,,,,,,,,0,0,0,1,0,174,174,164,536.120429198,9.62155831985e-06,537.316104116,1.19568421789,,,,x,1,1.1838480974,2018_Nov_15_1535,59.9886102373,chinese_cond1,001,1037,
images/lemon02.jpg,lemon,z,sounds/animalfarm_chinese.wav,,,,,,,,,0,0,0,1,0,175,175,14,538.478302424,9.62155831985e-06,539.149886241,0.671593439123,,,,z,1,0.650390731489,2018_Nov_15_1535,59.9886102373,chinese_cond1,001,1037,
images/ashtray02b.jpg,ashtray,z,sounds/animalfarm_chinese.wav,,,,,,,,,0,0,0,1,0,176,176,43,540.347053141,8.98012103789e-06,542.684070355,2.33702683581,,,,z,1,2.31745754808,2018_Nov_15_1535,59.9886102373,chinese_cond1,001,1037,
images/elbow.jpg,elbow,z,sounds/animalfarm_chinese.wav,,,,,,,,,0,0,0,1,0,177,177,105,543.82259065,8.98012126527e-06,544.984630202,1.16204917386,,,,z,1,1.1504891921,2018_Nov_15_1535,59.9886102373,chinese_cond1,001,1037,
images/triangleruler02.jpg,bottle of red wine,x,sounds/animalfarm_chinese.wav,,,,,,,,,0,0,0,1,0,178,178,134,546.174928271,9.30083979256e-06,547.285207688,1.11028903803,,,,x,1,1.10050455453,2018_Nov_15_1535,59.9886102373,chinese_cond1,001,1037,
images/raisin.jpg,ruler,x,sounds/animalfarm_chinese.wav,,,,,,,,,0,0,0,1,0,179,179,218,548.422319706,9.30083979256e-06,549.585753102,1.16344301696,,,,x,1,1.15050683163,2018_Nov_15_1535,59.9886102373,chinese_cond1,001,1037,
images/honeycomb.jpg,honey comb,z,sounds/animalfarm_chinese.wav,,,,,,,,,0,0,0,1,0,180,180,59,550.770370603,9.30083979256e-06,551.75294564,0.982584979208,,,,z,1,0.967129549153,2018_Nov_15_1535,59.9886102373,chinese_cond1,001,1037,
images/mushroom01.jpg,shower head,x,sounds/animalfarm_chinese.wav,,,,,,,,,0,0,0,1,0,181,181,222,552.968498055,9.62155831985e-06,554.30357396,1.33508648819,,,,x,1,1.31722021631,2018_Nov_15_1535,59.9886102373,chinese_cond1,001,1037,
images/feather03b.jpg,feather,z,sounds/animalfarm_chinese.wav,,,,,,,,,0,0,0,1,0,182,182,114,555.465868163,9.30084001993e-06,556.320726633,0.85486841236,,,,z,1,0.833765768932,2018_Nov_15_1535,59.9886102373,chinese_cond1,001,1037,
images/eyedrops.jpg,bicycle,x,sounds/animalfarm_chinese.wav,,,,,,,,,0,0,0,1,0,183,183,131,557.491079853,9.30083979256e-06,558.521266531,1.03019661975,,,,x,1,1.01714176853,2018_Nov_15_1535,59.9886102373,chinese_cond1,001,1037,
images/straw.jpg,straw,z,sounds/animalfarm_chinese.wav,,,,,,,,,0,0,0,1,0,184,184,109,559.643608816,9.62155854722e-06,560.838490275,1.19489172219,,,,z,1,1.18381666698,2018_Nov_15_1535,59.9886102373,chinese_cond1,001,1037,
images/worldmap.jpg,scooter,x,sounds/animalfarm_chinese.wav,,,,,,,,,0,0,0,1,0,185,185,220,561.98903014,9.62155854722e-06,563.555816906,1.56679670737,,,,x,1,1.55060330379,2018_Nov_15_1535,59.9886102373,chinese_cond1,001,1037,
,,,sounds/animalfarm_chinese.wav,,,,,,,,,0,0,0,1,,,,,,,,,,,,,,,2018_Nov_15_1535,59.9886102373,chinese_cond1,001,1037,
images/binder03b.jpg,dj mixer,x,sounds/greatgatsby_english.wav,,,,,,,,,0,1,1,0,0,0,0,167,584.695529632,9.62155854722e-06,587.211597955,2.51607890704,,,574.558689582,z,0,2.50085503583,2018_Nov_15_1535,59.9886102373,chinese_cond1,001,1037,
images/aquarium.jpg,computer mouse,x,sounds/greatgatsby_english.wav,,,,,,,,,0,1,1,0,0,1,1,159,588.34646815,9.30083979256e-06,591.162551098,2.81609321109,,,,x,1,2.80091135402,2018_Nov_15_1535,59.9886102373,chinese_cond1,001,1037,
images/aloe02.jpg,broad sword,x,sounds/greatgatsby_english.wav,,,,,,,,,0,1,1,0,0,2,2,137,592.341444414,9.62155831985e-06,595.130171026,2.78873815827,,,,x,1,2.7675659189,2018_Nov_15_1535,59.9886102373,chinese_cond1,001,1037,
images/stapler03a.jpg,candy cane,x,sounds/greatgatsby_english.wav,,,,,,,,,0,1,1,0,0,3,3,145,596.239966158,9.62155831985e-06,598.764394974,2.52443907918,,,,x,1,2.50084413139,2018_Nov_15_1535,59.9886102373,chinese_cond1,001,1037,
images/panda.jpg,panda,z,sounds/greatgatsby_english.wav,,,,,,,,,0,1,1,0,0,4,4,83,599.872765153,9.94227707452e-06,600.531490719,0.65873582985,,,,z,1,0.650395221549,2018_Nov_15_1535,59.9886102373,chinese_cond1,001,1037,
images/mitten01.jpg,mitten,z,sounds/greatgatsby_english.wav,,,,,,,,,0,1,1,0,0,5,5,102,601.682417692,9.62155854722e-06,602.948742751,1.26633564229,,,,x,0,1.25052870464,2018_Nov_15_1535,59.9886102373,chinese_cond1,001,1037,
images/diploma01.jpg,glasses,x,sounds/greatgatsby_english.wav,,,,,,,,,0,1,1,0,0,6,6,179,604.078805695,9.30083979256e-06,605.299306157,1.22051008371,,,,x,1,1.20051456095,2018_Nov_15_1535,59.9886102373,chinese_cond1,001,1037,
images/gamecontroller01.jpg,game controller,z,sounds/greatgatsby_english.wav,,,,,,,,,0,1,1,0,0,7,7,112,606.418736638,8.98012126527e-06,607.23311657,0.81438955381,,,,z,1,0.800424823877,2018_Nov_15_1535,59.9886102373,chinese_cond1,001,1037,
images/gps.jpg,gps,z,sounds/greatgatsby_english.wav,,,,,,,,,0,1,1,0,0,8,8,21,608.350112155,9.62155831985e-06,609.400310071,1.05020817845,,,,z,1,1.03380598705,2018_Nov_15_1535,59.9886102373,chinese_cond1,001,1037,
images/50dollarbill.jpg,cherry,x,sounds/greatgatsby_english.wav,,,,,,,,,0,1,1,0,0,9,9,151,610.518973072,8.98012126527e-06,611.284113717,0.765149945574,,,,x,1,0.75042382965,2018_Nov_15_1535,59.9886102373,chinese_cond1,001,1037,
images/mushroom01.jpg,shower head,x,sounds/greatgatsby_english.wav,,,,,,,,,0,1,1,0,0,10,10,222,612.399343104,9.62155854722e-06,613.484646558,1.08531403805,,,,x,1,1.06715911941,2018_Nov_15_1535,59.9886102373,chinese_cond1,001,1037,
images/mailbox01.jpg,mail box,z,sounds/greatgatsby_english.wav,,,,,,,,,0,1,1,0,0,11,11,73,614.603231304,9.30083979256e-06,615.318417138,0.715195134827,,,,z,1,0.700401026556,2018_Nov_15_1535,59.9886102373,chinese_cond1,001,1037,
images/graduationcap.jpg,graduation cap,z,sounds/greatgatsby_english.wav,,,,,,,,,0,1,1,0,0,12,12,35,616.419524644,9.30083979256e-06,617.252228834,0.832714132594,,,,z,1,0.817100267543,2018_Nov_15_1535,59.9886102373,chinese_cond1,001,1037,
images/cake.jpg,cake,z,sounds/greatgatsby_english.wav,,,,,,,,,0,1,1,0,0,13,13,23,618.365840838,8.98012126527e-06,619.186025456,0.820193919303,,,,z,1,0.8004148816,2018_Nov_15_1535,59.9886102373,chinese_cond1,001,1037,
images/sock03.jpg,sock,z,sounds/greatgatsby_english.wav,,,,,,,,,0,1,1,0,0,14,14,90,620.29122052,9.30083979256e-06,621.103152407,0.811941508622,,,,z,1,0.800416805912,2018_Nov_15_1535,59.9886102373,chinese_cond1,001,1037,
images/hat05.jpg,hat,z,sounds/greatgatsby_english.wav,,,,,,,,,0,1,1,0,0,15,15,15,622.285620453,9.30084001993e-06,623.05364083,0.768030640174,,,,z,1,0.750415811684,2018_Nov_15_1535,59.9886102373,chinese_cond1,001,1037,
images/doll.jpg,carrot,x,sounds/greatgatsby_english.wav,,,,,,,,,0,1,1,0,0,16,16,146,624.163503312,9.62155854722e-06,625.254185859,1.09069248922,,,,x,1,1.06717162744,2018_Nov_15_1535,59.9886102373,chinese_cond1,001,1037,
images/pouch01b.jpg,pouch,z,sounds/greatgatsby_english.wav,,,,,,,,,0,1,1,0,0,17,17,25,626.447195284,9.30084001993e-06,627.454711966,1.00752630374,,,,z,1,0.983801144196,2018_Nov_15_1535,59.9886102373,chinese_cond1,001,1037,
images/bed.jpg,bed,z,sounds/greatgatsby_english.wav,,,,,,,,,0,1,1,0,0,18,18,103,628.573064832,9.30083979256e-06,629.205130664,0.632075453544,,,,z,1,0.617031505473,2018_Nov_15_1535,59.9886102373,chinese_cond1,001,1037,
images/corn01.jpg,corn,z,sounds/greatgatsby_english.wav,,,,,,,,,0,1,1,0,0,19,19,22,630.304015589,9.30083979256e-06,630.905560876,0.601555228708,,,,z,1,0.583717500781,2018_Nov_15_1535,59.9886102373,chinese_cond1,001,1037,
images/radish01.jpg,raisin,x,sounds/greatgatsby_english.wav,,,,,,,,,0,1,1,0,0,20,20,214,632.015255302,9.30084001993e-06,632.839355574,0.824109893592,,,,z,0,0.800433162561,2018_Nov_15_1535,59.9886102373,chinese_cond1,001,1037,
images/rhinoceros01.jpg,envelope,x,sounds/greatgatsby_english.wav,,,,,,,,,0,1,1,0,0,21,21,173,633.950718057,9.62155854722e-06,634.739821193,0.789112757609,,,,x,1,0.767091896788,2018_Nov_15_1535,59.9886102373,chinese_cond1,001,1037,
images/lychee02a.jpg,lychee,z,sounds/greatgatsby_english.wav,,,,,,,,,0,1,1,0,0,22,22,62,635.862596448,9.30083979256e-06,636.806979992,0.944392844383,,,,z,1,0.93378571763,2018_Nov_15_1535,59.9886102373,chinese_cond1,001,1037,
images/highlighter03b.jpg,coin,x,sounds/greatgatsby_english.wav,,,,,,,,,0,1,1,0,0,23,23,156,637.908309114,9.30084001993e-06,638.774207039,0.865908188524,,,,x,1,0.850506318477,2018_Nov_15_1535,59.9886102373,chinese_cond1,001,1037,
images/arrow02.jpg,hammer,x,sounds/greatgatsby_english.wav,,,,,,,,,0,1,1,0,0,24,24,184,639.869904984,9.30083979256e-06,641.541474369,1.6715793275,,,,x,1,1.65063319476,2018_Nov_15_1535,59.9886102373,chinese_cond1,001,1037,
images/safe.jpg,safe,z,sounds/greatgatsby_english.wav,,,,,,,,,0,1,1,0,0,25,25,78,642.651471233,9.62155854722e-06,643.358574316,0.70711302573,,,,z,1,0.683717885643,2018_Nov_15_1535,59.9886102373,chinese_cond1,001,1037,
images/skateboard.jpg,key,x,sounds/greatgatsby_english.wav,,,,,,,,,0,1,1,0,0,26,26,189,644.448971744,9.30083979256e-06,645.475762974,1.02680117178,,,,x,1,1.01714690003,2018_Nov_15_1535,59.9886102373,chinese_cond1,001,1037,
images/orange.jpg,bat,x,sounds/greatgatsby_english.wav,,,,,,,,,0,1,1,0,0,27,27,128,646.599315009,8.98012126527e-06,647.826327342,1.22702227519,,,,x,1,1.21718711814,2018_Nov_15_1535,59.9886102373,chinese_cond1,001,1037,
images/hairdryer03a.jpg,hairdryer,z,sounds/greatgatsby_english.wav,,,,,,,,,0,1,1,0,0,28,28,119,648.954253659,9.30084001993e-06,649.710126177,0.755882460476,,,,z,1,0.733738443707,2018_Nov_15_1535,59.9886102373,chinese_cond1,001,1037,
images/headphones02b.jpg,headphones,z,sounds/greatgatsby_english.wav,,,,,,,,,0,1,1,0,0,29,29,101,650.817272493,8.6594025106e-06,651.493889028,0.676625514192,,,,z,1,0.667045328445,2018_Nov_15_1535,59.9886102373,chinese_cond1,001,1037,
images/lock02a.jpg,lock,z,sounds/greatgatsby_english.wav,,,,,,,,,0,1,1,0,0,30,30,65,652.603651125,9.30083979256e-06,653.294326359,0.690684856116,,,,z,1,0.667055912159,2018_Nov_15_1535,59.9886102373,chinese_cond1,001,1037,
images/cherry01.jpg,highlighter,x,sounds/greatgatsby_english.wav,,,,,,,,,0,1,1,0,0,31,31,187,654.402169597,9.62155854722e-06,655.111440097,0.709280762848,,,,x,1,0.700402950868,2018_Nov_15_1535,59.9886102373,chinese_cond1,001,1037,
images/pepper05a.jpg,lighter,x,sounds/greatgatsby_english.wav,,,,,,,,,0,1,1,0,0,32,32,198,656.303165685,9.62155854722e-06,657.395337008,1.09218094431,,,,x,1,1.08383360092,2018_Nov_15_1535,59.9886102373,chinese_cond1,001,1037,
images/parkbench03.jpg,park bench,z,sounds/greatgatsby_english.wav,,,,,,,,,0,1,1,0,0,33,33,71,658.500436498,9.30083979256e-06,659.812596095,1.31216921884,,,,z,1,1.30055888426,2018_Nov_15_1535,59.9886102373,chinese_cond1,001,1037,
images/feather03b.jpg,feather,z,sounds/greatgatsby_english.wav,,,,,,,,,0,1,1,0,0,34,34,114,660.912946384,8.6594025106e-06,661.69639493,0.783458167709,,,,x,0,0.767098952597,2018_Nov_15_1535,59.9886102373,chinese_cond1,001,1037,
images/button07.jpg,radish,x,sounds/greatgatsby_english.wav,,,,,,,,,0,1,1,0,0,35,35,215,662.807820595,9.30083979256e-06,663.930256209,1.12244555641,,,,x,1,1.10050263021,2018_Nov_15_1535,59.9886102373,chinese_cond1,001,1037,
images/lighter02b.jpg,stapler,x,sounds/greatgatsby_english.wav,,,,,,,,,0,1,1,0,0,36,36,227,665.106984674,9.30083979256e-06,666.580899346,1.47392461445,,,,x,1,1.4505801479,2018_Nov_15_1535,59.9886102373,chinese_cond1,001,1037,
images/medal01.jpg,medal,z,sounds/greatgatsby_english.wav,,,,,,,,,0,1,1,0,0,37,37,115,667.681208583,9.30083979256e-06,668.314658316,0.633459995805,,,,z,1,0.617046899966,2018_Nov_15_1535,59.9886102373,chinese_cond1,001,1037,
images/sportshorts02.jpg,tape,x,sounds/greatgatsby_english.wav,,,,,,,,,0,1,1,0,0,38,38,230,669.460107415,8.98012126527e-06,670.631882381,1.17178490814,,,,x,1,1.15050170013,2018_Nov_15_1535,59.9886102373,chinese_cond1,001,1037,
images/ceilingfan02.jpg,paper clip,x,sounds/greatgatsby_english.wav,,,,,,,,,0,1,1,0,0,39,39,208,671.760872521,9.30083979256e-06,672.782410701,1.02154812158,,,,x,1,1.00047081493,2018_Nov_15_1535,59.9886102373,chinese_cond1,001,1037,
images/licenseplate.jpg,license plate,z,sounds/greatgatsby_english.wav,,,,,,,,,0,1,1,0,0,40,40,40,673.986260094,9.30083979256e-06,674.932939341,0.946688868947,,,,z,1,0.933794377033,2018_Nov_15_1535,59.9886102373,chinese_cond1,001,1037,
images/charcoalbarbecue.jpg,charcoal barbecue,z,sounds/greatgatsby_english.wav,,,,,,,,,0,1,1,0,0,41,41,77,676.048845766,8.98012126527e-06,677.000101347,0.951265202864,,,,z,1,0.93379501847,2018_Nov_15_1535,59.9886102373,chinese_cond1,001,1037,
images/flipflop01b.jpg,flip flop,z,sounds/greatgatsby_english.wav,,,,,,,,,0,1,1,0,0,42,42,27,678.115706617,9.30083979256e-06,679.617408991,1.50171231669,,,,z,1,1.48392654517,2018_Nov_15_1535,59.9886102373,chinese_cond1,001,1037,
images/dryingmachine01.jpg,drying machine,z,sounds/greatgatsby_english.wav,,,,,,,,,0,1,1,0,0,43,43,18,680.73683851,8.98012126527e-06,681.417850172,0.681021283529,,,,z,1,0.667061685094,2018_Nov_15_1535,59.9886102373,chinese_cond1,001,1037,
images/ostrich.jpg,ostrich,z,sounds/greatgatsby_english.wav,,,,,,,,,0,1,1,0,0,44,44,76,682.518372045,8.6594025106e-06,683.551694068,1.0333313235,,,,x,0,1.01713663703,2018_Nov_15_1535,59.9886102373,chinese_cond1,001,1037,
images/nametag01a.jpg,name tag,z,sounds/greatgatsby_english.wav,,,,,,,,,0,1,1,0,0,45,45,108,684.670578365,9.30083979256e-06,685.402157089,0.73158866683,,,,z,1,0.71708160172,2018_Nov_15_1535,59.9886102373,chinese_cond1,001,1037,
images/globe.jpg,cloud,x,sounds/greatgatsby_english.wav,,,,,,,,,0,1,1,0,0,46,46,154,686.528870128,8.98012126527e-06,687.269283367,0.740422861079,,,,x,1,0.717084167469,2018_Nov_15_1535,59.9886102373,chinese_cond1,001,1037,
images/bicycle.jpg,hand bag,x,sounds/greatgatsby_english.wav,,,,,,,,,0,1,1,0,0,47,47,186,688.37888735,9.30084001993e-06,689.219742283,0.840864875475,,,,x,1,0.817093211734,2018_Nov_15_1535,59.9886102373,chinese_cond1,001,1037,
images/bull.jpg,button,x,sounds/greatgatsby_english.wav,,,,,,,,,0,1,1,0,0,48,48,141,690.398608979,8.98012126527e-06,691.320258063,0.921658705362,,,,x,1,0.900444451856,2018_Nov_15_1535,59.9886102373,chinese_cond1,001,1037,
images/gluestick.jpg,squirrel,x,sounds/greatgatsby_english.wav,,,,,,,,,0,1,1,0,0,49,49,226,692.427345367,9.62155831985e-06,694.004262671,1.57692692555,,,,z,0,1.5672967077,2018_Nov_15_1535,59.9886102373,chinese_cond1,001,1037,
images/toucan.jpg,toucan,z,sounds/greatgatsby_english.wav,,,,,,,,,0,1,1,0,0,50,50,81,695.178853546,9.94227707452e-06,697.171686768,1.99284348483,,,,z,1,1.98404809753,2018_Nov_15_1535,59.9886102373,chinese_cond1,001,1037,
images/crocodile.jpg,triangle ruler,x,sounds/greatgatsby_english.wav,,,,,,,,,0,1,1,0,0,51,51,235,698.344069175,9.30083979256e-06,699.488925266,1.14486603263,,,,x,1,1.13385319683,2018_Nov_15_1535,59.9886102373,chinese_cond1,001,1037,
images/floorlamp.jpg,floor lamp,z,sounds/greatgatsby_english.wav,,,,,,,,,0,1,1,0,0,52,52,26,700.581218141,9.30083979256e-06,701.30601527,0.724806750999,,,,z,1,0.700392367154,2018_Nov_15_1535,59.9886102373,chinese_cond1,001,1037,
images/candycane01a.jpg,lip,x,sounds/greatgatsby_english.wav,,,,,,,,,0,1,1,0,0,53,53,200,702.399455356,9.62155854722e-06,703.206478644,0.80703291022,,,,x,1,0.783717629068,2018_Nov_15_1535,59.9886102373,chinese_cond1,001,1037,
images/boxingglove02a.jpg,bracelet,x,sounds/greatgatsby_english.wav,,,,,,,,,0,1,1,0,0,54,54,135,704.316804886,9.30084001993e-06,705.457030441,1.14023549726,,,,x,1,1.11716428298,2018_Nov_15_1535,59.9886102373,chinese_cond1,001,1037,
images/puzzle.jpg,puzzle,z,sounds/greatgatsby_english.wav,,,,,,,,,0,1,1,0,0,55,55,57,706.576488503,9.62155854722e-06,707.340833766,0.764355525565,,,,x,0,0.750427357554,2018_Nov_15_1535,59.9886102373,chinese_cond1,001,1037,
images/lantern03.jpg,lantern,z,sounds/greatgatsby_english.wav,,,,,,,,,0,1,1,0,0,56,56,5,708.446609651,9.30084001993e-06,709.741406505,1.2948067959,,,,z,1,1.28387830909,2018_Nov_15_1535,59.9886102373,chinese_cond1,001,1037,
images/dragonfly02.jpg,dragon fly,z,sounds/greatgatsby_english.wav,,,,,,,,,0,1,1,0,0,57,57,29,710.909484547,8.98012126527e-06,713.258940192,2.34946526585,,,,z,1,2.33414261331,2018_Nov_15_1535,59.9886102373,chinese_cond1,001,1037,
images/candle08a.jpg,screw driver,x,sounds/greatgatsby_english.wav,,,,,,,,,0,1,1,0,0,58,58,221,714.371720893,9.30083979256e-06,715.676188695,1.3044774243,,,,x,1,1.28386964969,2018_Nov_15_1535,59.9886102373,chinese_cond1,001,1037,
images/blackolive.jpg,tank,x,sounds/greatgatsby_english.wav,,,,,,,,,0,1,1,0,0,59,59,229,716.790404933,9.30083979256e-06,717.593321099,0.802926108355,,,,x,1,0.783755473865,2018_Nov_15_1535,59.9886102373,chinese_cond1,001,1037,
images/fork01.jpg,cooking pot,x,sounds/greatgatsby_english.wav,,,,,,,,,0,1,1,0,0,60,60,160,718.686403583,9.30084001993e-06,719.960566043,1.27417272237,,,,x,1,1.25053800548,2018_Nov_15_1535,59.9886102373,chinese_cond1,001,1037,
images/blueberry02.jpg,blueberry,z,sounds/greatgatsby_english.wav,,,,,,,,,0,1,1,0,0,61,61,46,721.072643728,9.62155831985e-06,721.710980572,0.63834710606,,,,z,1,0.617040164875,2018_Nov_15_1535,59.9886102373,chinese_cond1,001,1037,
images/dolphin01.jpg,dolphin,z,sounds/greatgatsby_english.wav,,,,,,,,,0,1,1,0,0,62,62,99,722.810893079,9.62155854722e-06,723.578115509,0.767234295853,,,,z,1,0.750418056715,2018_Nov_15_1535,59.9886102373,chinese_cond1,001,1037,
images/bowtie.jpg,bowtie,z,sounds/greatgatsby_english.wav,,,,,,,,,0,1,1,0,0,63,63,89,724.68778139,8.98012126527e-06,725.445230241,0.75745847175,,,,x,0,0.733739085144,2018_Nov_15_1535,59.9886102373,chinese_cond1,001,1037,
images/baseball01a.jpg,baseball,z,sounds/greatgatsby_english.wav,,,,,,,,,0,1,1,0,0,64,64,74,726.576625771,9.30083979256e-06,727.145654038,0.569038209774,,,,z,1,0.550378159319,2018_Nov_15_1535,59.9886102373,chinese_cond1,001,1037,
images/apple06.jpg,apple,z,sounds/greatgatsby_english.wav,,,,,,,,,0,1,1,0,0,65,65,13,728.27227471,9.94227707452e-06,728.946088484,0.673823716372,,,,z,1,0.650397787298,2018_Nov_15_1535,59.9886102373,chinese_cond1,001,1037,
images/cola.jpg,comb,x,sounds/greatgatsby_english.wav,,,,,,,,,0,1,1,0,0,66,66,157,730.133172953,1.02629956018e-05,731.21330065,1.0801376396,,,,x,1,1.06715783653,2018_Nov_15_1535,59.9886102373,chinese_cond1,001,1037,
images/chessknight02b (1).jpg,cockroach,x,sounds/greatgatsby_english.wav,,,,,,,,,0,1,1,0,0,67,67,155,732.321191675,9.30083979256e-06,733.263792344,0.942609969602,,,,x,1,0.933784755475,2018_Nov_15_1535,59.9886102373,chinese_cond1,001,1037,
images/ladder.jpg,ladder,z,sounds/greatgatsby_english.wav,,,,,,,,,0,1,1,0,0,68,68,113,734.426626957,1.02629956018e-05,735.364307803,0.937691428923,,,,z,1,0.917109311808,2018_Nov_15_1535,59.9886102373,chinese_cond1,001,1037,
images/coin01b.jpg,arrow,x,sounds/greatgatsby_english.wav,,,,,,,,,0,1,1,0,0,69,69,124,736.466694334,8.98012103789e-06,737.197929569,0.731244856475,,,,x,1,0.716890453426,2018_Nov_15_1535,59.9886102373,chinese_cond1,001,1037,
images/wallet01.jpg,lamp,x,sounds/greatgatsby_english.wav,,,,,,,,,0,1,1,0,0,70,70,193,738.302262542,9.62155831985e-06,738.915181151,0.61292887295,,,,z,0,0.600386530075,2018_Nov_15_1535,59.9886102373,chinese_cond1,001,1037,
images/bowl02b (1).jpg,bowl,z,sounds/greatgatsby_english.wav,,,,,,,,,0,1,1,0,0,71,71,24,740.032067371,8.98012126527e-06,740.798967158,0.766909087177,,,,z,1,0.750411642342,2018_Nov_15_1535,59.9886102373,chinese_cond1,001,1037,
images/barrel01.jpg,barrel,z,sounds/greatgatsby_english.wav,,,,,,,,,0,1,1,0,0,72,72,9,741.928359159,9.30083979256e-06,742.932830938,1.00448204264,,,,z,1,0.983807879287,2018_Nov_15_1535,59.9886102373,chinese_cond1,001,1037,
images/croissant02b.jpg,croissant,z,sounds/greatgatsby_english.wav,,,,,,,,,0,1,1,0,0,73,73,39,744.043322029,9.30084001993e-06,744.716581922,0.673269514605,,,,z,1,0.650389127895,2018_Nov_15_1535,59.9886102373,chinese_cond1,001,1037,
images/electrictoothbrush01a.jpg,banjo,x,sounds/greatgatsby_english.wav,,,,,,,,,0,1,1,0,0,74,74,127,745.810794298,9.30083979256e-06,746.51705774,0.706272742959,,,,x,1,0.683766634873,2018_Nov_15_1535,59.9886102373,chinese_cond1,001,1037,
images/flower01.jpg,bus,x,sounds/greatgatsby_english.wav,,,,,,,,,0,1,1,0,0,75,75,140,747.630821764,9.30083979256e-06,748.500844452,0.870031988475,,,,x,1,0.850438005413,2018_Nov_15_1535,59.9886102373,chinese_cond1,001,1037,
images/swallow.jpg,mattress,x,sounds/greatgatsby_english.wav,,,,,,,,,0,1,1,0,0,76,76,202,749.634078341,9.30084001993e-06,750.56802538,0.933957622808,,,,x,1,0.917125027021,2018_Nov_15_1535,59.9886102373,chinese_cond1,001,1037,
images/flamingo.jpg,flamingo,z,sounds/greatgatsby_english.wav,,,,,,,,,0,1,1,0,0,77,77,52,751.665705045,8.98012126527e-06,752.951923638,1.28622853511,,,,z,1,1.26721120411,2018_Nov_15_1535,59.9886102373,chinese_cond1,001,1037,
images/eraser.jpg,eraser,z,sounds/greatgatsby_english.wav,,,,,,,,,0,1,1,0,0,78,78,110,754.058052635,8.98012126527e-06,754.802373189,0.744330175966,,,,z,1,0.733728822148,2018_Nov_15_1535,59.9886102373,chinese_cond1,001,1037,
images/weight01.jpg,weight,z,sounds/greatgatsby_english.wav,,,,,,,,,0,1,1,0,0,79,79,67,755.906877426,8.98012126527e-06,756.61948372,0.712616236444,,,,z,1,0.700391084279,2018_Nov_15_1535,59.9886102373,chinese_cond1,001,1037,
images/bracelet02a.jpg,chess knight,x,sounds/greatgatsby_english.wav,,,,,,,,,0,1,1,0,0,80,80,152,757.728259608,8.98012126527e-06,760.13702799,2.40877768363,,,,x,1,2.40083508713,2018_Nov_15_1535,59.9886102373,chinese_cond1,001,1037,
images/pineapple01a.jpg,pineapple,z,sounds/greatgatsby_english.wav,,,,,,,,,0,1,1,0,0,81,81,51,761.249285279,9.62155831985e-06,761.904105776,0.654831080713,,,,z,1,0.633713363511,2018_Nov_15_1535,59.9886102373,chinese_cond1,001,1037,
images/treadmill.jpg,lily,x,sounds/greatgatsby_english.wav,,,,,,,,,0,1,1,0,0,82,82,199,763.087695053,8.98012126527e-06,763.871247191,0.783561759822,,,,x,1,0.767075540138,2018_Nov_15_1535,59.9886102373,chinese_cond1,001,1037,
images/banana04a.jpg,banana,z,sounds/greatgatsby_english.wav,,,,,,,,,0,1,1,0,0,83,83,118,764.976642063,8.98012126527e-06,765.771723715,0.795091273311,,,,z,1,0.78375900177,2018_Nov_15_1535,59.9886102373,chinese_cond1,001,1037,
images/ruler02b.jpg,watermelon,x,sounds/greatgatsby_english.wav,,,,,,,,,0,1,1,0,0,84,84,238,766.873373235,9.30084001993e-06,767.772194209,0.898830595786,,,,x,1,0.883767083879,2018_Nov_15_1535,59.9886102373,chinese_cond1,001,1037,
images/plate01b.jpg,plate,z,sounds/greatgatsby_english.wav,,,,,,,,,0,1,1,0,0,85,85,3,768.943469175,8.98012126527e-06,770.156119087,1.21265953346,,,,z,1,1.2005241825,2018_Nov_15_1535,59.9886102373,chinese_cond1,001,1037,
images/cupcake.jpg,scissors,x,sounds/greatgatsby_english.wav,,,,,,,,,0,1,1,0,0,86,86,219,771.27413167,9.94227707452e-06,772.289962983,1.01584157527,,,,z,0,1.00046985277,2018_Nov_15_1535,59.9886102373,chinese_cond1,001,1037,
images/calculator02b.jpg,dice,x,sounds/greatgatsby_english.wav,,,,,,,,,0,1,1,0,0,87,87,165,773.390864587,9.94227707452e-06,774.507176079,1.11632143446,,,,x,1,1.10050391309,2018_Nov_15_1535,59.9886102373,chinese_cond1,001,1037,
images/tie01.jpg,bench,x,sounds/greatgatsby_english.wav,,,,,,,,,0,1,1,0,0,88,88,130,775.604551703,9.30083979256e-06,776.69106138,1.0865192986,,,,x,1,1.06717868324,2018_Nov_15_1535,59.9886102373,chinese_cond1,001,1037,
images/lemon02.jpg,lemon,z,sounds/greatgatsby_english.wav,,,,,,,,,0,1,1,0,0,89,89,14,777.80224394,8.98012103789e-06,778.408125663,0.605891344382,,,,z,1,0.583709482815,2018_Nov_15_1535,59.9886102373,chinese_cond1,001,1037,
images/spoon02b.jpg,spoon,z,sounds/greatgatsby_english.wav,,,,,,,,,0,1,1,0,0,90,90,38,779.498795381,9.30083979256e-06,780.2252394,0.726453641086,,,,z,1,0.717068772976,2018_Nov_15_1535,59.9886102373,chinese_cond1,001,1037,
images/beachumbrella01.jpg,beach umbrella,z,sounds/greatgatsby_english.wav,,,,,,,,,0,1,1,0,0,91,91,92,781.329872886,9.94227707452e-06,782.009001289,0.679138665259,,,,z,1,0.667060081501,2018_Nov_15_1535,59.9886102373,chinese_cond1,001,1037,
images/eyedrops.jpg,bicycle,x,sounds/greatgatsby_english.wav,,,,,,,,,0,1,1,0,0,92,92,131,783.109215914,9.62155854722e-06,783.992811413,0.883605441697,,,,x,1,0.867106393269,2018_Nov_15_1535,59.9886102373,chinese_cond1,001,1037,
images/cigar.jpg,crocodile,x,sounds/greatgatsby_english.wav,,,,,,,,,0,1,1,0,0,93,93,162,785.090556505,9.30083979256e-06,786.376726669,1.28618010659,,,,x,1,1.26720286543,2018_Nov_15_1535,59.9886102373,chinese_cond1,001,1037,
images/corkscrew02a.jpg,masquerade mask,x,sounds/greatgatsby_english.wav,,,,,,,,,0,1,1,0,0,94,94,201,787.480060603,9.94227707452e-06,788.677296137,1.19724579682,,,,x,1,1.18386349189,2018_Nov_15_1535,59.9886102373,chinese_cond1,001,1037,
images/mattress.jpg,cat,x,sounds/greatgatsby_english.wav,,,,,,,,,0,1,1,0,0,95,95,147,789.780939244,9.62155831985e-06,790.677776894,0.89684759259,,,,x,1,0.883777026156,2018_Nov_15_1535,59.9886102373,chinese_cond1,001,1037,
images/lettuce.jpg,mushroom,x,sounds/greatgatsby_english.wav,,,,,,,,,0,1,1,0,0,96,96,205,791.868020441,9.30084001993e-06,792.861638462,0.993628283277,,,,x,1,0.983795371261,2018_Nov_15_1535,59.9886102373,chinese_cond1,001,1037,
images/lipstick04.jpg,lipstick,z,sounds/greatgatsby_english.wav,,,,,,,,,0,1,1,0,0,97,97,56,793.960885799,9.30083979256e-06,794.712090899,0.751215363191,,,,z,1,0.733738764425,2018_Nov_15_1535,59.9886102373,chinese_cond1,001,1037,
images/saltshaker03c.jpg,salt shaker,z,sounds/greatgatsby_english.wav,,,,,,,,,0,1,1,0,0,98,98,63,795.822801682,8.98012126527e-06,796.595889414,0.773097352853,,,,z,1,0.75041452881,2018_Nov_15_1535,59.9886102373,chinese_cond1,001,1037,
images/knife04.jpg,tooth brush,x,sounds/greatgatsby_english.wav,,,,,,,,,0,1,1,0,0,99,99,233,797.692902946,9.62155854722e-06,799.096492044,1.40359904015,,,,x,1,1.38390338929,2018_Nov_15_1535,59.9886102373,chinese_cond1,001,1037,
images/ladybug03.jpg,giraffe,x,sounds/greatgatsby_english.wav,,,,,,,,,0,1,1,0,0,100,100,178,800.200444644,9.30083979256e-06,801.01362092,0.813186859004,,,,x,1,0.800418088787,2018_Nov_15_1535,59.9886102373,chinese_cond1,001,1037,
images/snowman.jpg,globe,x,sounds/greatgatsby_english.wav,,,,,,,,,0,1,1,0,0,101,101,180,802.124343569,9.62155854722e-06,803.94767123,1.82333728245,,,,x,1,1.80066343853,2018_Nov_15_1535,59.9886102373,chinese_cond1,001,1037,
images/dreamcatcher.jpg,dream catcher,z,sounds/greatgatsby_english.wav,,,,,,,,,0,1,1,0,0,102,102,48,805.045885212,8.98012126527e-06,805.864802992,0.818927080774,,,,z,1,0.800413598726,2018_Nov_15_1535,59.9886102373,chinese_cond1,001,1037,
images/magnifyingglass01b.jpg,magnifying glass,z,sounds/greatgatsby_english.wav,,,,,,,,,0,1,1,0,0,103,103,64,806.970856299,9.62155831985e-06,808.09868159,1.12783523274,,,,z,1,1.11717133879,2018_Nov_15_1535,59.9886102373,chinese_cond1,001,1037,
images/bus.jpg,microphone,x,sounds/greatgatsby_english.wav,,,,,,,,,0,1,1,0,0,104,104,203,809.216254468,9.30084001993e-06,810.149178094,0.932933568271,,,,x,1,0.917111556839,2018_Nov_15_1535,59.9886102373,chinese_cond1,001,1037,
images/hanger02a.jpg,hanger,z,sounds/greatgatsby_english.wav,,,,,,,,,0,1,1,0,0,105,105,88,811.314529387,9.30083979256e-06,812.432917212,1.11839808749,,,,x,0,1.1003336115,2018_Nov_15_1535,59.9886102373,chinese_cond1,001,1037,
images/ear.jpg,bullet,x,sounds/greatgatsby_english.wav,,,,,,,,,0,1,1,0,0,106,106,139,813.53643588,9.30083979256e-06,814.516916303,0.980490365934,,,,x,1,0.967140774304,2018_Nov_15_1535,59.9886102373,chinese_cond1,001,1037,
images/tape01a.jpg,tie,x,sounds/greatgatsby_english.wav,,,,,,,,,0,1,1,0,0,107,107,232,815.712732016,9.62155854722e-06,817.017525027,1.30480295369,,,,x,1,1.28387446047,2018_Nov_15_1535,59.9886102373,chinese_cond1,001,1037,
images/cat.jpg,black olive,x,sounds/greatgatsby_english.wav,,,,,,,,,0,1,1,0,0,108,108,133,818.147904521,9.62155854722e-06,819.851539674,1.70364541607,,,,z,0,1.68396676329,2018_Nov_15_1535,59.9886102373,chinese_cond1,001,1037,
images/leek.jpg,donut,x,sounds/greatgatsby_english.wav,,,,,,,,,0,1,1,0,0,109,109,169,820.951985858,9.30083979256e-06,821.952077583,1.00010134708,,,,x,1,0.983822311624,2018_Nov_15_1535,59.9886102373,chinese_cond1,001,1037,
images/battery03b.jpg,battery,z,sounds/greatgatsby_english.wav,,,,,,,,,0,1,1,0,0,110,110,34,823.137507144,9.94227707452e-06,824.519350237,1.38185303518,,,,z,1,1.36722602131,2018_Nov_15_1535,59.9886102373,chinese_cond1,001,1037,
images/parkingmeter.jpg,ear,x,sounds/greatgatsby_english.wav,,,,,,,,,0,1,1,0,0,111,111,171,825.620454535,9.62155854722e-06,827.00329378,1.38284982864,,,,x,1,1.36723852934,2018_Nov_15_1535,59.9886102373,chinese_cond1,001,1037,
images/squirrel.jpg,binder,x,sounds/greatgatsby_english.wav,,,,,,,,,0,1,1,0,0,112,112,132,828.106071909,8.98012126527e-06,829.503897693,1.39783540592,,,,x,1,1.3839053136,2018_Nov_15_1535,59.9886102373,chinese_cond1,001,1037,
images/chameleon.jpg,50 dollar bill,x,sounds/greatgatsby_english.wav,,,,,,,,,0,1,1,0,0,113,113,120,830.613925025,9.30083979256e-06,831.954498688,1.34058392597,,,,x,1,1.31722791355,2018_Nov_15_1535,59.9886102373,chinese_cond1,001,1037,
images/notebook02b.jpg,notebook,z,sounds/greatgatsby_english.wav,,,,,,,,,0,1,1,0,0,114,114,7,833.060485927,8.6594025106e-06,833.854966552,0.794489925908,,,,z,1,0.783744569432,2018_Nov_15_1535,59.9886102373,chinese_cond1,001,1037,
images/lightbulb03b.jpg,treadmill,x,sounds/greatgatsby_english.wav,,,,,,,,,0,1,1,0,0,115,115,234,834.957009594,8.98012103789e-06,836.788997299,1.83199732649,,,,x,1,1.81733182638,2018_Nov_15_1535,59.9886102373,chinese_cond1,001,1037,
images/bandaid01.jpg,door handle,x,sounds/greatgatsby_english.wav,,,,,,,,,0,1,1,0,0,116,116,170,837.895231491,9.30083979256e-06,839.556348657,1.66112678712,,,,x,1,1.65064377848,2018_Nov_15_1535,59.9886102373,chinese_cond1,001,1037,
images/cactus.jpg,cactus,z,sounds/greatgatsby_english.wav,,,,,,,,,0,1,1,0,0,117,117,70,840.667755399,9.62155854722e-06,841.573775544,0.906030407973,,,,x,0,0.883965608701,2018_Nov_15_1535,59.9886102373,chinese_cond1,001,1037,
images/banjo.jpg,knife,x,sounds/greatgatsby_english.wav,,,,,,,,,0,1,1,0,0,118,118,191,842.67057644,9.62155831985e-06,843.690701533,1.0201356768,,,,x,1,1.00048685086,2018_Nov_15_1535,59.9886102373,chinese_cond1,001,1037,
images/donut.jpg,rhinoceros,x,sounds/greatgatsby_english.wav,,,,,,,,,0,1,1,0,0,119,119,216,844.815745231,9.62155831985e-06,846.057926272,1.24219066209,,,,x,1,1.23386769331,2018_Nov_15_1535,59.9886102373,chinese_cond1,001,1037,
images/elbow.jpg,elbow,z,sounds/greatgatsby_english.wav,,,,,,,,,0,1,1,0,0,120,120,105,847.169123585,9.62155831985e-06,848.158443976,0.989330974555,,,,z,1,0.967134680651,2018_Nov_15_1535,59.9886102373,chinese_cond1,001,1037,
images/key03b.jpg,cigar,x,sounds/greatgatsby_english.wav,,,,,,,,,0,1,1,0,0,121,121,153,849.259704464,9.62155854722e-06,850.025559349,0.765864827367,,,,x,1,0.750415170247,2018_Nov_15_1535,59.9886102373,chinese_cond1,001,1037,
images/table02.jpg,table,z,sounds/greatgatsby_english.wav,,,,,,,,,0,1,1,0,0,122,122,49,851.217120409,9.62155831985e-06,851.94280657,0.725695462281,,,,z,1,0.717181345209,2018_Nov_15_1535,59.9886102373,chinese_cond1,001,1037,
images/axe01.jpg,axe,z,sounds/greatgatsby_english.wav,,,,,,,,,0,1,1,0,0,123,123,104,853.044654936,9.62155831985e-06,854.209916748,1.1652717545,,,,x,0,1.15049496504,2018_Nov_15_1535,59.9886102373,chinese_cond1,001,1037,
images/hairpin.jpg,hair pin,z,sounds/greatgatsby_english.wav,,,,,,,,,0,1,1,0,0,124,124,28,855.376897291,1.02629956018e-05,857.527388728,2.15050073797,,,,z,1,2.1340870007,2018_Nov_15_1535,59.9886102373,chinese_cond1,001,1037,
images/hairband.jpg,hairband,z,sounds/greatgatsby_english.wav,,,,,,,,,0,1,1,0,0,125,125,66,858.711630347,9.62155854722e-06,859.644563274,0.93294286911,,,,z,1,0.91711348115,2018_Nov_15_1535,59.9886102373,chinese_cond1,001,1037,
images/camera01a.jpg,bull,x,sounds/greatgatsby_english.wav,,,,,,,,,0,1,1,0,0,126,126,138,860.755046026,8.98012103789e-06,861.595040471,0.840004387431,,,,x,1,0.817098343232,2018_Nov_15_1535,59.9886102373,chinese_cond1,001,1037,
images/cheetah.jpg,cheetah,z,sounds/greatgatsby_english.wav,,,,,,,,,0,1,1,0,0,127,127,82,862.697277869,9.62155854722e-06,863.662232625,0.964964698502,,,,x,0,0.950482008006,2018_Nov_15_1535,59.9886102373,chinese_cond1,001,1037,
images/computermouse02a.jpg,world map,x,sounds/greatgatsby_english.wav,,,,,,,,,0,1,1,0,0,128,128,239,864.764140003,9.30083979256e-06,866.579581514,1.81545113243,,,,x,1,1.80066440068,2018_Nov_15_1535,59.9886102373,chinese_cond1,001,1037,
images/cloud.jpg,ceiling fan,x,sounds/greatgatsby_english.wav,,,,,,,,,0,1,1,0,0,129,129,149,867.684467726,8.98012103789e-06,868.430044856,0.745586751499,,,,x,1,0.733746461672,2018_Nov_15_1535,59.9886102373,chinese_cond1,001,1037,
images/pipe.jpg,icecube,x,sounds/greatgatsby_english.wav,,,,,,,,,0,1,1,0,0,130,130,188,869.609664599,9.30083979256e-06,871.030678018,1.42102304107,,,,z,0,1.40056824924,2018_Nov_15_1535,59.9886102373,chinese_cond1,001,1037,
images/broadsword.jpg,teapot,x,sounds/greatgatsby_english.wav,,,,,,,,,0,1,1,0,0,131,131,231,872.123578014,9.62155831985e-06,873.414598406,1.29103065493,,,,x,1,1.26722082567,2018_Nov_15_1535,59.9886102373,chinese_cond1,001,1037,
images/hammer02a.jpg,flower,x,sounds/greatgatsby_english.wav,,,,,,,,,0,1,1,0,0,132,132,176,874.509478518,9.62155831985e-06,875.598450352,1.08898209685,,,,x,1,1.06715783653,2018_Nov_15_1535,59.9886102373,chinese_cond1,001,1037,
images/bat.jpg,hand,x,sounds/greatgatsby_english.wav,,,,,,,,,0,1,1,0,0,133,133,185,876.770239109,9.30083979256e-06,877.7656384,0.995409875183,,,,x,1,0.983779656049,2018_Nov_15_1535,59.9886102373,chinese_cond1,001,1037,
images/doorhandle.jpg,doll,x,sounds/greatgatsby_english.wav,,,,,,,,,0,1,1,0,0,134,134,168,878.868116657,9.30083979256e-06,879.849480019,0.98137330428,,,,x,1,0.967129869872,2018_Nov_15_1535,59.9886102373,chinese_cond1,001,1037,
images/lollipop03b.jpg,lollipop,z,sounds/greatgatsby_english.wav,,,,,,,,,0,1,1,0,0,135,135,42,880.942374883,9.30084001993e-06,882.066699209,1.12433426834,,,,z,1,1.10050744099,2018_Nov_15_1535,59.9886102373,chinese_cond1,001,1037,
images/lip.jpg,boxing glove,x,sounds/greatgatsby_english.wav,,,,,,,,,0,1,1,0,0,136,136,136,883.24328784,8.98012126527e-06,885.58422167,2.34094377225,,,,x,1,2.31745947239,2018_Nov_15_1535,59.9886102373,chinese_cond1,001,1037,
images/8ball.jpg,nail clipper,x,sounds/greatgatsby_english.wav,,,,,,,,,0,1,1,0,0,137,137,206,886.700245478,9.30083979256e-06,887.618051391,0.917816175636,,,,x,1,0.900451507666,2018_Nov_15_1535,59.9886102373,chinese_cond1,001,1037,
images/umbrella01.jpg,umbrella,z,sounds/greatgatsby_english.wav,,,,,,,,,0,1,1,0,0,138,138,53,888.730864805,9.62155854722e-06,889.451828385,0.720973522113,,,,z,1,0.700404233742,2018_Nov_15_1535,59.9886102373,chinese_cond1,001,1037,
images/lion.jpg,lion,z,sounds/greatgatsby_english.wav,,,,,,,,,0,1,1,0,0,139,139,44,890.563659759,9.30083979256e-06,891.235585462,0.671935325167,,,,z,1,0.650386882865,2018_Nov_15_1535,59.9886102373,chinese_cond1,001,1037,
images/masquerademask02b.jpg,mirror,x,sounds/greatgatsby_english.wav,,,,,,,,,0,1,1,0,0,140,140,204,892.339937357,9.62155831985e-06,893.102701156,0.762773741356,,,,x,1,0.750402662221,2018_Nov_15_1535,59.9886102373,chinese_cond1,001,1037,
images/showerhead01.jpg,skateboard,x,sounds/greatgatsby_english.wav,,,,,,,,,0,1,1,0,0,141,141,223,894.209671398,9.30084001993e-06,895.403270624,1.19360916845,,,,x,1,1.18385130459,2018_Nov_15_1535,59.9886102373,chinese_cond1,001,1037,
images/fryingpan01.jpg,frying pan,z,sounds/greatgatsby_english.wav,,,,,,,,,0,1,1,0,0,142,142,45,896.573689592,9.30083979256e-06,898.387331551,1.813651901,,,,x,0,1.80067017362,2018_Nov_15_1535,59.9886102373,chinese_cond1,001,1037,
images/lamp04b.jpg,parking meter,x,sounds/greatgatsby_english.wav,,,,,,,,,0,1,1,0,0,143,143,209,899.506782557,9.94227707452e-06,900.687897491,1.18112551708,,,,x,1,1.16718997254,2018_Nov_15_1535,59.9886102373,chinese_cond1,001,1037,
images/bottleofredwine02.jpg,pipe,x,sounds/greatgatsby_english.wav,,,,,,,,,0,1,1,0,0,144,144,213,901.786397233,9.30083979256e-06,902.738410352,0.952023060951,,,,x,1,0.933808488652,2018_Nov_15_1535,59.9886102373,chinese_cond1,001,1037,
images/scissors04a.jpg,leek,x,sounds/greatgatsby_english.wav,,,,,,,,,0,1,1,0,0,145,145,194,903.832734017,9.30083979256e-06,905.122300592,1.28957651673,,,,x,1,1.26720543118,2018_Nov_15_1535,59.9886102373,chinese_cond1,001,1037,
images/swan.jpg,swan,z,sounds/greatgatsby_english.wav,,,,,,,,,0,1,1,0,0,146,146,54,906.293557597,9.62155831985e-06,907.606241248,1.31269359377,,,,x,0,1.30054028258,2018_Nov_15_1535,59.9886102373,chinese_cond1,001,1037,
images/highheelshoe02a.jpg,high heel shoe,z,sounds/greatgatsby_english.wav,,,,,,,,,0,1,1,0,0,147,147,75,908.711969668,9.62155831985e-06,909.523372369,0.811412964344,,,,z,1,0.800423541003,2018_Nov_15_1535,59.9886102373,chinese_cond1,001,1037,
images/comb02a.jpg,diploma,x,sounds/greatgatsby_english.wav,,,,,,,,,0,1,1,0,0,148,148,166,910.62745454,9.30083979256e-06,911.390493515,0.763049880083,,,,x,1,0.750407793719,2018_Nov_15_1535,59.9886102373,chinese_cond1,001,1037,
images/screw03c.jpg,screw,z,sounds/greatgatsby_english.wav,,,,,,,,,0,1,1,0,0,149,149,84,912.484008328,9.30083979256e-06,913.424320349,0.940321642285,,,,x,0,0.917114122587,2018_Nov_15_1535,59.9886102373,chinese_cond1,001,1037,
images/parkfountain.jpg,park fountain,z,sounds/greatgatsby_english.wav,,,,,,,,,0,1,1,0,0,150,150,93,914.544008046,8.98012126527e-06,916.091633478,1.54763505301,,,,z,1,1.53392818084,2018_Nov_15_1535,59.9886102373,chinese_cond1,001,1037,
images/pictureframe04.jpg,picture frame,z,sounds/greatgatsby_english.wav,,,,,,,,,0,1,1,0,0,151,151,41,917.286868689,9.30083979256e-06,918.642265646,1.35540689891,,,,z,1,1.33387449254,2018_Nov_15_1535,59.9886102373,chinese_cond1,001,1037,
images/teapot.jpg,light switch,x,sounds/greatgatsby_english.wav,,,,,,,,,0,1,1,0,0,152,152,197,919.83382863,8.98012126527e-06,920.892806859,1.05898817126,,,,x,1,1.05047982712,2018_Nov_15_1535,59.9886102373,chinese_cond1,001,1037,
images/watermelon01.jpg,orange,x,sounds/greatgatsby_english.wav,,,,,,,,,0,1,1,0,0,153,153,207,922.021214574,9.30084001993e-06,922.82661631,0.805411036184,,,,x,1,0.783762208956,2018_Nov_15_1535,59.9886102373,chinese_cond1,001,1037,
images/printer03a.jpg,printer,z,sounds/greatgatsby_english.wav,,,,,,,,,0,1,1,0,0,154,154,72,923.93558976,8.98012103789e-06,924.660394587,0.724814448245,,,,z,1,0.700398460807,2018_Nov_15_1535,59.9886102373,chinese_cond1,001,1037,
images/icecube02 (2).jpg,aloe,x,sounds/greatgatsby_english.wav,,,,,,,,,0,1,1,0,0,155,155,122,925.850802662,8.98012126527e-06,926.794253236,0.943461477525,,,,x,1,0.933796942782,2018_Nov_15_1535,59.9886102373,chinese_cond1,001,1037,
images/puma.jpg,puma,z,sounds/greatgatsby_english.wav,,,,,,,,,0,1,1,0,0,156,156,4,927.892951182,9.30083979256e-06,929.144824981,1.25188342007,,,,z,1,1.23387314552,2018_Nov_15_1535,59.9886102373,chinese_cond1,001,1037,
images/daisy.jpg,daisy,z,sounds/greatgatsby_english.wav,,,,,,,,,0,1,1,0,0,157,157,6,930.32305954,9.30083979256e-06,931.478717433,1.15566783558,,,,z,1,1.13383844377,2018_Nov_15_1535,59.9886102373,chinese_cond1,001,1037,
images/volleyball.jpg,volley ball,z,sounds/greatgatsby_english.wav,,,,,,,,,0,1,1,0,0,158,158,2,932.610289679,9.30083979256e-06,933.679269839,1.06898946055,,,,x,0,1.05049265586,2018_Nov_15_1535,59.9886102373,chinese_cond1,001,1037,
images/coffeepot03b.jpg,coffee pot,z,sounds/greatgatsby_english.wav,,,,,,,,,0,1,1,0,0,159,159,107,934.800584221,8.98012126527e-06,935.496359523,0.695785564968,,,,z,1,0.683730072951,2018_Nov_15_1535,59.9886102373,chinese_cond1,001,1037,
images/giraffe.jpg,lettuce,x,sounds/greatgatsby_english.wav,,,,,,,,,0,1,1,0,0,160,160,195,936.672795492,9.30083979256e-06,937.896956958,1.2241710867,,,,x,1,1.20052001316,2018_Nov_15_1535,59.9886102373,chinese_cond1,001,1037,
images/bench02.jpg,electric toothbrush,x,sounds/greatgatsby_english.wav,,,,,,,,,0,1,1,0,0,161,161,172,939.00537813,9.30084001993e-06,940.197506541,1.19213835288,,,,x,1,1.18384040015,2018_Nov_15_1535,59.9886102373,chinese_cond1,001,1037,
images/scooter.jpg,pen,x,sounds/greatgatsby_english.wav,,,,,,,,,0,1,1,0,0,162,162,212,941.289670487,9.62155831985e-06,942.248006253,0.958346349164,,,,x,1,0.950458595548,2018_Nov_15_1535,59.9886102373,chinese_cond1,001,1037,
images/thumbtack02a.jpg,thumb tack,z,sounds/greatgatsby_english.wav,,,,,,,,,0,1,1,0,0,163,163,60,943.358034226,8.98012126527e-06,944.431719328,1.07369504406,,,,z,1,1.05032427859,2018_Nov_15_1535,59.9886102373,chinese_cond1,001,1037,
images/parrot01.jpg,chameleon,x,sounds/greatgatsby_english.wav,,,,,,,,,0,1,1,0,0,164,164,150,945.545113884,9.62155831985e-06,946.432359161,0.887254898816,,,,z,0,0.867107676144,2018_Nov_15_1535,59.9886102373,chinese_cond1,001,1037,
images/paintbrush03a.jpg,paint brush,z,sounds/greatgatsby_english.wav,,,,,,,,,0,1,1,0,0,165,165,0,947.532345114,9.30084001993e-06,948.816274417,1.28393892491,,,,z,1,1.26721312842,2018_Nov_15_1535,59.9886102373,chinese_cond1,001,1037,
images/cookingpot.jpg,grasshopper,x,sounds/greatgatsby_english.wav,,,,,,,,,0,1,1,0,0,166,166,183,949.930040686,9.30083979256e-06,951.233548578,1.3035178342,,,,x,1,1.28389755221,2018_Nov_15_1535,59.9886102373,chinese_cond1,001,1037,
images/dice05a.jpg,band aid,x,sounds/greatgatsby_english.wav,,,,,,,,,0,1,1,0,0,167,167,126,952.426565059,9.62155831985e-06,953.834167629,1.40761347506,,,,x,1,1.38390595504,2018_Nov_15_1535,59.9886102373,chinese_cond1,001,1037,
images/tulip02.jpg,sport shorts,x,sounds/greatgatsby_english.wav,,,,,,,,,0,1,1,0,0,168,168,225,955.005279991,8.6594025106e-06,956.068046548,1.06277617882,,,,x,1,1.05049009012,2018_Nov_15_1535,59.9886102373,chinese_cond1,001,1037,
images/cockroach02.jpg,belt,x,sounds/greatgatsby_english.wav,,,,,,,,,0,1,1,0,0,169,169,129,957.167129357,9.30084001993e-06,957.935001562,0.767882468174,,,,x,1,0.75025224519,2018_Nov_15_1535,59.9886102373,chinese_cond1,001,1037,
images/clothespin02a.jpg,clothes pin,z,sounds/greatgatsby_english.wav,,,,,,,,,0,1,1,0,0,170,170,79,959.04005102,9.30083979256e-06,959.952457955,0.912417198472,,,,z,1,0.900595510324,2018_Nov_15_1535,59.9886102373,chinese_cond1,001,1037,
images/diaper01a.jpg,camera,x,sounds/greatgatsby_english.wav,,,,,,,,,0,1,1,0,0,171,171,143,961.072328141,9.94227707452e-06,962.069493309,0.997175431158,,,,x,1,0.983797616291,2018_Nov_15_1535,59.9886102373,chinese_cond1,001,1037,
images/rubberglove02a.jpg,lady bug,x,sounds/greatgatsby_english.wav,,,,,,,,,0,1,1,0,0,172,172,192,963.173707937,9.30083979256e-06,964.08649749,0.912799495061,,,,x,1,0.90028858261,2018_Nov_15_1535,59.9886102373,chinese_cond1,001,1037,
images/mirror02.jpg,8 ball,x,sounds/greatgatsby_english.wav,,,,,,,,,0,1,1,0,0,173,173,121,965.268663418,8.98012126527e-06,966.320539333,1.05188553681,,,,x,1,1.0338172122,2018_Nov_15_1535,59.9886102373,chinese_cond1,001,1037,
images/pen03c.jpg,pepper,x,sounds/greatgatsby_english.wav,,,,,,,,,0,1,1,0,0,174,174,211,967.414165756,9.30083979256e-06,968.337694893,0.923538757882,,,,x,1,0.900450866229,2018_Nov_15_1535,59.9886102373,chinese_cond1,001,1037,
images/tank.jpg,wallet,x,sounds/greatgatsby_english.wav,,,,,,,,,0,1,1,0,0,175,175,237,969.473761048,8.98012126527e-06,970.404868765,0.931117338754,,,,x,1,0.917124706302,2018_Nov_15_1535,59.9886102373,chinese_cond1,001,1037,
images/leaf01a.jpg,leaf,z,sounds/greatgatsby_english.wav,,,,,,,,,0,1,1,0,0,176,176,68,971.572409283,9.30083979256e-06,972.538721321,0.966321338243,,,,z,1,0.950460840578,2018_Nov_15_1535,59.9886102373,chinese_cond1,001,1037,
images/birthdaycandle.jpg,birthday candle,z,sounds/greatgatsby_english.wav,,,,,,,,,0,1,1,0,0,177,177,55,973.634060381,9.30083979256e-06,974.389164137,0.755113697956,,,,z,1,0.733742933767,2018_Nov_15_1535,59.9886102373,chinese_cond1,001,1037,
images/electricguitar02.jpg,electric guitar,z,sounds/greatgatsby_english.wav,,,,,,,,,0,1,1,0,0,178,178,100,975.49065426,8.6594025106e-06,976.206281082,0.715636443641,,,,z,1,0.700404233742,2018_Nov_15_1535,59.9886102373,chinese_cond1,001,1037,
images/cocktailshrimp01.jpg,cocktail shrimp,z,sounds/greatgatsby_english.wav,,,,,,,,,0,1,1,0,0,179,179,30,977.320973907,4.4259168817e-05,978.006708471,0.685756052441,,,,z,1,0.667049177068,2018_Nov_15_1535,59.9886102373,chinese_cond1,001,1037,
images/peach01.jpg,peach,z,sounds/greatgatsby_english.wav,,,,,,,,,0,1,1,0,0,180,180,106,979.135259227,8.98012126527e-06,979.72380675,0.588556823962,,,,z,1,0.56704558502,2018_Nov_15_1535,59.9886102373,chinese_cond1,001,1037,
images/computerkeyboard01a.jpg,computer keyboard,z,sounds/greatgatsby_english.wav,,,,,,,,,0,1,1,0,0,181,181,61,980.840594189,1.02629956018e-05,981.490907627,0.650323701298,,,,z,1,0.63370662842,2018_Nov_15_1535,59.9886102373,chinese_cond1,001,1037,
images/nailpolish02b.jpg,nail polish,z,sounds/greatgatsby_english.wav,,,,,,,,,0,1,1,0,0,182,182,94,982.5990254,9.30083979256e-06,983.341348519,0.74233306115,,,,z,1,0.733746461672,2018_Nov_15_1535,59.9886102373,chinese_cond1,001,1037,
images/paperclip04.jpg,eye drops,x,sounds/greatgatsby_english.wav,,,,,,,,,0,1,1,0,0,183,183,174,984.446083673,9.94227707452e-06,985.858625952,1.41255222101,,,,x,1,1.40057690864,2018_Nov_15_1535,59.9886102373,chinese_cond1,001,1037,
images/lily.jpg,kiwi,x,sounds/greatgatsby_english.wav,,,,,,,,,0,1,1,0,0,184,184,190,987.038856022,9.30083979256e-06,988.292549578,1.25370349821,,,,x,1,1.23385678888,2018_Nov_15_1535,59.9886102373,chinese_cond1,001,1037,
images/handfan01b.jpg,handfan,z,sounds/greatgatsby_english.wav,,,,,,,,,0,1,1,0,0,185,185,69,989.432829976,9.62155831985e-06,990.676481832,1.24366147765,,,,z,1,1.23388148421,2018_Nov_15_1535,59.9886102373,chinese_cond1,001,1037,
images/belt02a.jpg,snowman,x,sounds/greatgatsby_english.wav,,,,,,,,,0,1,1,0,0,186,186,224,991.779818974,9.94227707452e-06,992.593604294,0.813795582935,,,,x,1,0.80041969238,2018_Nov_15_1535,59.9886102373,chinese_cond1,001,1037,
images/drink.jpg,drink,z,sounds/greatgatsby_english.wav,,,,,,,,,0,1,1,0,0,187,187,117,993.693640278,9.62155831985e-06,994.377373238,0.683743222414,,,,z,1,0.667059440064,2018_Nov_15_1535,59.9886102373,chinese_cond1,001,1037,
images/bowlingball.jpg,bowling ball,z,sounds/greatgatsby_english.wav,,,,,,,,,0,1,1,0,0,188,188,20,995.542741849,9.30084001993e-06,997.01134061,1.46860838269,,,,z,1,1.45058239293,2018_Nov_15_1535,59.9886102373,chinese_cond1,001,1037,
images/pingpongpaddle01c (1).jpg,ping pong paddle,z,sounds/greatgatsby_english.wav,,,,,,,,,0,1,1,0,0,189,189,10,998.19818871,8.98012103789e-06,999.011830348,0.81365093884,,,,z,1,0.800426748189,2018_Nov_15_1535,59.9886102373,chinese_cond1,001,1037,
images/acousticguitar02.jpg,acoustic guitar,z,sounds/greatgatsby_english.wav,,,,,,,,,0,1,1,0,0,190,190,97,1000.18870121,9.30083979256e-06,1001.94587456,1.75718297446,,,,z,1,1.73397064398,2018_Nov_15_1535,59.9886102373,chinese_cond1,001,1037,
images/egg01b (1).jpg,egg,z,sounds/greatgatsby_english.wav,,,,,,,,,0,1,1,0,0,191,191,19,1003.05805937,9.30083979256e-06,1003.74631318,0.688263109854,,,,z,1,0.667056874315,2018_Nov_15_1535,59.9886102373,chinese_cond1,001,1037,
images/kiwi03.jpg,backpack,x,sounds/greatgatsby_english.wav,,,,,,,,,0,1,1,0,0,192,192,125,1004.94899772,9.30083979256e-06,1005.81348352,0.864495423025,,,,x,1,0.850438005412,2018_Nov_15_1535,59.9886102373,chinese_cond1,001,1037,
images/envelope02a.jpg,grand piano,x,sounds/greatgatsby_english.wav,,,,,,,,,0,1,1,0,0,193,193,182,1006.93641176,9.62155831985e-06,1008.7808674,1.84446590408,,,,x,1,1.83400534574,2018_Nov_15_1535,59.9886102373,chinese_cond1,001,1037,
images/beermug01b.jpg,beer mug,z,sounds/greatgatsby_english.wav,,,,,,,,,0,1,1,0,0,194,194,111,1009.89741494,9.62155854722e-06,1010.78135714,0.883951817801,,,,x,0,0.867099978897,2018_Nov_15_1535,59.9886102373,chinese_cond1,001,1037,
images/sunglasses03a.jpg,sun glasses,z,sounds/greatgatsby_english.wav,,,,,,,,,0,1,1,0,0,195,195,17,1011.89007113,8.98012126527e-06,1012.73183145,0.841770264125,,,,z,1,0.833770258993,2018_Nov_15_1535,59.9886102373,chinese_cond1,001,1037,
images/desktopcomputer.jpg,desktop computer,z,sounds/greatgatsby_english.wav,,,,,,,,,0,1,1,0,0,196,196,16,1013.86721832,8.98012103789e-06,1014.69897704,0.831768333398,,,,z,1,0.817078458678,2018_Nov_15_1535,59.9886102373,chinese_cond1,001,1037,
images/fireextinguisher02.jpg,fire extinguisher,z,sounds/greatgatsby_english.wav,,,,,,,,,0,1,1,0,0,197,197,175,1015.84262402,8.98012103789e-06,1018.14981536,2.30720128749,,,,z,1,2.28410986793,2018_Nov_15_1535,59.9886102373,chinese_cond1,001,1037,
images/antelope.jpg,antelope,z,sounds/greatgatsby_english.wav,,,,,,,,,0,1,1,0,0,198,198,12,1019.31966794,9.30083979256e-06,1020.25034942,0.930691424433,,,,x,0,0.917137535046,2018_Nov_15_1535,59.9886102373,chinese_cond1,001,1037,
images/djmixer01.jpg,light bulb,x,sounds/greatgatsby_english.wav,,,,,,,,,0,1,1,0,0,199,199,196,1021.3710012,9.62155854722e-06,1022.76760665,1.39661539231,,,,x,1,1.38390242713,2018_Nov_15_1535,59.9886102373,chinese_cond1,001,1037,
images/straw.jpg,straw,z,sounds/greatgatsby_english.wav,,,,,,,,,0,1,1,0,0,200,200,109,1023.85853487,9.30083979256e-06,1024.53470881,0.676183563941,,,,z,1,0.66706264725,2018_Nov_15_1535,59.9886102373,chinese_cond1,001,1037,
images/atm.jpg,atm,z,sounds/greatgatsby_english.wav,,,,,,,,,0,1,1,0,0,201,201,96,1025.67117458,9.62155854722e-06,1026.35180812,0.680643797719,,,,z,1,0.667052704973,2018_Nov_15_1535,59.9886102373,chinese_cond1,001,1037,
images/ant.jpg,ant,z,sounds/greatgatsby_english.wav,,,,,,,,,0,1,1,0,0,202,202,98,1027.44810741,8.98012126527e-06,1028.15224994,0.704152472195,,,,x,0,0.683726865764,2018_Nov_15_1535,59.9886102373,chinese_cond1,001,1037,
images/grandpiano.jpg,tulip,x,sounds/greatgatsby_english.wav,,,,,,,,,0,1,1,0,0,203,203,236,1029.26610088,9.62155854722e-06,1031.70311431,2.43702337205,,,,z,0,2.41748359043,2018_Nov_15_1535,59.9886102373,chinese_cond1,001,1037,
images/honeycomb.jpg,honey comb,z,sounds/greatgatsby_english.wav,,,,,,,,,0,1,1,0,0,204,204,59,1032.81621412,9.30083979256e-06,1033.47021133,0.654007154591,,,,z,1,0.63371817429,2018_Nov_15_1535,59.9886102373,chinese_cond1,001,1037,
images/nailclipper03a.jpg,aquarium,x,sounds/greatgatsby_english.wav,,,,,,,,,0,1,1,0,0,205,205,123,1034.5691681,9.30083979256e-06,1035.4540298,0.884871959507,,,,x,1,0.867101903208,2018_Nov_15_1535,59.9886102373,chinese_cond1,001,1037,
images/seagull.jpg,seagull,z,sounds/greatgatsby_english.wav,,,,,,,,,0,1,1,0,0,206,206,50,1036.56150742,8.98012126527e-06,1037.65456617,1.093068052,,,,z,1,1.0838246208,2018_Nov_15_1535,59.9886102373,chinese_cond1,001,1037,
images/screwdriver02b.jpg,cola,x,sounds/greatgatsby_english.wav,,,,,,,,,0,1,1,0,0,207,207,158,1038.74781286,8.98012126527e-06,1039.62171464,0.873911400841,,,,x,1,0.850439929724,2018_Nov_15_1535,59.9886102373,chinese_cond1,001,1037,
images/apricot.jpg,apricot,z,sounds/greatgatsby_english.wav,,,,,,,,,0,1,1,0,0,208,208,32,1040.74003287,8.98012103789e-06,1041.7388863,0.998862731791,,,,x,0,0.983796654135,2018_Nov_15_1535,59.9886102373,chinese_cond1,001,1037,
images/backpack01b.jpg,swallow,x,sounds/greatgatsby_english.wav,,,,,,,,,0,1,1,0,0,209,209,228,1042.86916412,8.98012126527e-06,1043.90608204,1.03692722061,,,,x,1,1.01713695775,2018_Nov_15_1535,59.9886102373,chinese_cond1,001,1037,
images/lightswitch02a.jpg,fork,x,sounds/greatgatsby_english.wav,,,,,,,,,0,1,1,0,0,210,210,177,1045.0179333,9.30083979256e-06,1045.95658721,0.938663527045,,,,x,1,0.917107387497,2018_Nov_15_1535,59.9886102373,chinese_cond1,001,1037,
images/microphone01.jpg,diaper,x,sounds/greatgatsby_english.wav,,,,,,,,,0,1,1,0,0,211,211,164,1047.05530215,9.62155854722e-06,1047.97374052,0.918447991307,,,,x,1,0.900443168982,2018_Nov_15_1535,59.9886102373,chinese_cond1,001,1037,
images/broom02.jpg,broom,z,sounds/greatgatsby_english.wav,,,,,,,,,0,1,1,0,0,212,212,116,1049.06794392,9.62155831985e-06,1050.12426499,1.05633133825,,,,x,0,1.03381143926,2018_Nov_15_1535,59.9886102373,chinese_cond1,001,1037,
images/ashtray02b.jpg,ashtray,z,sounds/greatgatsby_english.wav,,,,,,,,,0,1,1,0,0,213,213,43,1051.23685839,9.62155854722e-06,1052.67490293,1.43805480311,,,,x,0,1.41723246776,2018_Nov_15_1535,59.9886102373,chinese_cond1,001,1037,
images/bullet (2).jpg,rubber glove,x,sounds/greatgatsby_english.wav,,,,,,,,,0,1,1,0,0,214,214,217,1053.77955181,8.98012126527e-06,1054.70872079,0.929178594726,,,,x,1,0.917125347739,2018_Nov_15_1535,59.9886102373,chinese_cond1,001,1037,
,,,sounds/greatgatsby_english.wav,,,,,,,,,0,1,1,0,,,,,,,,,,,,,,,2018_Nov_15_1535,59.9886102373,chinese_cond1,001,1037,
