images,name,corrAns,sounds,trials_3.thisRepN,trials_3.thisTrialN,trials_3.thisN,trials_3.thisIndex,trials_4.thisRepN,trials_4.thisTrialN,trials_4.thisN,trials_4.thisIndex,trials_2.thisRepN,trials_2.thisTrialN,trials_2.thisN,trials_2.thisIndex,trials.thisRepN,trials.thisTrialN,trials.thisN,trials.thisIndex,begin_global,begin_routine,end_global,end_routine,key_resp_2.keys,key_resp_2.corr,key_resp_2.rt,begin_book,key_resp_1.keys,key_resp_1.corr,key_resp_1.rt,date,frameRate,expName,session,participant,
images/volleyball.jpg,volley ball,z,,0,0,0,0,,,,,,,,,,,,,,,,,,,,,,,,2018_Nov_15_1541,59.9890524923,chinese_cond1,001,1041,
images/puma.jpg,puma,z,,,,,,0,0,0,0,,,,,,,,,48.2352908915,9.94243328023e-06,49.8049900752,1.56970976754,z,1,1.5506530094,,,,,2018_Nov_15_1541,59.9890524923,chinese_cond1,001,1041,
images/grasshopper.jpg,cauliflower,x,sounds/greatgatsby_english.wav,,,,,,,,,0,0,0,0,0,0,0,148,92.0498542471,9.62170952334e-06,94.5332495817,2.48340527699,,,,81.8016660952,x,1,2.46755511395,2018_Nov_15_1541,59.9890524923,chinese_cond1,001,1041,
images/hammer02a.jpg,flower,x,sounds/greatgatsby_english.wav,,,,,,,,,0,0,0,0,0,1,1,176,95.6998482015,8.98026223695e-06,98.7008219185,3.0009843009,,,,,None,0,,2018_Nov_15_1541,59.9890524923,chinese_cond1,001,1041,
images/masquerademask02b.jpg,mirror,x,sounds/greatgatsby_english.wav,,,,,,,,,0,0,0,0,0,2,2,204,99.8823912771,8.98026246432e-06,101.334994254,1.45261324031,,,,,z,0,1.43393653969,2018_Nov_15_1541,59.9890524923,chinese_cond1,001,1041,
images/banana04a.jpg,banana,z,sounds/greatgatsby_english.wav,,,,,,,,,0,0,0,0,0,3,3,118,102.523843398,9.30098599383e-06,103.335508695,0.811675559799,,,,,z,1,0.800435799303,2018_Nov_15_1541,59.9890524923,chinese_cond1,001,1041,
images/razor04a.jpg,razor,z,sounds/greatgatsby_english.wav,,,,,,,,,0,0,0,0,0,4,4,36,104.501972932,8.98026223695e-06,105.80292237,1.30095938067,,,,,z,1,1.2840065697,2018_Nov_15_1541,59.9890524923,chinese_cond1,001,1041,
images/cocktailshrimp01.jpg,cocktail shrimp,z,sounds/greatgatsby_english.wav,,,,,,,,,0,0,0,0,0,5,5,30,106.946112653,8.98026223695e-06,108.570207531,1.62410449946,,,,,z,1,1.60065350652,2018_Nov_15_1541,59.9890524923,chinese_cond1,001,1041,
images/ceilingfan02.jpg,paper clip,x,sounds/greatgatsby_english.wav,,,,,,,,,0,0,0,0,0,6,6,208,109.74457536,9.30098599383e-06,111.554309901,1.80974480339,,,,,x,1,1.80068339796,2018_Nov_15_1541,59.9890524923,chinese_cond1,001,1041,
images/hairband.jpg,hairband,z,sounds/greatgatsby_english.wav,,,,,,,,,0,0,0,0,0,7,7,66,112.732027368,8.98026246432e-06,114.238341294,1.50632354795,,,,,z,1,1.48394858287,2018_Nov_15_1541,59.9890524923,chinese_cond1,001,1041,
images/sock03.jpg,sock,z,sounds/greatgatsby_english.wav,,,,,,,,,0,0,0,0,0,8,8,90,115.408599371,9.30098599383e-06,116.405569495,0.99698070751,,,,,z,1,0.983820133042,2018_Nov_15_1541,59.9890524923,chinese_cond1,001,1041,
images/aloe02.jpg,broad sword,x,sounds/greatgatsby_english.wav,,,,,,,,,0,0,0,0,0,9,9,137,117.56020865,9.62170975072e-06,119.756451757,2.19625369113,,,,,z,0,2.18414701459,2018_Nov_15_1541,59.9890524923,chinese_cond1,001,1041,
images/graduationcap.jpg,graduation cap,z,sounds/greatgatsby_english.wav,,,,,,,,,0,0,0,0,0,10,10,35,120.923846413,9.30098599383e-06,122.040361148,1.11652467696,,,,,z,1,1.10052762249,2018_Nov_15_1541,59.9890524923,chinese_cond1,001,1041,
images/volleyball.jpg,volley ball,z,sounds/greatgatsby_english.wav,,,,,,,,,0,0,0,0,0,11,11,2,123.171330256,9.30098599383e-06,124.007540855,0.836220861855,,,,,z,1,0.817112787926,2018_Nov_15_1541,59.9890524923,chinese_cond1,001,1041,
images/swan.jpg,swan,z,sounds/greatgatsby_english.wav,,,,,,,,,0,0,0,0,0,12,12,54,125.164845544,9.30098599383e-06,127.024988542,1.86015294028,,,,,z,1,1.85071917469,2018_Nov_15_1541,59.9890524923,chinese_cond1,001,1041,
images/bench02.jpg,electric toothbrush,x,sounds/greatgatsby_english.wav,,,,,,,,,0,0,0,0,0,13,13,172,128.208384422,1.05838805666e-05,131.159395487,2.95102164917,,,,,x,1,2.93422887931,2018_Nov_15_1541,59.9890524923,chinese_cond1,001,1041,
images/drink.jpg,drink,z,sounds/greatgatsby_english.wav,,,,,,,,,0,0,0,0,0,14,14,117,132.343803892,8.65953870743e-06,133.126575515,0.782781565702,,,,,z,1,0.767108762844,2018_Nov_15_1541,59.9890524923,chinese_cond1,001,1041,
images/magnifyingglass01b.jpg,magnifying glass,z,sounds/greatgatsby_english.wav,,,,,,,,,0,0,0,0,0,15,15,64,134.258944261,8.65953870743e-06,136.961013153,2.70207883452,,,,,z,1,2.68438322756,2018_Nov_15_1541,59.9890524923,chinese_cond1,001,1041,
images/coffeepot03b.jpg,coffee pot,z,sounds/greatgatsby_english.wav,,,,,,,,,0,0,0,0,0,16,16,107,138.15644515,8.98026223695e-06,139.444878989,1.28844346075,,,,,z,1,1.2672404199,2018_Nov_15_1541,59.9890524923,chinese_cond1,001,1041,
images/raisin.jpg,ruler,x,sounds/greatgatsby_english.wav,,,,,,,,,0,0,0,0,0,17,17,218,140.618191638,8.98026246432e-06,141.728798002,1.11061630578,,,,,z,0,1.10052409452,2018_Nov_15_1541,59.9890524923,chinese_cond1,001,1041,
images/umbrella01.jpg,umbrella,z,sounds/greatgatsby_english.wav,,,,,,,,,0,0,0,0,0,18,18,53,142.921052589,8.65953870743e-06,143.996071135,1.07502784683,,,,,z,1,1.05053225694,2018_Nov_15_1541,59.9890524923,chinese_cond1,001,1041,
images/bullet (2).jpg,rubber glove,x,sounds/greatgatsby_english.wav,,,,,,,,,0,0,0,0,0,19,19,217,145.17897727,8.98026246432e-06,147.980601671,2.80163530577,,,,,x,1,2.78446728923,2018_Nov_15_1541,59.9890524923,chinese_cond1,001,1041,
images/giraffe.jpg,lettuce,x,sounds/greatgatsby_english.wav,,,,,,,,,0,0,0,0,0,20,20,195,149.161345166,9.30098599383e-06,150.14764738,0.98631183512,,,,,z,0,0.967086697056,2018_Nov_15_1541,59.9890524923,chinese_cond1,001,1041,
images/bandaid01.jpg,door handle,x,sounds/greatgatsby_english.wav,,,,,,,,,0,0,0,0,0,21,21,170,151.321556575,8.98026223695e-06,153.681901147,2.36035387365,,,,,x,1,2.35084634162,2018_Nov_15_1541,59.9890524923,chinese_cond1,001,1041,
images/cake.jpg,cake,z,sounds/greatgatsby_english.wav,,,,,,,,,0,0,0,0,0,22,22,23,154.825827812,8.65953870743e-06,156.299337481,1.47351897032,,,,,x,0,1.45071166975,2018_Nov_15_1541,59.9890524923,chinese_cond1,001,1041,
images/bracelet02a.jpg,chess knight,x,sounds/greatgatsby_english.wav,,,,,,,,,0,0,0,0,0,23,23,152,157.477478304,8.98026223695e-06,159.90019593,2.42272692722,,,,,x,1,2.400606296,2018_Nov_15_1541,59.9890524923,chinese_cond1,001,1041,
images/corkscrew02a.jpg,masquerade mask,x,sounds/greatgatsby_english.wav,,,,,,,,,0,0,0,0,0,24,24,201,161.069953036,9.30098599383e-06,164.067768588,2.99782677651,,,,,None,0,,2018_Nov_15_1541,59.9890524923,chinese_cond1,001,1041,
images/fryingpan01.jpg,frying pan,z,sounds/greatgatsby_english.wav,,,,,,,,,0,0,0,0,0,25,25,45,165.234779658,8.65953870743e-06,166.685266501,1.45049646418,,,,,z,1,1.43394648213,2018_Nov_15_1541,59.9890524923,chinese_cond1,001,1041,
images/table02.jpg,table,z,sounds/greatgatsby_english.wav,,,,,,,,,0,0,0,0,0,26,26,49,167.872198679,9.30098599383e-06,169.035870696,1.1636822796,,,,,z,1,1.15053228901,2018_Nov_15_1541,59.9890524923,chinese_cond1,001,1041,
images/battery03b.jpg,battery,z,sounds/greatgatsby_english.wav,,,,,,,,,0,0,0,0,0,27,27,34,170.176320075,8.98026223695e-06,170.953037718,0.776727585987,,,,,z,1,0.767104272712,2018_Nov_15_1541,59.9890524923,chinese_cond1,001,1041,
images/50dollarbill.jpg,cherry,x,sounds/greatgatsby_english.wav,,,,,,,,,0,0,0,0,0,28,28,151,172.132973631,8.65953870743e-06,174.103873091,1.97090908158,,,,,x,1,1.95076090084,2018_Nov_15_1541,59.9890524923,chinese_cond1,001,1041,
images/cauliflower01.jpg,glue stick,x,sounds/greatgatsby_english.wav,,,,,,,,,0,0,0,0,0,29,29,181,175.288754242,8.65953870743e-06,176.771212743,1.48246780175,,,,,x,1,1.46728666826,2018_Nov_15_1541,59.9890524923,chinese_cond1,001,1041,
images/worldmap.jpg,scooter,x,sounds/greatgatsby_english.wav,,,,,,,,,0,0,0,0,0,30,30,220,177.991394984,1.09046043235e-05,180.13877039,2.14738695213,,,,,x,1,2.13410193688,2018_Nov_15_1541,59.9890524923,chinese_cond1,001,1041,
images/pineapple01a.jpg,pineapple,z,sounds/greatgatsby_english.wav,,,,,,,,,0,0,0,0,0,31,31,51,181.334140167,8.98026246432e-06,182.406011131,1.07188122705,,,,,z,1,1.05051493786,2018_Nov_15_1541,59.9890524923,chinese_cond1,001,1041,
images/doorhandle.jpg,doll,x,sounds/greatgatsby_english.wav,,,,,,,,,0,0,0,0,0,32,32,168,183.539883109,8.98026246432e-06,185.690194099,2.15032093213,,,,,x,1,2.13412727405,2018_Nov_15_1541,59.9890524923,chinese_cond1,001,1041,
images/tank.jpg,wallet,x,sounds/greatgatsby_english.wav,,,,,,,,,0,0,0,0,0,33,33,237,186.86532044,9.30098599383e-06,188.407569848,1.54225935062,,,,,x,1,1.53398500104,2018_Nov_15_1541,59.9890524923,chinese_cond1,001,1041,
images/ear.jpg,bullet,x,sounds/greatgatsby_english.wav,,,,,,,,,0,0,0,0,0,34,34,139,189.60607534,8.98026246432e-06,190.691486615,1.08542089688,,,,,x,1,1.06717941827,2018_Nov_15_1541,59.9890524923,chinese_cond1,001,1041,
images/screw03c.jpg,screw,z,sounds/greatgatsby_english.wav,,,,,,,,,0,0,0,0,0,35,35,84,191.811284918,8.98026223695e-06,193.55890138,1.74762576296,,,,,z,1,1.73403060794,2018_Nov_15_1541,59.9890524923,chinese_cond1,001,1041,
images/dice05a.jpg,band aid,x,sounds/greatgatsby_english.wav,,,,,,,,,0,0,0,0,0,36,36,126,194.741133675,8.98026223695e-06,197.509930406,2.7688069946,,,,,x,1,2.75094364917,2018_Nov_15_1541,59.9890524923,chinese_cond1,001,1041,
images/tulip02.jpg,sport shorts,x,sounds/greatgatsby_english.wav,,,,,,,,,0,0,0,0,0,37,37,225,198.663095195,9.30098599383e-06,201.127897538,2.46481260598,,,,,x,1,2.4512370151,2018_Nov_15_1541,59.9890524923,chinese_cond1,001,1041,
images/notebook02b.jpg,notebook,z,sounds/greatgatsby_english.wav,,,,,,,,,0,0,0,0,0,38,38,7,202.281919942,9.30098599383e-06,203.311434536,1.02952485753,,,,,z,1,1.01717956259,2018_Nov_15_1541,59.9890524923,chinese_cond1,001,1041,
images/leaf01a.jpg,leaf,z,sounds/greatgatsby_english.wav,,,,,,,,,0,0,0,0,0,39,39,68,204.472191816,8.65953870743e-06,206.112150968,1.63996909507,,,,,z,1,1.6173231185,2018_Nov_15_1541,59.9890524923,chinese_cond1,001,1041,
images/lychee02a.jpg,lychee,z,sounds/greatgatsby_english.wav,,,,,,,,,0,0,0,0,0,40,40,62,207.297650154,8.98026246432e-06,208.37941448,1.08177458964,,,,,z,1,1.06718647419,2018_Nov_15_1541,59.9890524923,chinese_cond1,001,1041,
images/key03b.jpg,cigar,x,sounds/greatgatsby_english.wav,,,,,,,,,0,0,0,0,0,41,41,153,209.508565086,8.98026246432e-06,210.479954611,0.971399147324,,,,,x,1,0.9504892479,2018_Nov_15_1541,59.9890524923,chinese_cond1,001,1041,
images/straw.jpg,straw,z,sounds/greatgatsby_english.wav,,,,,,,,,0,0,0,0,0,42,42,109,211.640025863,9.30098599383e-06,213.280684835,1.6406705177,,,,,z,1,1.61734107902,2018_Nov_15_1541,59.9890524923,chinese_cond1,001,1041,
images/knife04.jpg,tooth brush,x,sounds/greatgatsby_english.wav,,,,,,,,,0,0,0,0,0,43,43,233,214.460437615,8.98026246432e-06,216.098080822,1.63765347028,,,,,x,1,1.61733434383,2018_Nov_15_1541,59.9890524923,chinese_cond1,001,1041,
images/gamecontroller01.jpg,game controller,z,sounds/greatgatsby_english.wav,,,,,,,,,0,0,0,0,0,44,44,112,217.300924101,8.65953870743e-06,218.898803989,1.59788918934,,,,,z,1,1.58398966757,2018_Nov_15_1541,59.9890524923,chinese_cond1,001,1041,
images/hand01a.jpg,cupcake,x,sounds/greatgatsby_english.wav,,,,,,,,,0,0,0,0,0,45,45,163,220.092122097,8.65953870743e-06,221.982941992,1.89082983718,,,,,x,1,1.86740033272,2018_Nov_15_1541,59.9890524923,chinese_cond1,001,1041,
images/skateboard.jpg,key,x,sounds/greatgatsby_english.wav,,,,,,,,,0,0,0,0,0,46,46,189,223.144164642,8.98026246432e-06,224.266860683,1.12270598397,,,,,x,1,1.10025115869,2018_Nov_15_1541,59.9890524923,chinese_cond1,001,1041,
images/hat05.jpg,hat,z,sounds/greatgatsby_english.wav,,,,,,,,,0,0,0,0,0,47,47,15,225.408166394,9.30098599383e-06,226.434097864,1.02594173285,,,,,z,1,1.01717763825,2018_Nov_15_1541,59.9890524923,chinese_cond1,001,1041,
images/dreamcatcher.jpg,dream catcher,z,sounds/greatgatsby_english.wav,,,,,,,,,0,0,0,0,0,48,48,48,227.613355125,8.98026223695e-06,230.601691689,2.98834618526,,,,,None,0,,2018_Nov_15_1541,59.9890524923,chinese_cond1,001,1041,
images/ant.jpg,ant,z,sounds/greatgatsby_english.wav,,,,,,,,,0,0,0,0,0,49,49,98,231.728988832,9.30098599383e-06,232.635699301,0.906720090675,,,,,z,1,0.883801498998,2018_Nov_15_1541,59.9890524923,chinese_cond1,001,1041,
images/beermug01b.jpg,beer mug,z,sounds/greatgatsby_english.wav,,,,,,,,,0,0,0,0,0,50,50,111,233.8286412,9.30098599383e-06,235.419750291,1.59111967515,,,,,z,1,1.56731460329,2018_Nov_15_1541,59.9890524923,chinese_cond1,001,1041,
images/panda.jpg,panda,z,sounds/greatgatsby_english.wav,,,,,,,,,0,0,0,0,0,51,51,83,236.599806155,8.98026246432e-06,237.570312087,0.97051523293,,,,,z,1,0.950497265991,2018_Nov_15_1541,59.9890524923,chinese_cond1,001,1041,
images/safe.jpg,safe,z,sounds/greatgatsby_english.wav,,,,,,,,,0,0,0,0,0,52,52,78,238.806899343,9.62170975072e-06,240.604429386,1.79754928641,,,,,z,1,1.78403591592,2018_Nov_15_1541,59.9890524923,chinese_cond1,001,1041,
images/lightswitch02a.jpg,fork,x,sounds/greatgatsby_english.wav,,,,,,,,,0,0,0,0,0,53,53,177,241.79115534,9.62170975072e-06,243.43849274,1.64734766348,,,,,x,1,1.63393500022,2018_Nov_15_1541,59.9890524923,chinese_cond1,001,1041,
images/tape01a.jpg,tie,x,sounds/greatgatsby_english.wav,,,,,,,,,0,0,0,0,0,54,54,232,244.631169079,9.30098599383e-06,245.52237288,0.891213743394,,,,,x,1,0.866908663355,2018_Nov_15_1541,59.9890524923,chinese_cond1,001,1041,
images/sportshorts02.jpg,tape,x,sounds/greatgatsby_english.wav,,,,,,,,,0,0,0,0,0,55,55,230,246.689205949,9.30098599383e-06,248.406453088,1.7172570815,,,,,x,1,1.70068272444,2018_Nov_15_1541,59.9890524923,chinese_cond1,001,1041,
images/fork01.jpg,cooking pot,x,sounds/greatgatsby_english.wav,,,,,,,,,0,0,0,0,0,56,56,160,249.534027337,8.98026223695e-06,252.224265054,2.69024701815,,,,,x,1,2.66776140341,2018_Nov_15_1541,59.9890524923,chinese_cond1,001,1041,
images/toothbrush03a.jpg,parrot,x,sounds/greatgatsby_english.wav,,,,,,,,,0,0,0,0,0,57,57,210,253.378856101,9.30098599383e-06,254.5580412,1.17919504136,,,,,x,1,1.16721537139,2018_Nov_15_1541,59.9890524923,chinese_cond1,001,1041,
images/bull.jpg,button,x,sounds/greatgatsby_english.wav,,,,,,,,,0,0,0,0,0,58,58,141,255.689263359,8.65953870743e-06,256.991994096,1.30274067985,,,,,x,1,1.28389239208,2018_Nov_15_1541,59.9890524923,chinese_cond1,001,1041,
images/flower01.jpg,bus,x,sounds/greatgatsby_english.wav,,,,,,,,,0,0,0,0,0,59,59,140,258.125319882,8.98026246432e-06,259.409304963,1.28399470293,,,,,x,1,1.26724234425,2018_Nov_15_1541,59.9890524923,chinese_cond1,001,1041,
images/dresser02.jpg,dresser,z,sounds/greatgatsby_english.wav,,,,,,,,,0,0,0,0,0,60,60,87,260.557818297,9.30098599383e-06,261.976652922,1.41884424665,,,,,z,1,1.4006239358,2018_Nov_15_1541,59.9890524923,chinese_cond1,001,1041,
images/lighter02b.jpg,stapler,x,sounds/greatgatsby_english.wav,,,,,,,,,0,0,0,0,0,61,61,227,263.121547209,8.98026246432e-06,265.544374844,2.42283757688,,,,,x,1,2.40100591767,2018_Nov_15_1541,59.9890524923,chinese_cond1,001,1041,
images/ladybug03.jpg,giraffe,x,sounds/greatgatsby_english.wav,,,,,,,,,0,0,0,0,0,62,62,178,266.719718956,8.98026223695e-06,267.811483767,1.09177507393,,,,,z,0,1.08386314208,2018_Nov_15_1541,59.9890524923,chinese_cond1,001,1041,
images/corn01.jpg,corn,z,sounds/greatgatsby_english.wav,,,,,,,,,0,0,0,0,0,63,63,22,268.985433694,8.98026246432e-06,270.295469554,1.31004548182,,,,,x,0,1.30059118991,2018_Nov_15_1541,59.9890524923,chinese_cond1,001,1041,
images/sunglasses03a.jpg,sun glasses,z,sounds/greatgatsby_english.wav,,,,,,,,,0,0,0,0,0,64,64,17,271.427037453,9.62170952334e-06,272.696078736,1.26905186711,,,,,z,1,1.25056824214,2018_Nov_15_1541,59.9890524923,chinese_cond1,001,1041,
images/charcoalbarbecue.jpg,charcoal barbecue,z,sounds/greatgatsby_english.wav,,,,,,,,,0,0,0,0,0,65,65,77,273.887631902,9.30098599383e-06,275.64684541,1.75922345106,,,,,z,1,1.75070150281,2018_Nov_15_1541,59.9890524923,chinese_cond1,001,1041,
images/lightbulb03b.jpg,treadmill,x,sounds/greatgatsby_english.wav,,,,,,,,,0,0,0,0,0,66,66,234,276.818786003,9.30098599383e-06,278.364221801,1.54544606086,,,,,x,1,1.53398083163,2018_Nov_15_1541,59.9890524923,chinese_cond1,001,1041,
images/broadsword.jpg,teapot,x,sounds/greatgatsby_english.wav,,,,,,,,,0,0,0,0,0,67,67,231,279.5186852,8.98026246432e-06,281.681780234,2.16312357899,,,,,x,1,2.15080746991,2018_Nov_15_1541,59.9890524923,chinese_cond1,001,1041,
images/chameleon.jpg,50 dollar bill,x,sounds/greatgatsby_english.wav,,,,,,,,,0,0,0,0,0,68,68,120,282.864575719,9.62170975072e-06,284.932577152,2.06801137543,,,,,x,1,2.05075965001,2018_Nov_15_1541,59.9890524923,chinese_cond1,001,1041,
images/diploma01.jpg,glasses,x,sounds/greatgatsby_english.wav,,,,,,,,,0,0,0,0,0,69,69,179,286.129125268,8.98026223695e-06,287.766658788,1.63754346206,,,,,x,1,1.61733915468,2018_Nov_15_1541,59.9890524923,chinese_cond1,001,1041,
images/cloud.jpg,ceiling fan,x,sounds/greatgatsby_english.wav,,,,,,,,,0,0,0,0,0,70,70,149,288.944537258,8.98026246432e-06,290.534034072,1.58950675588,,,,,x,1,1.56731556546,2018_Nov_15_1541,59.9890524923,chinese_cond1,001,1041,
images/parrot01.jpg,chameleon,x,sounds/greatgatsby_english.wav,,,,,,,,,0,0,0,0,0,71,71,150,291.647863708,8.98026246432e-06,293.068021639,1.4201681939,,,,,z,0,1.40060854106,2018_Nov_15_1541,59.9890524923,chinese_cond1,001,1041,
images/cherry01.jpg,highlighter,x,sounds/greatgatsby_english.wav,,,,,,,,,0,0,0,0,0,72,72,187,294.248082313,9.30098599383e-06,297.252564426,3.00449205551,,,,,None,0,,2018_Nov_15_1541,59.9890524923,chinese_cond1,001,1041,
images/mattress.jpg,cat,x,sounds/greatgatsby_english.wav,,,,,,,,,0,0,0,0,0,73,73,147,298.426955669,9.30098599383e-06,299.386325755,0.959380669793,,,,,x,1,0.950491172242,2018_Nov_15_1541,59.9890524923,chinese_cond1,001,1041,
images/grandpiano.jpg,tulip,x,sounds/greatgatsby_english.wav,,,,,,,,,0,0,0,0,0,74,74,236,300.565446709,9.30098599383e-06,301.853638081,1.28820163511,,,,,x,1,1.26724458931,2018_Nov_15_1541,59.9890524923,chinese_cond1,001,1041,
images/electrictoothbrush01a.jpg,banjo,x,sounds/greatgatsby_english.wav,,,,,,,,,0,0,0,0,0,75,75,127,302.972673382,1.44325645124e-05,303.920843478,0.948181320477,,,,,x,1,0.933825408947,2018_Nov_15_1541,59.9890524923,chinese_cond1,001,1041,
images/diaper01a.jpg,camera,x,sounds/greatgatsby_english.wav,,,,,,,,,0,0,0,0,0,76,76,143,305.121097555,9.30098599383e-06,306.821593939,1.70050664716,,,,,x,1,1.68401856477,2018_Nov_15_1541,59.9890524923,chinese_cond1,001,1041,
images/flipflop01b.jpg,flip flop,z,sounds/greatgatsby_english.wav,,,,,,,,,0,0,0,0,0,77,77,27,308.01546337,9.30098599383e-06,309.622353028,1.60689992043,,,,,z,1,1.58402815441,2018_Nov_15_1541,59.9890524923,chinese_cond1,001,1041,
images/acousticguitar02.jpg,acoustic guitar,z,sounds/greatgatsby_english.wav,,,,,,,,,0,0,0,0,0,78,78,97,310.798168604,9.30098599383e-06,311.906244778,1.10808547542,,,,,z,1,1.0838647457,2018_Nov_15_1541,59.9890524923,chinese_cond1,001,1041,
images/mirror02.jpg,8 ball,x,sounds/greatgatsby_english.wav,,,,,,,,,0,0,0,0,0,79,79,121,313.072075906,8.98026246432e-06,314.573605919,1.50153963391,,,,,x,1,1.48397359931,2018_Nov_15_1541,59.9890524923,chinese_cond1,001,1041,
images/gluestick.jpg,squirrel,x,sounds/greatgatsby_english.wav,,,,,,,,,0,0,0,0,0,80,80,226,315.755731091,9.30098599383e-06,317.741086208,1.98536505889,,,,,x,1,1.96742473979,2018_Nov_15_1541,59.9890524923,chinese_cond1,001,1041,
images/pouch01b.jpg,pouch,z,sounds/greatgatsby_english.wav,,,,,,,,,0,0,0,0,0,81,81,25,318.93207971,9.62170975072e-06,320.508470472,1.57640070444,,,,,x,0,1.56729728421,2018_Nov_15_1541,59.9890524923,chinese_cond1,001,1041,
images/coin01b.jpg,arrow,x,sounds/greatgatsby_english.wav,,,,,,,,,0,0,0,0,0,82,82,124,321.686577619,9.30098599383e-06,324.226090292,2.53952293639,,,,,z,0,2.51755112095,2018_Nov_15_1541,59.9890524923,chinese_cond1,001,1041,
images/lollipop03b.jpg,lollipop,z,sounds/greatgatsby_english.wav,,,,,,,,,0,0,0,0,0,83,83,42,325.390454751,9.30098622121e-06,327.660338896,2.26989440815,,,,,z,1,2.25084630955,2018_Nov_15_1541,59.9890524923,chinese_cond1,001,1041,
images/atm.jpg,atm,z,sounds/greatgatsby_english.wav,,,,,,,,,0,0,0,0,0,84,84,96,328.861074379,9.30098599383e-06,329.644173141,0.783109024554,,,,,z,1,0.767116780935,2018_Nov_15_1541,59.9890524923,chinese_cond1,001,1041,
images/puzzle.jpg,puzzle,z,sounds/greatgatsby_english.wav,,,,,,,,,0,0,0,0,0,85,85,57,330.828833955,8.98026223695e-06,331.678040917,0.849216905087,,,,,z,1,0.833802926218,2018_Nov_15_1541,59.9890524923,chinese_cond1,001,1041,
images/ashtray02b.jpg,ashtray,z,sounds/greatgatsby_english.wav,,,,,,,,,0,0,0,0,0,86,86,43,332.857490934,9.62170975072e-06,334.478765368,1.62128533854,,,,,z,1,1.60066633547,2018_Nov_15_1541,59.9890524923,chinese_cond1,001,1041,
images/antelope.jpg,antelope,z,sounds/greatgatsby_english.wav,,,,,,,,,0,0,0,0,0,87,87,12,335.652610097,8.98026246432e-06,337.346160248,1.69355977279,,,,,z,1,1.68401150885,2018_Nov_15_1541,59.9890524923,chinese_cond1,001,1041,
images/gps.jpg,gps,z,sounds/greatgatsby_english.wav,,,,,,,,,0,0,0,0,0,88,88,21,338.529262345,8.98026223695e-06,339.980026293,1.45077453159,,,,,z,1,1.43379317622,2018_Nov_15_1541,59.9890524923,chinese_cond1,001,1041,
images/wallet01.jpg,lamp,x,sounds/greatgatsby_english.wav,,,,,,,,,0,0,0,0,0,89,89,193,341.175766505,9.30098622121e-06,344.164438546,2.988684228,,,,,None,0,,2018_Nov_15_1541,59.9890524923,chinese_cond1,001,1041,
images/icecube02 (2).jpg,aloe,x,sounds/greatgatsby_english.wav,,,,,,,,,0,0,0,0,0,90,90,122,345.345777946,9.94243328023e-06,347.198710755,1.85294243107,,,,,x,1,1.83404603475,2018_Nov_15_1541,59.9890524923,chinese_cond1,001,1041,
images/leek.jpg,donut,x,sounds/greatgatsby_english.wav,,,,,,,,,0,0,0,0,0,91,91,169,348.371607746,9.30098599383e-06,351.366302656,2.99470485245,,,,,None,0,,2018_Nov_15_1541,59.9890524923,chinese_cond1,001,1041,
images/scooter.jpg,pen,x,sounds/greatgatsby_english.wav,,,,,,,,,0,0,0,0,0,92,92,212,352.527940322,9.30098599383e-06,353.833769892,1.30583919108,,,,,x,1,1.28389880656,2018_Nov_15_1541,59.9890524923,chinese_cond1,001,1041,
images/candy.jpg,candy,z,sounds/greatgatsby_english.wav,,,,,,,,,0,0,0,0,0,93,93,31,354.961159724,8.98026223695e-06,356.251067609,1.28991782739,,,,,z,1,1.26723881629,2018_Nov_15_1541,59.9890524923,chinese_cond1,001,1041,
images/lip.jpg,boxing glove,x,sounds/greatgatsby_english.wav,,,,,,,,,0,0,0,0,0,94,94,136,357.385436709,9.30098599383e-06,360.385309702,2.99988389804,,,,,None,0,,2018_Nov_15_1541,59.9890524923,chinese_cond1,001,1041,
images/carrot02.jpg,corkscrew,x,sounds/greatgatsby_english.wav,,,,,,,,,0,0,0,0,0,95,95,161,361.559638083,9.30098599383e-06,362.90278417,1.34315635054,,,,,z,0,1.33358595667,2018_Nov_15_1541,59.9890524923,chinese_cond1,001,1041,
images/dryingmachine01.jpg,drying machine,z,sounds/greatgatsby_english.wav,,,,,,,,,0,0,0,0,0,96,96,18,364.049880226,9.30098599383e-06,367.053709025,3.00383906215,,,,,None,0,,2018_Nov_15_1541,59.9890524923,chinese_cond1,001,1041,
images/honeycomb.jpg,honey comb,z,sounds/greatgatsby_english.wav,,,,,,,,,0,0,0,0,0,97,97,59,368.253720956,9.30098599383e-06,370.271358832,2.01764813985,,,,,x,0,2.00075370059,2018_Nov_15_1541,59.9890524923,chinese_cond1,001,1041,
images/squirrel.jpg,binder,x,sounds/greatgatsby_english.wav,,,,,,,,,0,0,0,0,0,98,98,132,371.445317739,9.30098599383e-06,374.438954582,2.99364742656,,,,,None,0,,2018_Nov_15_1541,59.9890524923,chinese_cond1,001,1041,
images/cockroach02.jpg,belt,x,sounds/greatgatsby_english.wav,,,,,,,,,0,0,0,0,0,99,99,129,375.613796441,9.30098599383e-06,376.823065098,1.20927892021,,,,,z,0,1.20056293416,2018_Nov_15_1541,59.9890524923,chinese_cond1,001,1041,
images/desktopcomputer.jpg,desktop computer,z,sounds/greatgatsby_english.wav,,,,,,,,,0,0,0,0,0,100,100,16,378.029048583,8.98026223695e-06,379.540436037,1.51139707545,,,,,z,1,1.50063198596,2018_Nov_15_1541,59.9890524923,chinese_cond1,001,1041,
images/electricguitar02.jpg,electric guitar,z,sounds/greatgatsby_english.wav,,,,,,,,,0,0,0,0,0,101,101,100,380.712761819,9.62170952334e-06,381.75767179,1.0449199137,,,,,z,1,1.03384596733,2018_Nov_15_1541,59.9890524923,chinese_cond1,001,1041,
images/barrel01.jpg,barrel,z,sounds/greatgatsby_english.wav,,,,,,,,,0,0,0,0,0,102,102,9,382.958319716,8.98026223695e-06,383.824867886,0.8665581124,,,,,z,1,0.850452011883,2018_Nov_15_1541,59.9890524923,chinese_cond1,001,1041,
images/teapot.jpg,light switch,x,sounds/greatgatsby_english.wav,,,,,,,,,0,0,0,0,0,103,103,197,385.00301801,9.62170975072e-06,387.109054702,2.10604727659,,,,,x,1,2.0841088164,2018_Nov_15_1541,59.9890524923,chinese_cond1,001,1041,
images/aquarium.jpg,computer mouse,x,sounds/greatgatsby_english.wav,,,,,,,,,0,0,0,0,0,104,104,159,388.313102299,9.30098599383e-06,390.143185472,1.83009279498,,,,,x,1,1.81738925172,2018_Nov_15_1541,59.9890524923,chinese_cond1,001,1041,
images/lily.jpg,kiwi,x,sounds/greatgatsby_english.wav,,,,,,,,,0,0,0,0,0,105,105,190,391.315310161,9.30098599383e-06,392.993908175,1.6786079567,,,,,z,0,1.66731495608,2018_Nov_15_1541,59.9890524923,chinese_cond1,001,1041,
images/envelope02a.jpg,grand piano,x,sounds/greatgatsby_english.wav,,,,,,,,,0,0,0,0,0,106,106,182,394.199661059,8.65953870743e-06,395.911335625,1.71168386654,,,,,x,1,1.70068272444,2018_Nov_15_1541,59.9890524923,chinese_cond1,001,1041,
images/lantern03.jpg,lantern,z,sounds/greatgatsby_english.wav,,,,,,,,,0,0,0,0,0,107,107,5,397.092342755,8.98026246432e-06,399.062157207,1.96982375273,,,,,z,1,1.95074710972,2018_Nov_15_1541,59.9890524923,chinese_cond1,001,1041,
images/orange.jpg,bat,x,sounds/greatgatsby_english.wav,,,,,,,,,0,0,0,0,0,108,108,128,400.251468193,8.98026246432e-06,401.312573105,1.06111517539,,,,,x,1,1.05035393459,2018_Nov_15_1541,59.9890524923,chinese_cond1,001,1041,
images/spoon02b.jpg,spoon,z,sounds/greatgatsby_english.wav,,,,,,,,,0,0,0,0,0,109,109,38,402.456596628,8.98026223695e-06,403.496639939,1.04005261151,,,,,z,1,1.01717186522,2018_Nov_15_1541,59.9890524923,chinese_cond1,001,1041,
images/floorlamp.jpg,floor lamp,z,sounds/greatgatsby_english.wav,,,,,,,,,0,0,0,0,0,110,110,26,404.652904522,9.30098599383e-06,405.747238008,1.09434374969,,,,,z,1,1.08387565031,2018_Nov_15_1541,59.9890524923,chinese_cond1,001,1041,
images/blueberry02.jpg,blueberry,z,sounds/greatgatsby_english.wav,,,,,,,,,0,0,0,0,0,111,111,46,406.92751902,8.65953870743e-06,407.781073712,0.853564634957,,,,,z,1,0.833777909774,2018_Nov_15_1541,59.9890524923,chinese_cond1,001,1041,
images/pen03c.jpg,pepper,x,sounds/greatgatsby_english.wav,,,,,,,,,0,0,0,0,0,112,112,211,408.936864586,9.62170952334e-06,410.915226003,1.97837200031,,,,,x,1,1.96741062795,2018_Nov_15_1541,59.9890524923,chinese_cond1,001,1041,
images/comb02a.jpg,diploma,x,sounds/greatgatsby_english.wav,,,,,,,,,0,0,0,0,0,113,113,166,412.092930962,8.33881495055e-06,414.416138301,2.32321696089,,,,,x,1,2.30084007147,2018_Nov_15_1541,59.9890524923,chinese_cond1,001,1041,
images/screwdriver02b.jpg,cola,x,sounds/greatgatsby_english.wav,,,,,,,,,0,0,0,0,0,114,114,158,415.574250894,8.98026246432e-06,417.11684091,1.54259963842,,,,,x,1,1.53394555203,2018_Nov_15_1541,59.9890524923,chinese_cond1,001,1041,
images/banjo.jpg,knife,x,sounds/greatgatsby_english.wav,,,,,,,,,0,0,0,0,0,115,115,191,418.284466487,8.98026223695e-06,420.067598604,1.78314205909,,,,,x,1,1.76736886973,2018_Nov_15_1541,59.9890524923,chinese_cond1,001,1041,
images/highlighter03b.jpg,coin,x,sounds/greatgatsby_english.wav,,,,,,,,,0,0,0,0,0,116,116,156,421.259286153,8.98026223695e-06,422.584919766,1.32564355607,,,,,x,1,1.31725599104,2018_Nov_15_1541,59.9890524923,chinese_cond1,001,1041,
images/axe01.jpg,axe,z,sounds/greatgatsby_english.wav,,,,,,,,,0,0,0,0,0,117,117,104,423.728266242,8.65953870743e-06,425.018877153,1.29062053292,,,,,z,1,1.26722694951,2018_Nov_15_1541,59.9890524923,chinese_cond1,001,1041,
images/eraser.jpg,eraser,z,sounds/greatgatsby_english.wav,,,,,,,,,0,0,0,0,0,118,118,110,426.153182108,8.98026223695e-06,427.236124452,1.08295164546,,,,,z,1,1.0671771732,2018_Nov_15_1541,59.9890524923,chinese_cond1,001,1041,
images/flamingo.jpg,flamingo,z,sounds/greatgatsby_english.wav,,,,,,,,,0,0,0,0,0,119,119,52,428.354189565,8.65953870743e-06,429.303319907,0.949139963482,,,,,z,1,0.933812259277,2018_Nov_15_1541,59.9890524923,chinese_cond1,001,1041,
images/ladder.jpg,ladder,z,sounds/greatgatsby_english.wav,,,,,,,,,0,0,0,0,0,120,120,113,430.476264365,9.30098599383e-06,431.887334912,1.41108048913,,,,,x,0,1.40060757889,2018_Nov_15_1541,59.9890524923,chinese_cond1,001,1041,
images/paintbrush03a.jpg,paint brush,z,sounds/greatgatsby_english.wav,,,,,,,,,0,0,0,0,0,121,121,0,433.053418449,9.62170952334e-06,434.621385404,1.56797721836,,,,,z,1,1.5506530094,2018_Nov_15_1541,59.9890524923,chinese_cond1,001,1041,
images/lamp04b.jpg,parking meter,x,sounds/greatgatsby_english.wav,,,,,,,,,0,0,0,0,0,122,122,209,435.783956697,8.98026223695e-06,437.805529212,2.02158309838,,,,,x,1,2.0007524177,2018_Nov_15_1541,59.9890524923,chinese_cond1,001,1041,
images/cupcake.jpg,scissors,x,sounds/greatgatsby_english.wav,,,,,,,,,0,0,0,0,0,123,123,219,439.044988869,9.62170975072e-06,439.906069984,0.861091056974,,,,,x,1,0.850456181291,2018_Nov_15_1541,59.9890524923,chinese_cond1,001,1041,
images/mushroom01.jpg,shower head,x,sounds/greatgatsby_english.wav,,,,,,,,,0,0,0,0,0,124,124,222,441.093808783,9.62170952334e-06,442.923528897,1.82973005652,,,,,x,1,1.81737963001,2018_Nov_15_1541,59.9890524923,chinese_cond1,001,1041,
images/hairpin.jpg,hair pin,z,sounds/greatgatsby_english.wav,,,,,,,,,0,0,0,0,0,125,125,28,444.080128636,8.98026223695e-06,446.541136497,2.46101780369,,,,,z,1,2.45088774704,2018_Nov_15_1541,59.9890524923,chinese_cond1,001,1041,
images/remotecontrol01c.jpg,remote control,z,sounds/greatgatsby_english.wav,,,,,,,,,0,0,0,0,0,126,126,85,447.721759079,8.98026246432e-06,450.225416772,2.50366699391,,,,,z,1,2.48421285916,2018_Nov_15_1541,59.9890524923,chinese_cond1,001,1041,
images/nametag01a.jpg,name tag,z,sounds/greatgatsby_english.wav,,,,,,,,,0,0,0,0,0,127,127,108,451.421004962,9.30098599383e-06,453.109492811,1.68849779134,,,,,z,1,1.66733997253,2018_Nov_15_1541,59.9890524923,chinese_cond1,001,1041,
images/bicycle.jpg,hand bag,x,sounds/greatgatsby_english.wav,,,,,,,,,0,0,0,0,0,128,128,186,454.350257172,8.65953870743e-06,455.893550857,1.54330330612,,,,,x,1,1.53398500104,2018_Nov_15_1541,59.9890524923,chinese_cond1,001,1041,
images/camera01a.jpg,bull,x,sounds/greatgatsby_english.wav,,,,,,,,,0,0,0,0,0,129,129,138,457.073955347,9.30098599383e-06,458.677440523,1.60349575955,,,,,x,1,1.58381615607,2018_Nov_15_1541,59.9890524923,chinese_cond1,001,1041,
images/baseball01a.jpg,baseball,z,sounds/greatgatsby_english.wav,,,,,,,,,0,0,0,0,0,130,130,74,459.830305755,9.30098599383e-06,460.794815438,0.964519304197,,,,,z,1,0.950476418953,2018_Nov_15_1541,59.9890524923,chinese_cond1,001,1041,
images/dolphin01.jpg,dolphin,z,sounds/greatgatsby_english.wav,,,,,,,,,0,0,0,0,0,131,131,99,461.994004071,9.30098599383e-06,464.629150765,2.63515695735,,,,,z,1,2.61758771551,2018_Nov_15_1541,59.9890524923,chinese_cond1,001,1041,
images/bottleofredwine02.jpg,pipe,x,sounds/greatgatsby_english.wav,,,,,,,,,0,0,0,0,0,132,132,213,465.801882263,9.30098599383e-06,466.946409643,1.14453764318,,,,,x,1,1.13377576092,2018_Nov_15_1541,59.9890524923,chinese_cond1,001,1041,
images/thumbtack02a.jpg,thumb tack,z,sounds/greatgatsby_english.wav,,,,,,,,,0,0,0,0,0,133,133,60,468.082988849,9.30098599383e-06,470.197258518,2.11427961137,,,,,z,1,2.10078901226,2018_Nov_15_1541,59.9890524923,chinese_cond1,001,1041,
images/bowl02b (1).jpg,bowl,z,sounds/greatgatsby_english.wav,,,,,,,,,0,0,0,0,0,134,134,24,471.381715673,9.94243328023e-06,472.131091945,0.749387177276,,,,,z,1,0.733768897439,2018_Nov_15_1541,59.9890524923,chinese_cond1,001,1041,
images/candle08a.jpg,screw driver,x,sounds/greatgatsby_english.wav,,,,,,,,,0,0,0,0,0,135,135,221,473.3056923,9.62170975072e-06,474.398345515,1.09266379918,,,,,z,0,1.08384614373,2018_Nov_15_1541,59.9890524923,chinese_cond1,001,1041,
images/medal01.jpg,medal,z,sounds/greatgatsby_english.wav,,,,,,,,,0,0,0,0,0,136,136,115,475.524935783,9.62170952334e-06,476.915660583,1.39073474261,,,,,x,0,1.36725873323,2018_Nov_15_1541,59.9890524923,chinese_cond1,001,1041,
images/gorilla.jpg,gorilla,z,sounds/greatgatsby_english.wav,,,,,,,,,0,0,0,0,0,137,137,80,478.113223148,8.98026246432e-06,479.549677368,1.4364638421,,,,,z,1,1.41708539813,2018_Nov_15_1541,59.9890524923,chinese_cond1,001,1041,
images/radio03a.jpg,radio,z,sounds/greatgatsby_english.wav,,,,,,,,,0,0,0,0,0,138,138,37,480.738040937,9.30098599383e-06,483.267308734,2.52927806067,,,,,z,1,2.51756362917,2018_Nov_15_1541,59.9890524923,chinese_cond1,001,1041,
images/lion.jpg,lion,z,sounds/greatgatsby_english.wav,,,,,,,,,0,0,0,0,0,139,139,44,484.455931127,9.30098599383e-06,485.317835859,0.86191467532,,,,,z,1,0.850458105633,2018_Nov_15_1541,59.9890524923,chinese_cond1,001,1041,
images/arrow02.jpg,hammer,x,sounds/greatgatsby_english.wav,,,,,,,,,0,0,0,0,0,140,140,184,486.47543786,8.98026246432e-06,488.002074761,1.52664652308,,,,,z,0,1.51749403213,2018_Nov_15_1541,59.9890524923,chinese_cond1,001,1041,
images/croissant02b.jpg,croissant,z,sounds/greatgatsby_english.wav,,,,,,,,,0,0,0,0,0,141,141,39,489.185236192,8.98026246432e-06,491.202696388,2.01746949677,,,,,z,1,2.00052855258,2018_Nov_15_1541,59.9890524923,chinese_cond1,001,1041,
images/plant01.jpg,plant,z,sounds/greatgatsby_english.wav,,,,,,,,,0,0,0,0,0,142,142,47,492.378253782,9.9424335076e-06,493.136533664,0.758290465944,,,,,z,1,0.733767614544,2018_Nov_15_1541,59.9890524923,chinese_cond1,001,1041,
images/pepper05a.jpg,lighter,x,sounds/greatgatsby_english.wav,,,,,,,,,0,0,0,0,0,143,143,198,494.324278235,8.98026246432e-06,495.987263743,1.66299480845,,,,,x,1,1.65065817305,2018_Nov_15_1541,59.9890524923,chinese_cond1,001,1041,
images/beachumbrella01.jpg,beach umbrella,z,sounds/greatgatsby_english.wav,,,,,,,,,0,0,0,0,0,144,144,92,497.127198039,8.65953870743e-06,499.17156695,2.04437821145,,,,,z,1,2.03423821236,2018_Nov_15_1541,59.9890524923,chinese_cond1,001,1041,
images/computerkeyboard01a.jpg,computer keyboard,z,sounds/greatgatsby_english.wav,,,,,,,,,0,0,0,0,0,145,145,61,500.358148899,8.98026223695e-06,501.972156055,1.61401709906,,,,,z,1,1.60047807068,2018_Nov_15_1541,59.9890524923,chinese_cond1,001,1041,
images/bus.jpg,microphone,x,sounds/greatgatsby_english.wav,,,,,,,,,0,0,0,0,0,146,146,203,503.148487676,9.30098599383e-06,504.722865897,1.57438784278,,,,,x,1,1.55060618374,2018_Nov_15_1541,59.9890524923,chinese_cond1,001,1041,
images/headphones02b.jpg,headphones,z,sounds/greatgatsby_english.wav,,,,,,,,,0,0,0,0,0,147,147,101,505.900923331,8.98026246432e-06,507.873684913,1.97277120312,,,,,z,1,1.9507455061,2018_Nov_15_1541,59.9890524923,chinese_cond1,001,1041,
images/apple06.jpg,apple,z,sounds/greatgatsby_english.wav,,,,,,,,,0,0,0,0,0,148,148,13,509.070863892,8.98026246432e-06,510.290994497,1.2201402268,,,,,z,1,1.20056517923,2018_Nov_15_1541,59.9890524923,chinese_cond1,001,1041,
images/triangleruler02.jpg,bottle of red wine,x,sounds/greatgatsby_english.wav,,,,,,,,,0,0,0,0,0,149,149,134,511.430706211,9.30098599383e-06,513.891912921,2.46121665236,,,,,x,1,2.45087748388,2018_Nov_15_1541,59.9890524923,chinese_cond1,001,1041,
images/belt02a.jpg,snowman,x,sounds/greatgatsby_english.wav,,,,,,,,,0,0,0,0,0,150,150,224,515.067346836,8.65953848006e-06,517.742925237,2.67558802277,,,,,z,0,2.66760970112,2018_Nov_15_1541,59.9890524923,chinese_cond1,001,1041,
images/dragonfly02.jpg,dragon fly,z,sounds/greatgatsby_english.wav,,,,,,,,,0,0,0,0,0,151,151,29,518.905957731,9.94243328023e-06,520.643660945,1.7377137984,,,,,z,1,1.71735105353,2018_Nov_15_1541,59.9890524923,chinese_cond1,001,1041,
images/bowlingball.jpg,bowling ball,z,sounds/greatgatsby_english.wav,,,,,,,,,0,0,0,0,0,152,152,20,521.843256577,9.62170975072e-06,523.194324859,1.35107886627,,,,,z,1,1.3337328481,2018_Nov_15_1541,59.9890524923,chinese_cond1,001,1041,
images/lettuce.jpg,mushroom,x,sounds/greatgatsby_english.wav,,,,,,,,,0,0,0,0,0,153,153,205,524.337943308,8.98026223695e-06,525.628298923,1.29036555761,,,,,x,1,1.2672404199,2018_Nov_15_1541,59.9890524923,chinese_cond1,001,1041,
images/8ball.jpg,nail clipper,x,sounds/greatgatsby_english.wav,,,,,,,,,0,0,0,0,0,154,154,206,526.745183452,9.30098599383e-06,528.228960127,1.48378693814,,,,,x,1,1.46727319786,2018_Nov_15_1541,59.9890524923,chinese_cond1,001,1041,
images/bat.jpg,hand,x,sounds/greatgatsby_english.wav,,,,,,,,,0,0,0,0,0,155,155,185,529.402771501,8.98026246432e-06,531.696521976,2.29376041751,,,,,x,1,2.28416468647,2018_Nov_15_1541,59.9890524923,chinese_cond1,001,1041,
images/treadmill.jpg,lily,x,sounds/greatgatsby_english.wav,,,,,,,,,0,0,0,0,0,156,156,199,532.882106474,8.65953870743e-06,534.163841679,1.28174514721,,,,,z,0,1.2672417028,2018_Nov_15_1541,59.9890524923,chinese_cond1,001,1041,
images/bed.jpg,bed,z,sounds/greatgatsby_english.wav,,,,,,,,,0,0,0,0,0,157,157,103,535.306029059,9.30098599383e-06,536.731186431,1.42516667207,,,,,z,1,1.40062682231,2018_Nov_15_1541,59.9890524923,chinese_cond1,001,1041,
images/lock02a.jpg,lock,z,sounds/greatgatsby_english.wav,,,,,,,,,0,0,0,0,0,158,158,65,537.870434699,9.94243328023e-06,538.881726417,1.01130198089,,,,,z,1,1.00050257397,2018_Nov_15_1541,59.9890524923,chinese_cond1,001,1041,
images/puma.jpg,puma,z,sounds/greatgatsby_english.wav,,,,,,,,,0,0,0,0,0,159,159,4,539.978735701,3.56003256456e-05,540.999049054,1.02033869059,,,,,z,1,1.00061578942,2018_Nov_15_1541,59.9890524923,chinese_cond1,001,1041,
images/microphone01.jpg,diaper,x,sounds/greatgatsby_english.wav,,,,,,,,,0,0,0,0,0,160,160,164,542.170065963,8.98026223695e-06,543.432899319,1.26284297787,,,,,x,1,1.25056311056,2018_Nov_15_1541,59.9890524923,chinese_cond1,001,1041,
images/binder03b.jpg,dj mixer,x,sounds/greatgatsby_english.wav,,,,,,,,,0,0,0,0,0,161,161,167,544.57711207,8.98026223695e-06,546.266968767,1.6898666399,,,,,x,1,1.66733933108,2018_Nov_15_1541,59.9890524923,chinese_cond1,001,1041,
images/mailbox01.jpg,mail box,z,sounds/greatgatsby_english.wav,,,,,,,,,0,0,0,0,0,162,162,73,547.467450879,9.62170975072e-06,548.684266163,1.2168252271,,,,,z,1,1.20055972692,2018_Nov_15_1541,59.9890524923,chinese_cond1,001,1041,
images/pipe.jpg,icecube,x,sounds/greatgatsby_english.wav,,,,,,,,,0,0,0,0,0,163,163,188,549.81363037,8.98026246432e-06,552.801833513,2.9882137264,,,,,None,0,,2018_Nov_15_1541,59.9890524923,chinese_cond1,001,1041,
images/licenseplate.jpg,license plate,z,sounds/greatgatsby_english.wav,,,,,,,,,0,0,0,0,0,164,164,40,553.951613064,9.30098599383e-06,555.419345538,1.46774241657,,,,,z,1,1.45061352832,2018_Nov_15_1541,59.9890524923,chinese_cond1,001,1041,
images/glasses01b.jpg,calculator,x,sounds/greatgatsby_english.wav,,,,,,,,,0,0,0,0,0,165,165,142,556.577797135,9.30098599383e-06,557.769951016,1.19216446452,,,,,x,1,1.18388081396,2018_Nov_15_1541,59.9890524923,chinese_cond1,001,1041,
images/broom02.jpg,broom,z,sounds/greatgatsby_english.wav,,,,,,,,,0,0,0,0,0,166,166,116,558.962287388,9.62170975072e-06,561.170839869,2.20856242357,,,,,x,0,2.18414797676,2018_Nov_15_1541,59.9890524923,chinese_cond1,001,1041,
,,,sounds/greatgatsby_english.wav,,,,,,,,,0,0,0,0,,,,,,,,,,,,,,,,2018_Nov_15_1541,59.9890524923,chinese_cond1,001,1041,
images/volleyball.jpg,volley ball,z,sounds/animalfarm_chinese.wav,,,,,,,,,0,1,1,1,0,0,0,2,582.330581738,9.30098599383e-06,583.443289162,1.11271736645,,,,572.1738938,z,1,1.10054879025,2018_Nov_15_1541,59.9890524923,chinese_cond1,001,1041,
images/screwdriver02b.jpg,cola,x,sounds/animalfarm_chinese.wav,,,,,,,,,0,1,1,1,0,1,1,158,584.535897155,9.62170975072e-06,586.16064663,1.62475973789,,,,,x,1,1.60066537329,2018_Nov_15_1541,59.9890524923,chinese_cond1,001,1041,
images/panda.jpg,panda,z,sounds/animalfarm_chinese.wav,,,,,,,,,0,1,1,1,0,2,2,83,587.268227607,8.98026246432e-06,588.294531758,1.02631377229,,,,,z,1,1.01717314812,2018_Nov_15_1541,59.9890524923,chinese_cond1,001,1041,
images/lightswitch02a.jpg,fork,x,sounds/animalfarm_chinese.wav,,,,,,,,,0,1,1,1,0,3,3,177,589.405200662,8.98026223695e-06,590.895201621,1.4900109014,,,,,x,1,1.4672818574,2018_Nov_15_1541,59.9890524923,chinese_cond1,001,1041,
images/binder03b.jpg,dj mixer,x,sounds/animalfarm_chinese.wav,,,,,,,,,0,1,1,1,0,4,4,167,592.007090238,9.30098599383e-06,593.27915819,1.2720778948,,,,,x,1,1.2505759395,2018_Nov_15_1541,59.9890524923,chinese_cond1,001,1041,
images/donut.jpg,rhinoceros,x,sounds/animalfarm_chinese.wav,,,,,,,,,0,1,1,1,0,5,5,216,594.474119044,9.30098599383e-06,597.013455961,2.53934782128,,,,,x,1,2.51756074265,2018_Nov_15_1541,59.9890524923,chinese_cond1,001,1041,
images/lion.jpg,lion,z,sounds/animalfarm_chinese.wav,,,,,,,,,0,1,1,1,0,6,6,44,598.124926995,8.98026223695e-06,599.114023674,0.989106621051,,,,,z,1,0.967185800666,2018_Nov_15_1541,59.9890524923,chinese_cond1,001,1041,
images/broadsword.jpg,teapot,x,sounds/animalfarm_chinese.wav,,,,,,,,,0,1,1,1,0,7,7,231,600.205833386,8.98026223695e-06,601.547969515,1.34214735392,,,,,x,1,1.33392977242,2018_Nov_15_1541,59.9890524923,chinese_cond1,001,1041,
images/birthdaycandle.jpg,birthday candle,z,sounds/animalfarm_chinese.wav,,,,,,,,,0,1,1,1,0,8,8,55,602.711902279,9.62170975072e-06,604.265518455,1.55362675913,,,,,z,1,1.53415626747,2018_Nov_15_1541,59.9890524923,chinese_cond1,001,1041,
images/seagull.jpg,seagull,z,sounds/animalfarm_chinese.wav,,,,,,,,,0,1,1,1,0,9,9,50,605.406513064,9.30098599383e-06,606.932693575,1.52619077477,,,,,z,1,1.51728780682,2018_Nov_15_1541,59.9890524923,chinese_cond1,001,1041,
images/licenseplate.jpg,license plate,z,sounds/animalfarm_chinese.wav,,,,,,,,,0,1,1,1,0,10,10,40,608.048813499,9.94243328023e-06,608.89986366,0.851060103934,,,,,z,1,0.833694521623,2018_Nov_15_1541,59.9890524923,chinese_cond1,001,1041,
images/cat.jpg,black olive,x,sounds/animalfarm_chinese.wav,,,,,,,,,0,1,1,1,0,11,11,133,610.099603618,8.65953870743e-06,613.100799596,3.00120624167,,,,,None,0,,2018_Nov_15_1541,59.9890524923,chinese_cond1,001,1041,
images/bench02.jpg,electric toothbrush,x,sounds/animalfarm_chinese.wav,,,,,,,,,0,1,1,1,0,12,12,172,614.208735614,8.98026223695e-06,615.468237293,1.25951162126,,,,,x,1,1.25056599707,2018_Nov_15_1541,59.9890524923,chinese_cond1,001,1041,
images/printer03a.jpg,printer,z,sounds/animalfarm_chinese.wav,,,,,,,,,0,1,1,1,0,13,13,72,616.652771421,8.98026246432e-06,617.73576444,1.08300296124,,,,,z,1,1.06745684423,2018_Nov_15_1541,59.9890524923,chinese_cond1,001,1041,
images/scissors04a.jpg,leek,x,sounds/animalfarm_chinese.wav,,,,,,,,,0,1,1,1,0,14,14,194,618.905958051,8.98026223695e-06,620.069425767,1.16347765791,,,,,z,0,1.15053389263,2018_Nov_15_1541,59.9890524923,chinese_cond1,001,1041,
images/sock03.jpg,sock,z,sounds/animalfarm_chinese.wav,,,,,,,,,0,1,1,1,0,15,15,90,621.17485982,8.98026223695e-06,622.003260797,0.828410599404,,,,,z,1,0.817115995162,2018_Nov_15_1541,59.9890524923,chinese_cond1,001,1041,
images/spoon02b.jpg,spoon,z,sounds/animalfarm_chinese.wav,,,,,,,,,0,1,1,1,0,16,16,38,623.093294983,8.65953870743e-06,623.937098715,0.843813352945,,,,,z,1,0.833795870298,2018_Nov_15_1541,59.9890524923,chinese_cond1,001,1041,
images/ant.jpg,ant,z,sounds/animalfarm_chinese.wav,,,,,,,,,0,1,1,1,0,17,17,98,625.030557588,9.94243328023e-06,625.787573498,0.757025852572,,,,,z,1,0.733762162242,2018_Nov_15_1541,59.9890524923,chinese_cond1,001,1041,
images/lollipop03b.jpg,lollipop,z,sounds/animalfarm_chinese.wav,,,,,,,,,0,1,1,1,0,18,18,42,626.879376475,9.30098599383e-06,627.80499232,0.925625467254,,,,,z,1,0.917376134119,2018_Nov_15_1541,59.9890524923,chinese_cond1,001,1041,
images/beermug01b.jpg,beer mug,z,sounds/animalfarm_chinese.wav,,,,,,,,,0,1,1,1,0,19,19,111,628.920386767,9.30098599383e-06,630.03867799,1.11830180673,,,,,z,1,1.10052730176,2018_Nov_15_1541,59.9890524923,chinese_cond1,001,1041,
images/cloud.jpg,ceiling fan,x,sounds/animalfarm_chinese.wav,,,,,,,,,0,1,1,1,0,20,20,149,631.141105579,8.98026223695e-06,632.38928892,1.24819360419,,,,,x,1,1.23386174694,2018_Nov_15_1541,59.9890524923,chinese_cond1,001,1041,
images/lip.jpg,boxing glove,x,sounds/animalfarm_chinese.wav,,,,,,,,,0,1,1,1,0,21,21,136,633.490489742,8.98026246432e-06,635.006624547,1.51614474772,,,,,x,1,1.50062332642,2018_Nov_15_1541,59.9890524923,chinese_cond1,001,1041,
images/mailbox01.jpg,mail box,z,sounds/animalfarm_chinese.wav,,,,,,,,,0,1,1,1,0,22,22,73,636.124915449,9.30098599383e-06,637.040498417,0.915592589872,,,,,z,1,0.900488109331,2018_Nov_15_1541,59.9890524923,chinese_cond1,001,1041,
images/calculator02b.jpg,dice,x,sounds/animalfarm_chinese.wav,,,,,,,,,0,1,1,1,0,23,23,165,638.212754282,9.30098599383e-06,639.95797141,1.74522739147,,,,,x,1,1.73404856847,2018_Nov_15_1541,59.9890524923,chinese_cond1,001,1041,
images/cake.jpg,cake,z,sounds/animalfarm_chinese.wav,,,,,,,,,0,1,1,1,0,24,24,23,641.070325076,8.33881495055e-06,642.258511926,1.18819647146,,,,,z,1,1.16721569211,2018_Nov_15_1541,59.9890524923,chinese_cond1,001,1041,
images/thumbtack02a.jpg,thumb tack,z,sounds/animalfarm_chinese.wav,,,,,,,,,0,1,1,1,0,25,25,60,643.368063429,8.98026246432e-06,645.075907592,1.7078544261,,,,,z,1,1.68401728187,2018_Nov_15_1541,59.9890524923,chinese_cond1,001,1041,
images/glasses01b.jpg,calculator,x,sounds/animalfarm_chinese.wav,,,,,,,,,0,1,1,1,0,26,26,142,646.167376375,8.65953848006e-06,647.293155212,1.12578845902,,,,,x,1,1.1172113463,2018_Nov_15_1541,59.9890524923,chinese_cond1,001,1041,
images/straw.jpg,straw,z,sounds/animalfarm_chinese.wav,,,,,,,,,0,1,1,1,0,27,27,109,648.38370897,8.98026223695e-06,649.327016574,0.943317866969,,,,,z,1,0.933796223094,2018_Nov_15_1541,59.9890524923,chinese_cond1,001,1041,
images/blueberry02.jpg,blueberry,z,sounds/animalfarm_chinese.wav,,,,,,,,,0,1,1,1,0,28,28,46,650.436601433,9.30098599383e-06,651.294197564,0.857607035907,,,,,z,1,0.833792342338,2018_Nov_15_1541,59.9890524923,chinese_cond1,001,1041,
images/knife04.jpg,tooth brush,x,sounds/animalfarm_chinese.wav,,,,,,,,,0,1,1,1,0,29,29,233,652.389648772,9.30098599383e-06,654.211612506,1.82197367564,,,,,x,1,1.80070873513,2018_Nov_15_1541,59.9890524923,chinese_cond1,001,1041,
images/candle08a.jpg,screw driver,x,sounds/animalfarm_chinese.wav,,,,,,,,,0,1,1,1,0,30,30,221,655.324787545,9.30098599383e-06,658.312520186,2.98774322479,,,,,None,0,,2018_Nov_15_1541,59.9890524923,chinese_cond1,001,1041,
images/acousticguitar02.jpg,acoustic guitar,z,sounds/animalfarm_chinese.wav,,,,,,,,,0,1,1,1,0,31,31,97,659.424571409,8.98026246432e-06,660.363207993,0.938646526932,,,,,z,1,0.917147137429,2018_Nov_15_1541,59.9890524923,chinese_cond1,001,1041,
images/tie01.jpg,bench,x,sounds/animalfarm_chinese.wav,,,,,,,,,0,1,1,1,0,32,32,130,661.499215991,9.30098599383e-06,663.247291088,1.74808503924,,,,,x,1,1.73403028722,2018_Nov_15_1541,59.9890524923,chinese_cond1,001,1041,
images/weight01.jpg,weight,z,sounds/animalfarm_chinese.wav,,,,,,,,,0,1,1,1,0,33,33,67,664.426289846,8.98026223695e-06,666.714852937,2.28857239166,,,,,x,0,2.26750148896,2018_Nov_15_1541,59.9890524923,chinese_cond1,001,1041,
images/ladybug03.jpg,giraffe,x,sounds/animalfarm_chinese.wav,,,,,,,,,0,1,1,1,0,34,34,178,667.816667944,9.62170975072e-06,669.332196261,1.51553825929,,,,,z,0,1.50062909945,2018_Nov_15_1541,59.9890524923,chinese_cond1,001,1041,
images/redfox.jpg,red fox,z,sounds/animalfarm_chinese.wav,,,,,,,,,0,1,1,1,0,35,35,1,670.525437074,8.98026246432e-06,672.049569445,1.52414231278,,,,,z,1,1.50063615537,2018_Nov_15_1541,59.9890524923,chinese_cond1,001,1041,
images/djmixer01.jpg,light bulb,x,sounds/animalfarm_chinese.wav,,,,,,,,,0,1,1,1,0,36,36,196,673.237192783,9.30098599383e-06,674.650246685,1.41306416494,,,,,x,1,1.40059474995,2018_Nov_15_1541,59.9890524923,chinese_cond1,001,1041,
images/electricguitar02.jpg,electric guitar,z,sounds/animalfarm_chinese.wav,,,,,,,,,0,1,1,1,0,37,37,100,675.750950705,8.98026223695e-06,676.684094897,0.933153492889,,,,,z,1,0.91714104368,2018_Nov_15_1541,59.9890524923,chinese_cond1,001,1041,
images/ceilingfan02.jpg,paper clip,x,sounds/animalfarm_chinese.wav,,,,,,,,,0,1,1,1,0,38,38,208,677.78182613,8.65953870743e-06,679.351465018,1.56964883005,,,,,x,1,1.5506517265,2018_Nov_15_1541,59.9890524923,chinese_cond1,001,1041,
images/mirror02.jpg,8 ball,x,sounds/animalfarm_chinese.wav,,,,,,,,,0,1,1,1,0,39,39,121,680.452445823,8.98026246432e-06,681.535426333,1.08299045302,,,,,x,1,1.06725542977,2018_Nov_15_1541,59.9890524923,chinese_cond1,001,1041,
images/treadmill.jpg,lily,x,sounds/animalfarm_chinese.wav,,,,,,,,,0,1,1,1,0,40,40,199,682.640078783,8.98026246432e-06,683.969313802,1.32924432055,,,,,z,0,1.31714726572,2018_Nov_15_1541,59.9890524923,chinese_cond1,001,1041,
images/broom02.jpg,broom,z,sounds/animalfarm_chinese.wav,,,,,,,,,0,1,1,1,0,41,41,116,685.06140094,8.98026223695e-06,686.403284659,1.34189334078,,,,,x,0,1.33392079216,2018_Nov_15_1541,59.9890524923,chinese_cond1,001,1041,
images/electrictoothbrush01a.jpg,banjo,x,sounds/animalfarm_chinese.wav,,,,,,,,,0,1,1,1,0,42,42,127,687.496331723,8.98026246432e-06,688.720722821,1.22441066227,,,,,x,1,1.20069603448,2018_Nov_15_1541,59.9890524923,chinese_cond1,001,1041,
images/banjo.jpg,knife,x,sounds/animalfarm_chinese.wav,,,,,,,,,0,1,1,1,0,43,43,191,689.815836949,9.30098599383e-06,692.054764206,2.2389375195,,,,,x,1,2.21749746388,2018_Nov_15_1541,59.9890524923,chinese_cond1,001,1041,
images/gamecontroller01.jpg,game controller,z,sounds/animalfarm_chinese.wav,,,,,,,,,0,1,1,1,0,44,44,112,693.172960173,9.30098599383e-06,695.072203234,1.89925300253,,,,,z,1,1.88406962397,2018_Nov_15_1541,59.9890524923,chinese_cond1,001,1041,
images/ashtray02b.jpg,ashtray,z,sounds/animalfarm_chinese.wav,,,,,,,,,0,1,1,1,0,45,45,43,696.186470657,8.98026246432e-06,697.172734705,0.986273989728,,,,,z,1,0.967152445406,2018_Nov_15_1541,59.9890524923,chinese_cond1,001,1041,
images/puma.jpg,puma,z,sounds/animalfarm_chinese.wav,,,,,,,,,0,1,1,1,0,46,46,4,698.270774474,8.98026246432e-06,699.10658064,0.835815787879,,,,,z,1,0.817126258319,2018_Nov_15_1541,59.9890524923,chinese_cond1,001,1041,
images/globe.jpg,cloud,x,sounds/animalfarm_chinese.wav,,,,,,,,,0,1,1,1,0,47,47,154,700.295976297,8.98026246432e-06,701.473860541,1.17789450693,,,,,x,1,1.1672182579,2018_Nov_15_1541,59.9890524923,chinese_cond1,001,1041,
images/doorhandle.jpg,doll,x,sounds/animalfarm_chinese.wav,,,,,,,,,0,1,1,1,0,48,48,168,702.576302242,9.30098599383e-06,703.891153127,1.31486050606,,,,,x,1,1.30034391198,2018_Nov_15_1541,59.9890524923,chinese_cond1,001,1041,
images/floorlamp.jpg,floor lamp,z,sounds/animalfarm_chinese.wav,,,,,,,,,0,1,1,1,0,49,49,26,704.983385232,8.65953870743e-06,706.258423406,1.27504779584,,,,,z,1,1.25056086549,2018_Nov_15_1541,59.9890524923,chinese_cond1,001,1041,
images/icecube02 (2).jpg,aloe,x,sounds/animalfarm_chinese.wav,,,,,,,,,0,1,1,1,0,50,50,122,707.368124366,8.98026223695e-06,709.175843479,1.8077287345,,,,,x,1,1.78402950144,2018_Nov_15_1541,59.9890524923,chinese_cond1,001,1041,
images/headphones02b.jpg,headphones,z,sounds/animalfarm_chinese.wav,,,,,,,,,0,1,1,1,0,51,51,101,710.282251891,8.98026223695e-06,711.326404633,1.04416236443,,,,,z,1,1.03383923214,2018_Nov_15_1541,59.9890524923,chinese_cond1,001,1041,
images/corn01.jpg,corn,z,sounds/animalfarm_chinese.wav,,,,,,,,,0,1,1,1,0,52,52,22,712.425559879,8.98026246432e-06,713.493636041,1.06808610404,,,,,z,1,1.05051654148,2018_Nov_15_1541,59.9890524923,chinese_cond1,001,1041,
images/fryingpan01.jpg,frying pan,z,sounds/animalfarm_chinese.wav,,,,,,,,,0,1,1,1,0,53,53,45,714.592893598,9.30098599383e-06,715.727562253,1.13467956019,,,,,z,1,1.11721102558,2018_Nov_15_1541,59.9890524923,chinese_cond1,001,1041,
images/cigar.jpg,crocodile,x,sounds/animalfarm_chinese.wav,,,,,,,,,0,1,1,1,0,54,54,162,716.899437098,8.98026223695e-06,719.895149664,2.99572282933,,,,,None,0,,2018_Nov_15_1541,59.9890524923,chinese_cond1,001,1041,
images/apricot.jpg,apricot,z,sounds/animalfarm_chinese.wav,,,,,,,,,0,1,1,1,0,55,55,32,721.089435395,9.30098599383e-06,722.279402261,1.1899771292,,,,,z,1,1.16736226282,2018_Nov_15_1541,59.9890524923,chinese_cond1,001,1041,
images/dragonfly02.jpg,dragon fly,z,sounds/animalfarm_chinese.wav,,,,,,,,,0,1,1,1,0,56,56,29,723.375843543,8.98026246432e-06,724.246427058,0.870594098877,,,,,z,1,0.850466444448,2018_Nov_15_1541,59.9890524923,chinese_cond1,001,1041,
images/pineapple01a.jpg,pineapple,z,sounds/animalfarm_chinese.wav,,,,,,,,,0,1,1,1,0,57,57,51,725.358266604,9.30098599383e-06,726.130261592,0.772005571611,,,,,z,1,0.750451979811,2018_Nov_15_1541,59.9890524923,chinese_cond1,001,1041,
images/radish01.jpg,raisin,x,sounds/animalfarm_chinese.wav,,,,,,,,,0,1,1,1,0,58,58,214,727.318197315,8.65953870743e-06,728.397502974,1.079317205,,,,,z,0,1.06717685248,2018_Nov_15_1541,59.9890524923,chinese_cond1,001,1041,
images/wallet01.jpg,lamp,x,sounds/animalfarm_chinese.wav,,,,,,,,,0,1,1,1,0,59,59,193,729.501680432,8.98026246432e-06,730.581401107,1.07973029706,,,,,z,0,1.06718743636,2018_Nov_15_1541,59.9890524923,chinese_cond1,001,1041,
images/pictureframe04.jpg,picture frame,z,sounds/animalfarm_chinese.wav,,,,,,,,,0,1,1,1,0,60,60,41,731.81481801,8.98026246432e-06,733.232092315,1.41728360534,,,,,z,1,1.40060437166,2018_Nov_15_1541,59.9890524923,chinese_cond1,001,1041,
images/cockroach02.jpg,belt,x,sounds/animalfarm_chinese.wav,,,,,,,,,0,1,1,1,0,61,61,129,734.329891862,9.30098599383e-06,735.449547443,1.11966584444,,,,,z,0,1.10044006493,2018_Nov_15_1541,59.9890524923,chinese_cond1,001,1041,
images/magnifyingglass01b.jpg,magnifying glass,z,sounds/animalfarm_chinese.wav,,,,,,,,,0,1,1,1,0,62,62,64,736.554896504,8.98026223695e-06,737.766592398,1.21170551539,,,,,z,1,1.20054978449,2018_Nov_15_1541,59.9890524923,chinese_cond1,001,1041,
images/toothbrush03a.jpg,parrot,x,sounds/animalfarm_chinese.wav,,,,,,,,,0,1,1,1,0,63,63,210,738.85864137,8.98026223695e-06,740.267247476,1.40861572784,,,,,x,1,1.40061559698,2018_Nov_15_1541,59.9890524923,chinese_cond1,001,1041,
images/highheelshoe02a.jpg,high heel shoe,z,sounds/animalfarm_chinese.wav,,,,,,,,,0,1,1,1,0,64,64,75,741.447627591,9.30098599383e-06,743.551426916,2.10380926693,,,,,x,0,2.08411266509,2018_Nov_15_1541,59.9890524923,chinese_cond1,001,1041,
images/banana04a.jpg,banana,z,sounds/animalfarm_chinese.wav,,,,,,,,,0,1,1,1,0,65,65,118,744.65589976,8.98026246432e-06,745.501937652,0.84604783465,,,,,z,1,0.83347226013,2018_Nov_15_1541,59.9890524923,chinese_cond1,001,1041,
images/nailpolish02b.jpg,nail polish,z,sounds/animalfarm_chinese.wav,,,,,,,,,0,1,1,1,0,66,66,94,746.690731311,8.98026223695e-06,749.686200127,2.99547940008,,,,,None,0,,2018_Nov_15_1541,59.9890524923,chinese_cond1,001,1041,
images/mattress.jpg,cat,x,sounds/animalfarm_chinese.wav,,,,,,,,,0,1,1,1,0,67,67,147,750.790271425,9.30098599383e-06,751.970273087,1.18001128306,,,,,x,1,1.16721120198,2018_Nov_15_1541,59.9890524923,chinese_cond1,001,1041,
images/parrot01.jpg,chameleon,x,sounds/animalfarm_chinese.wav,,,,,,,,,0,1,1,1,0,68,68,150,753.082572229,8.65953870743e-06,754.938006042,1.85544343413,,,,,z,0,1.83434847716,2018_Nov_15_1541,59.9890524923,chinese_cond1,001,1041,
images/flashlight05.jpg,flash light,z,sounds/animalfarm_chinese.wav,,,,,,,,,0,1,1,1,0,69,69,8,756.111972325,9.30098599383e-06,759.105307367,2.99334594633,,,,,None,0,,2018_Nov_15_1541,59.9890524923,chinese_cond1,001,1041,
images/candy.jpg,candy,z,sounds/animalfarm_chinese.wav,,,,,,,,,0,1,1,1,0,70,70,31,760.206178805,9.30098599383e-06,761.005957442,0.79978889969,,,,,z,1,0.783781902783,2018_Nov_15_1541,59.9890524923,chinese_cond1,001,1041,
images/barrel01.jpg,barrel,z,sounds/animalfarm_chinese.wav,,,,,,,,,0,1,1,1,0,71,71,9,762.13539766,8.98026246432e-06,763.273207163,1.13781976549,,,,,z,1,1.11719723446,2018_Nov_15_1541,59.9890524923,chinese_cond1,001,1041,
images/eraser.jpg,eraser,z,sounds/animalfarm_chinese.wav,,,,,,,,,0,1,1,1,0,72,72,110,764.379317943,8.98026246432e-06,765.157055808,0.777747807934,,,,,z,1,0.767138910868,2018_Nov_15_1541,59.9890524923,chinese_cond1,001,1041,
images/scooter.jpg,pen,x,sounds/animalfarm_chinese.wav,,,,,,,,,0,1,1,1,0,73,73,212,766.249231787,9.30098599383e-06,767.357977632,1.10875578786,,,,,x,1,1.08423903021,2018_Nov_15_1541,59.9890524923,chinese_cond1,001,1041,
images/camera01a.jpg,bull,x,sounds/animalfarm_chinese.wav,,,,,,,,,0,1,1,1,0,74,74,138,768.46765967,8.98026223695e-06,770.091640691,1.62399128401,,,,,x,1,1.60065350652,2018_Nov_15_1541,59.9890524923,chinese_cond1,001,1041,
images/carrot02.jpg,corkscrew,x,sounds/animalfarm_chinese.wav,,,,,,,,,0,1,1,1,0,75,75,161,771.193105788,9.62170952334e-06,772.342228818,1.14913329243,,,,,x,1,1.13387582671,2018_Nov_15_1541,59.9890524923,chinese_cond1,001,1041,
images/computerkeyboard01a.jpg,computer keyboard,z,sounds/animalfarm_chinese.wav,,,,,,,,,0,1,1,1,0,76,76,61,773.458447204,8.98026246432e-06,774.642815518,1.18437793562,,,,,z,1,1.16720350461,2018_Nov_15_1541,59.9890524923,chinese_cond1,001,1041,
images/aloe02.jpg,broad sword,x,sounds/animalfarm_chinese.wav,,,,,,,,,0,1,1,1,0,77,77,137,775.762000597,8.65953870743e-06,778.110384423,2.34839408855,,,,,z,0,2.33417159806,2018_Nov_15_1541,59.9890524923,chinese_cond1,001,1041,
images/butterfly.jpg,butterfly,z,sounds/animalfarm_chinese.wav,,,,,,,,,0,1,1,1,0,78,78,91,779.291234398,8.98026223695e-06,780.260941087,0.969717272476,,,,,z,1,0.950489889347,2018_Nov_15_1541,59.9890524923,chinese_cond1,001,1041,
images/nametag01a.jpg,name tag,z,sounds/animalfarm_chinese.wav,,,,,,,,,0,1,1,1,0,79,79,108,781.379973823,8.98026223695e-06,782.394834232,1.01486971083,,,,,z,1,1.00050834699,2018_Nov_15_1541,59.9890524923,chinese_cond1,001,1041,
images/graduationcap.jpg,graduation cap,z,sounds/animalfarm_chinese.wav,,,,,,,,,0,1,1,1,0,80,80,35,783.494961592,9.30098599383e-06,784.678752924,1.18380127449,,,,,z,1,1.1672060704,2018_Nov_15_1541,59.9890524923,chinese_cond1,001,1041,
images/hairband.jpg,hairband,z,sounds/animalfarm_chinese.wav,,,,,,,,,0,1,1,1,0,81,81,66,785.786283227,9.30098599383e-06,786.995853685,1.20958072117,,,,,z,1,1.20036440622,2018_Nov_15_1541,59.9890524923,chinese_cond1,001,1041,
images/hand01a.jpg,cupcake,x,sounds/animalfarm_chinese.wav,,,,,,,,,0,1,1,1,0,82,82,163,788.105391717,8.65953870743e-06,790.330216113,2.22483433821,,,,,z,0,2.20080700486,2018_Nov_15_1541,59.9890524923,chinese_cond1,001,1041,
images/paintbrush03a.jpg,paint brush,z,sounds/animalfarm_chinese.wav,,,,,,,,,0,1,1,1,0,83,83,0,791.428668974,9.30098599383e-06,794.431119945,3.00246091261,,,,,None,0,,2018_Nov_15_1541,59.9890524923,chinese_cond1,001,1041,
images/computermouse02a.jpg,world map,x,sounds/animalfarm_chinese.wav,,,,,,,,,0,1,1,1,0,84,84,239,795.603516607,8.98026246432e-06,797.015285369,1.41177870453,,,,,x,1,1.40056203613,2018_Nov_15_1541,59.9890524923,chinese_cond1,001,1041,
images/orange.jpg,bat,x,sounds/animalfarm_chinese.wav,,,,,,,,,0,1,1,1,0,85,85,128,798.137499363,9.30098599383e-06,799.265869006,1.12837958543,,,,,x,1,1.11719531012,2018_Nov_15_1541,59.9890524923,chinese_cond1,001,1041,
images/triangleruler02.jpg,bottle of red wine,x,sounds/animalfarm_chinese.wav,,,,,,,,,0,1,1,1,0,86,86,134,800.374538198,8.98026223695e-06,801.716526152,1.34199789669,,,,,x,1,1.33394548788,2018_Nov_15_1541,59.9890524923,chinese_cond1,001,1041,
images/lettuce.jpg,mushroom,x,sounds/animalfarm_chinese.wav,,,,,,,,,0,1,1,1,0,87,87,205,802.83728374,9.30098599383e-06,803.633660461,0.796386983879,,,,,x,1,0.78377548831,2018_Nov_15_1541,59.9890524923,chinese_cond1,001,1041,
images/highlighter03b.jpg,coin,x,sounds/animalfarm_chinese.wav,,,,,,,,,0,1,1,1,0,88,88,156,804.73316305,8.98026246432e-06,805.734217269,1.00106384036,,,,,x,1,0.983839376462,2018_Nov_15_1541,59.9890524923,chinese_cond1,001,1041,
images/ear.jpg,bullet,x,sounds/animalfarm_chinese.wav,,,,,,,,,0,1,1,1,0,89,89,139,806.836174357,9.30098599383e-06,808.568276454,1.73211203904,,,,,x,1,1.71735329859,2018_Nov_15_1541,59.9890524923,chinese_cond1,001,1041,
images/cola.jpg,comb,x,sounds/animalfarm_chinese.wav,,,,,,,,,0,1,1,1,0,90,90,157,809.760578829,9.30098599383e-06,811.268978742,1.50841049677,,,,,x,1,1.4836317079,2018_Nov_15_1541,59.9890524923,chinese_cond1,001,1041,
images/hat05.jpg,hat,z,sounds/animalfarm_chinese.wav,,,,,,,,,0,1,1,1,0,91,91,15,812.370912417,9.9424335076e-06,813.619587428,1.248685915,,,,,z,1,1.23389029134,2018_Nov_15_1541,59.9890524923,chinese_cond1,001,1041,
images/gps.jpg,gps,z,sounds/animalfarm_chinese.wav,,,,,,,,,0,1,1,1,0,92,92,21,814.73575578,9.30098599383e-06,815.986870856,1.2511250184,,,,,z,1,1.23389638509,2018_Nov_15_1541,59.9890524923,chinese_cond1,001,1041,
images/cactus.jpg,cactus,z,sounds/animalfarm_chinese.wav,,,,,,,,,0,1,1,1,0,93,93,70,817.178143709,9.94243328023e-06,819.154390915,1.9762581107,,,,,z,1,1.96745713288,2018_Nov_15_1541,59.9890524923,chinese_cond1,001,1041,
images/pingpongpaddle01c (1).jpg,ping pong paddle,z,sounds/animalfarm_chinese.wav,,,,,,,,,0,1,1,1,0,94,94,10,820.340808012,9.30098599383e-06,821.738362302,1.39756423213,,,,,z,1,1.38393604257,2018_Nov_15_1541,59.9890524923,chinese_cond1,001,1041,
images/bicycle.jpg,hand bag,x,sounds/animalfarm_chinese.wav,,,,,,,,,0,1,1,1,0,95,95,186,822.846485622,8.98026223695e-06,825.83925587,2.9927801898,,,,,None,0,,2018_Nov_15_1541,59.9890524923,chinese_cond1,001,1041,
images/bat.jpg,hand,x,sounds/animalfarm_chinese.wav,,,,,,,,,0,1,1,1,0,96,96,185,826.935432876,8.98026223695e-06,828.223381139,1.28796814829,,,,,x,1,1.26724907944,2018_Nov_15_1541,59.9890524923,chinese_cond1,001,1041,
images/worldmap.jpg,scooter,x,sounds/animalfarm_chinese.wav,,,,,,,,,0,1,1,1,0,97,97,220,829.353743759,9.62170952334e-06,831.82431592,2.47058242454,,,,,x,1,2.45087106941,2018_Nov_15_1541,59.9890524923,chinese_cond1,001,1041,
images/dice05a.jpg,band aid,x,sounds/animalfarm_chinese.wav,,,,,,,,,0,1,1,1,0,98,98,126,832.935955655,9.30098599383e-06,834.17491306,1.2389673468,,,,,x,1,1.21722132081,2018_Nov_15_1541,59.9890524923,chinese_cond1,001,1041,
images/ostrich.jpg,ostrich,z,sounds/animalfarm_chinese.wav,,,,,,,,,0,1,1,1,0,99,99,76,835.340648292,9.62170975072e-06,836.925630599,1.58499224971,,,,,z,1,1.56731652763,2018_Nov_15_1541,59.9890524923,chinese_cond1,001,1041,
images/pipe.jpg,icecube,x,sounds/animalfarm_chinese.wav,,,,,,,,,0,1,1,1,0,100,100,188,838.034556691,8.98026246432e-06,840.143323704,2.1087766349,,,,,x,1,2.08430958941,2018_Nov_15_1541,59.9890524923,chinese_cond1,001,1041,
images/atm.jpg,atm,z,sounds/animalfarm_chinese.wav,,,,,,,,,0,1,1,1,0,101,101,96,841.279573527,8.98026223695e-06,842.410381632,1.13081804738,,,,,z,1,1.11708401901,2018_Nov_15_1541,59.9890524923,chinese_cond1,001,1041,
images/hairdryer03a.jpg,hairdryer,z,sounds/animalfarm_chinese.wav,,,,,,,,,0,1,1,1,0,102,102,119,843.581338887,8.65953870743e-06,845.127762192,1.54643260682,,,,,z,1,1.5339750586,2018_Nov_15_1541,59.9890524923,chinese_cond1,001,1041,
images/honeycomb.jpg,honey comb,z,sounds/animalfarm_chinese.wav,,,,,,,,,0,1,1,1,0,103,103,59,846.239968646,9.30098599383e-06,847.461766693,1.22182081875,,,,,z,1,1.20057223515,2018_Nov_15_1541,59.9890524923,chinese_cond1,001,1041,
images/hanger02a.jpg,hanger,z,sounds/animalfarm_chinese.wav,,,,,,,,,0,1,1,1,0,104,104,88,848.614689336,9.94243328023e-06,851.612618423,2.99793999196,,,,,None,0,,2018_Nov_15_1541,59.9890524923,chinese_cond1,001,1041,
images/apple06.jpg,apple,z,sounds/animalfarm_chinese.wav,,,,,,,,,0,1,1,1,0,105,105,13,852.73912819,9.62170952334e-06,853.763322941,1.02420469353,,,,,z,1,1.00049936673,2018_Nov_15_1541,59.9890524923,chinese_cond1,001,1041,
images/hammer02a.jpg,flower,x,sounds/animalfarm_chinese.wav,,,,,,,,,0,1,1,1,0,106,106,176,854.857883179,8.98026223695e-06,856.614074509,1.75620287567,,,,,x,1,1.73403702241,2018_Nov_15_1541,59.9890524923,chinese_cond1,001,1041,
images/tank.jpg,wallet,x,sounds/animalfarm_chinese.wav,,,,,,,,,0,1,1,1,0,107,107,237,857.717892756,8.98026200957e-06,858.964678704,1.24679621123,,,,,x,1,1.23390696897,2018_Nov_15_1541,59.9890524923,chinese_cond1,001,1041,
images/antelope.jpg,antelope,z,sounds/animalfarm_chinese.wav,,,,,,,,,0,1,1,1,0,108,108,12,860.067688086,8.98026246432e-06,861.665371371,1.59769322718,,,,,z,1,1.58398710178,2018_Nov_15_1541,59.9890524923,chinese_cond1,001,1041,
images/bowl02b (1).jpg,bowl,z,sounds/animalfarm_chinese.wav,,,,,,,,,0,1,1,1,0,109,109,24,862.782642692,9.30098576646e-06,863.665889981,0.883257872402,,,,,z,1,0.867136056427,2018_Nov_15_1541,59.9890524923,chinese_cond1,001,1041,
images/comb02a.jpg,diploma,x,sounds/animalfarm_chinese.wav,,,,,,,,,0,1,1,1,0,110,110,166,864.769242217,8.98026200957e-06,866.233227997,1.46399572283,,,,,x,1,1.45061865989,2018_Nov_15_1541,59.9890524923,chinese_cond1,001,1041,
images/clothespin02a.jpg,clothes pin,z,sounds/animalfarm_chinese.wav,,,,,,,,,0,1,1,1,0,111,111,79,867.414483367,9.30098576646e-06,869.567440006,2.152967223,,,,,z,1,2.13414844181,2018_Nov_15_1541,59.9890524923,chinese_cond1,001,1041,
images/ruler02b.jpg,watermelon,x,sounds/animalfarm_chinese.wav,,,,,,,,,0,1,1,1,0,112,112,238,870.738220221,9.30098622121e-06,872.618206712,1.87999643355,,,,,x,1,1.86738493798,2018_Nov_15_1541,59.9890524923,chinese_cond1,001,1041,
images/bandaid01.jpg,door handle,x,sounds/animalfarm_chinese.wav,,,,,,,,,0,1,1,1,0,113,113,170,873.725109038,9.30098622121e-06,874.98548982,1.26039104552,,,,,x,1,1.25056727997,2018_Nov_15_1541,59.9890524923,chinese_cond1,001,1041,
images/eyedrops.jpg,bicycle,x,sounds/animalfarm_chinese.wav,,,,,,,,,0,1,1,1,0,114,114,131,876.149857807,8.65953870743e-06,877.452792846,1.3029446601,,,,,x,1,1.28390874899,2018_Nov_15_1541,59.9890524923,chinese_cond1,001,1041,
images/candycane01a.jpg,lip,x,sounds/animalfarm_chinese.wav,,,,,,,,,0,1,1,1,0,115,115,200,878.581553451,8.98026246432e-06,880.236849929,1.65530674171,,,,,x,1,1.63399722061,2018_Nov_15_1541,59.9890524923,chinese_cond1,001,1041,
images/tape01a.jpg,tie,x,sounds/animalfarm_chinese.wav,,,,,,,,,0,1,1,1,0,116,116,232,881.361523232,9.62170997809e-06,882.27093227,0.909419300957,,,,,x,1,0.900657451421,2018_Nov_15_1541,59.9890524923,chinese_cond1,001,1041,
images/swallow.jpg,mattress,x,sounds/animalfarm_chinese.wav,,,,,,,,,0,1,1,1,0,117,117,202,883.43448177,8.98026246432e-06,885.321591854,1.88712034738,,,,,x,1,1.86748500376,2018_Nov_15_1541,59.9890524923,chinese_cond1,001,1041,
images/parkingmeter.jpg,ear,x,sounds/animalfarm_chinese.wav,,,,,,,,,0,1,1,1,0,118,118,171,886.49897609,9.30098576646e-06,887.53874005,1.0397745441,,,,,x,1,1.0171702616,2018_Nov_15_1541,59.9890524923,chinese_cond1,001,1041,
images/boxingglove02a.jpg,bracelet,x,sounds/animalfarm_chinese.wav,,,,,,,,,0,1,1,1,0,119,119,135,888.723501892,8.65953870743e-06,891.239715274,2.51622268357,,,,,z,0,2.5008969037,2018_Nov_15_1541,59.9890524923,chinese_cond1,001,1041,
images/blackolive.jpg,tank,x,sounds/animalfarm_chinese.wav,,,,,,,,,0,1,1,1,0,120,120,229,892.420760891,9.30098622121e-06,893.923738971,1.50298770121,,,,,z,0,1.48395371445,2018_Nov_15_1541,59.9890524923,chinese_cond1,001,1041,
images/lychee02a.jpg,lychee,z,sounds/animalfarm_chinese.wav,,,,,,,,,0,1,1,1,0,121,121,62,895.047285251,8.98026246432e-06,895.974113111,0.926838444118,,,,,z,1,0.916994152245,2018_Nov_15_1541,59.9890524923,chinese_cond1,001,1041,
images/lightbulb03b.jpg,treadmill,x,sounds/animalfarm_chinese.wav,,,,,,,,,0,1,1,1,0,122,122,234,897.076136589,9.30098622121e-06,899.558537359,2.48241103366,,,,,x,1,2.46756313205,2018_Nov_15_1541,59.9890524923,chinese_cond1,001,1041,
images/leaf01a.jpg,leaf,z,sounds/animalfarm_chinese.wav,,,,,,,,,0,1,1,1,0,123,123,68,900.660687522,9.30098622121e-06,901.925810525,1.26513294477,,,,,z,1,1.25057433589,2018_Nov_15_1541,59.9890524923,chinese_cond1,001,1041,
images/belt02a.jpg,snowman,x,sounds/animalfarm_chinese.wav,,,,,,,,,0,1,1,1,0,124,124,224,903.028975779,3.72039439753e-05,904.593172307,1.56421288482,,,,,x,1,1.55065525446,2018_Nov_15_1541,59.9890524923,chinese_cond1,001,1041,
images/bed.jpg,bed,z,sounds/animalfarm_chinese.wav,,,,,,,,,0,1,1,1,0,125,125,103,905.712026079,9.62170952334e-06,907.027131938,1.31511580209,,,,,z,1,1.30058220965,2018_Nov_15_1541,59.9890524923,chinese_cond1,001,1041,
images/pen03c.jpg,pepper,x,sounds/animalfarm_chinese.wav,,,,,,,,,0,1,1,1,0,126,126,211,908.120502933,9.30098622121e-06,910.077926868,1.95743387721,,,,,x,1,1.93408840234,2018_Nov_15_1541,59.9890524923,chinese_cond1,001,1041,
images/bowtie.jpg,bowtie,z,sounds/animalfarm_chinese.wav,,,,,,,,,0,1,1,1,0,127,127,89,911.262663052,8.98026246432e-06,913.845394841,2.58274173182,,,,,z,1,2.56740440591,2018_Nov_15_1541,59.9890524923,chinese_cond1,001,1041,
images/showerhead01.jpg,skateboard,x,sounds/animalfarm_chinese.wav,,,,,,,,,0,1,1,1,0,128,128,223,915.022291898,8.98026200957e-06,917.163078036,2.14079576029,,,,,x,1,2.11744932326,2018_Nov_15_1541,59.9890524923,chinese_cond1,001,1041,
images/grasshopper.jpg,cauliflower,x,sounds/animalfarm_chinese.wav,,,,,,,,,0,1,1,1,0,129,129,148,918.255403151,9.30098576646e-06,920.147200932,1.89180740288,,,,,x,1,1.86740321923,2018_Nov_15_1541,59.9890524923,chinese_cond1,001,1041,
images/feather03b.jpg,feather,z,sounds/animalfarm_chinese.wav,,,,,,,,,0,1,1,1,0,130,130,114,921.285441808,9.30098576646e-06,923.614756688,2.32932450146,,,,,z,1,2.31751513575,2018_Nov_15_1541,59.9890524923,chinese_cond1,001,1041,
images/grandpiano.jpg,tulip,x,sounds/animalfarm_chinese.wav,,,,,,,,,0,1,1,1,0,131,131,236,924.72898787,8.65953870743e-06,926.332129551,1.60315130235,,,,,x,1,1.58398838467,2018_Nov_15_1541,59.9890524923,chinese_cond1,001,1041,
images/dresser02.jpg,dresser,z,sounds/animalfarm_chinese.wav,,,,,,,,,0,1,1,1,0,132,132,87,927.45302986,9.30098576646e-06,928.716091572,1.26307165383,,,,,z,1,1.25058427832,2018_Nov_15_1541,59.9890524923,chinese_cond1,001,1041,
images/key03b.jpg,cigar,x,sounds/animalfarm_chinese.wav,,,,,,,,,0,1,1,1,0,133,133,153,929.815340469,9.30098622121e-06,931.433458661,1.61812813487,,,,,x,1,1.60065960027,2018_Nov_15_1541,59.9890524923,chinese_cond1,001,1041,
images/raisin.jpg,ruler,x,sounds/animalfarm_chinese.wav,,,,,,,,,0,1,1,1,0,134,134,218,932.538249984,8.98026246432e-06,934.284033831,1.74579411017,,,,,x,1,1.73386383164,2018_Nov_15_1541,59.9890524923,chinese_cond1,001,1041,
images/nailclipper03a.jpg,aquarium,x,sounds/animalfarm_chinese.wav,,,,,,,,,0,1,1,1,0,135,135,123,935.452663915,9.30098622121e-06,936.851555301,1.39890164977,,,,,z,0,1.38395368237,2018_Nov_15_1541,59.9890524923,chinese_cond1,001,1041,
images/ladder.jpg,ladder,z,sounds/animalfarm_chinese.wav,,,,,,,,,0,1,1,1,0,136,136,113,937.943719413,8.98026246432e-06,939.518901368,1.57519189698,,,,,z,1,1.55066968703,2018_Nov_15_1541,59.9890524923,chinese_cond1,001,1041,
images/plant01.jpg,plant,z,sounds/animalfarm_chinese.wav,,,,,,,,,0,1,1,1,0,137,137,47,940.630104598,9.30098622121e-06,941.802809475,1.17271514063,,,,,z,1,1.15054062783,2018_Nov_15_1541,59.9890524923,chinese_cond1,001,1041,
images/mitten01.jpg,mitten,z,sounds/animalfarm_chinese.wav,,,,,,,,,0,1,1,1,0,138,138,102,942.98250677,9.62170952334e-06,945.887478275,2.90498240991,,,,,z,1,2.88455584104,2018_Nov_15_1541,59.9890524923,chinese_cond1,001,1041,
images/egg01b (1).jpg,egg,z,sounds/animalfarm_chinese.wav,,,,,,,,,0,1,1,1,0,139,139,19,947.07725431,9.30098622121e-06,948.05443803,0.977193661603,,,,,z,1,0.966913506283,2018_Nov_15_1541,59.9890524923,chinese_cond1,001,1041,
images/battery03b.jpg,battery,z,sounds/animalfarm_chinese.wav,,,,,,,,,0,1,1,1,0,140,140,34,949.16485709,1.15460516099e-05,950.421710875,1.25686468893,,,,,z,1,1.23350638513,2018_Nov_15_1541,59.9890524923,chinese_cond1,001,1041,
images/pepper05a.jpg,lighter,x,sounds/animalfarm_chinese.wav,,,,,,,,,0,1,1,1,0,141,141,198,951.542064671,9.30098576646e-06,952.65562939,1.11357466078,,,,,x,1,1.10054205505,2018_Nov_15_1541,59.9890524923,chinese_cond1,001,1041,
images/skateboard.jpg,key,x,sounds/animalfarm_chinese.wav,,,,,,,,,0,1,1,1,0,142,142,189,953.746571224,9.30098622121e-06,954.939670918,1.19310995786,,,,,x,1,1.18400782053,2018_Nov_15_1541,59.9890524923,chinese_cond1,001,1041,
images/dryingmachine01.jpg,drying machine,z,sounds/animalfarm_chinese.wav,,,,,,,,,0,1,1,1,0,143,143,18,956.060600735,8.65953870743e-06,958.940594923,2.88000413092,,,,,x,0,2.86765851526,2018_Nov_15_1541,59.9890524923,chinese_cond1,001,1041,
images/handbag02a.jpg,candle,x,sounds/animalfarm_chinese.wav,,,,,,,,,0,1,1,1,0,144,144,144,960.12390068,8.98026246432e-06,961.974712223,1.85082148553,,,,,x,1,1.83405661863,2018_Nov_15_1541,59.9890524923,chinese_cond1,001,1041,
images/cheetah.jpg,cheetah,z,sounds/animalfarm_chinese.wav,,,,,,,,,0,1,1,1,0,145,145,82,963.156793135,1.05838803393e-05,964.442023266,1.28524103505,,,,,z,1,1.26714741004,2018_Nov_15_1541,59.9890524923,chinese_cond1,001,1041,
images/drink.jpg,drink,z,sounds/animalfarm_chinese.wav,,,,,,,,,0,1,1,1,0,146,146,117,965.541564984,8.65953870743e-06,966.409187899,0.867632215922,,,,,z,1,0.850463237211,2018_Nov_15_1541,59.9890524923,chinese_cond1,001,1041,
images/diaper01a.jpg,camera,x,sounds/animalfarm_chinese.wav,,,,,,,,,0,1,1,1,0,147,147,143,967.528821671,9.30098576646e-06,968.926515796,1.39770406764,,,,,x,1,1.38394341922,2018_Nov_15_1541,59.9890524923,chinese_cond1,001,1041,
images/crocodile.jpg,triangle ruler,x,sounds/animalfarm_chinese.wav,,,,,,,,,0,1,1,1,0,148,148,235,970.096236019,9.30098576646e-06,971.277119029,1.18089295239,,,,,x,1,1.16721633356,2018_Nov_15_1541,59.9890524923,chinese_cond1,001,1041,
images/elbow.jpg,elbow,z,sounds/animalfarm_chinese.wav,,,,,,,,,0,1,1,1,0,149,149,105,972.41094803,9.30098622121e-06,973.97783094,1.56689253096,,,,,z,1,1.55066904558,2018_Nov_15_1541,59.9890524923,chinese_cond1,001,1041,
images/pouch01b.jpg,pouch,z,sounds/animalfarm_chinese.wav,,,,,,,,,0,1,1,1,0,150,150,25,975.089634564,8.98026246432e-06,976.178399967,1.08877502486,,,,,z,1,1.06720122747,2018_Nov_15_1541,59.9890524923,chinese_cond1,001,1041,
images/masquerademask02b.jpg,mirror,x,sounds/animalfarm_chinese.wav,,,,,,,,,0,1,1,1,0,151,151,204,977.282667228,8.98026246432e-06,978.76240054,1.47974357502,,,,,z,0,1.46728378174,2018_Nov_15_1541,59.9890524923,chinese_cond1,001,1041,
images/lily.jpg,kiwi,x,sounds/animalfarm_chinese.wav,,,,,,,,,0,1,1,1,0,152,152,190,979.861161937,9.30098576646e-06,982.646734119,2.78558372828,,,,,z,0,2.76763442891,2018_Nov_15_1541,59.9890524923,chinese_cond1,001,1041,
images/sunglasses03a.jpg,sun glasses,z,sounds/animalfarm_chinese.wav,,,,,,,,,0,1,1,1,0,153,153,17,983.75460503,8.65953870743e-06,984.713935347,0.959339617165,,,,,z,1,0.950498228162,2018_Nov_15_1541,59.9890524923,chinese_cond1,001,1041,
images/lemon02.jpg,lemon,z,sounds/animalfarm_chinese.wav,,,,,,,,,0,1,1,1,0,154,154,14,985.900447698,8.98026200957e-06,986.864714272,0.964276516389,,,,,z,1,0.950665966634,2018_Nov_15_1541,59.9890524923,chinese_cond1,001,1041,
images/coin01b.jpg,arrow,x,sounds/animalfarm_chinese.wav,,,,,,,,,0,1,1,1,0,155,155,124,987.967051417,9.30098576646e-06,989.115075968,1.14803513463,,,,,z,0,1.13387903394,2018_Nov_15_1541,59.9890524923,chinese_cond1,001,1041,
images/arrow02.jpg,hammer,x,sounds/animalfarm_chinese.wav,,,,,,,,,0,1,1,1,0,156,156,184,990.211533608,8.98026200957e-06,992.049000801,1.83747713641,,,,,z,0,1.81721702311,2018_Nov_15_1541,59.9890524923,chinese_cond1,001,1041,
images/tissuebox03.jpg,tissue box,z,sounds/animalfarm_chinese.wav,,,,,,,,,0,1,1,1,0,157,157,58,993.276367894,9.30098622121e-06,994.46645856,1.19010028708,,,,,z,1,1.167216975,2018_Nov_15_1541,59.9890524923,chinese_cond1,001,1041,
images/swan.jpg,swan,z,sounds/animalfarm_chinese.wav,,,,,,,,,0,1,1,1,0,158,158,54,995.558258971,8.98026246432e-06,996.717085494,1.15883614517,,,,,z,1,1.15058681204,2018_Nov_15_1541,59.9890524923,chinese_cond1,001,1041,
images/razor04a.jpg,razor,z,sounds/animalfarm_chinese.wav,,,,,,,,,0,1,1,1,0,159,159,36,997.815741694,9.62170952334e-06,999.501090942,1.68536015182,,,,,x,0,1.66734157615,2018_Nov_15_1541,59.9890524923,chinese_cond1,001,1041,
images/dreamcatcher.jpg,dream catcher,z,sounds/animalfarm_chinese.wav,,,,,,,,,0,1,1,1,0,160,160,48,1000.59922693,9.30098576646e-06,1003.60199702,3.00278067409,,,,,None,0,,2018_Nov_15_1541,59.9890524923,chinese_cond1,001,1041,
images/backpack01b.jpg,swallow,x,sounds/animalfarm_chinese.wav,,,,,,,,,0,1,1,1,0,161,161,228,1004.79644985,9.30098622121e-06,1006.68629666,1.88985708233,,,,,x,1,1.867400012,2018_Nov_15_1541,59.9890524923,chinese_cond1,001,1041,
images/beachumbrella01.jpg,beach umbrella,z,sounds/animalfarm_chinese.wav,,,,,,,,,0,1,1,1,0,162,162,92,1007.79144688,9.30098622121e-06,1008.67014053,0.878703596499,,,,,x,0,0.867134773532,2018_Nov_15_1541,59.9890524923,chinese_cond1,001,1041,
images/squirrel.jpg,binder,x,sounds/animalfarm_chinese.wav,,,,,,,,,0,1,1,1,0,163,163,132,1009.7723449,9.30098622121e-06,1010.60397652,0.831641248782,,,,,x,1,0.817128503385,2018_Nov_15_1541,59.9890524923,chinese_cond1,001,1041,
images/tent.jpg,tent,z,sounds/animalfarm_chinese.wav,,,,,,,,,0,1,1,1,0,164,164,11,1011.7959771,9.62170952334e-06,1012.75464256,0.958676039922,,,,,x,0,0.950584823549,2018_Nov_15_1541,59.9890524923,chinese_cond1,001,1041,
images/giraffe.jpg,lettuce,x,sounds/animalfarm_chinese.wav,,,,,,,,,0,1,1,1,0,165,165,195,1013.85504991,9.30098622121e-06,1014.75505276,0.900013117598,,,,,x,1,0.883813686497,2018_Nov_15_1541,59.9890524923,chinese_cond1,001,1041,
images/tulip02.jpg,sport shorts,x,sounds/animalfarm_chinese.wav,,,,,,,,,0,1,1,1,0,166,166,225,1015.84898534,9.30098622121e-06,1018.83928217,2.99030708969,,,,,None,0,,2018_Nov_15_1541,59.9890524923,chinese_cond1,001,1041,
images/watermelon01.jpg,orange,x,sounds/animalfarm_chinese.wav,,,,,,,,,0,1,1,1,0,167,167,207,1020.03150084,9.94243328023e-06,1021.55680866,1.5253180857,,,,,x,1,1.51730448445,2018_Nov_15_1541,59.9890524923,chinese_cond1,001,1041,
images/50dollarbill.jpg,cherry,x,sounds/animalfarm_chinese.wav,,,,,,,,,0,1,1,1,0,168,168,151,1022.67590554,9.30098576646e-06,1023.80740641,1.13151081047,,,,,x,1,1.11721070486,2018_Nov_15_1541,59.9890524923,chinese_cond1,001,1041,
images/flipflop01b.jpg,flip flop,z,sounds/animalfarm_chinese.wav,,,,,,,,,0,1,1,1,0,169,169,27,1024.92348528,9.30098576646e-06,1027.60838006,2.6849044035,,,,,x,0,2.66759270277,2018_Nov_15_1541,59.9890524923,chinese_cond1,001,1041,
images/fireextinguisher02.jpg,fire extinguisher,z,sounds/animalfarm_chinese.wav,,,,,,,,,0,1,1,1,0,170,170,175,1028.79337507,9.30098576646e-06,1030.10903225,1.31566744677,,,,,z,1,1.30058413399,2018_Nov_15_1541,59.9890524923,chinese_cond1,001,1041,
images/lighter02b.jpg,stapler,x,sounds/animalfarm_chinese.wav,,,,,,,,,0,1,1,1,0,171,171,227,1031.21068978,8.98026246432e-06,1033.09313687,1.88245702544,,,,,x,1,1.86739231463,2018_Nov_15_1541,59.9890524923,chinese_cond1,001,1041,
images/bull.jpg,button,x,sounds/animalfarm_chinese.wav,,,,,,,,,0,1,1,1,0,172,172,141,1034.198501,9.30098576646e-06,1035.67714065,1.47864990736,,,,,x,1,1.46730174227,2018_Nov_15_1541,59.9890524923,chinese_cond1,001,1041,
images/bullet (2).jpg,rubber glove,x,sounds/animalfarm_chinese.wav,,,,,,,,,0,1,1,1,0,173,173,217,1036.78241273,8.65953870743e-06,1039.77803678,2.99563430961,,,,,None,0,,2018_Nov_15_1541,59.9890524923,chinese_cond1,001,1041,
images/baseball01a.jpg,baseball,z,sounds/animalfarm_chinese.wav,,,,,,,,,0,1,1,1,0,174,174,74,1040.90960725,9.30098576646e-06,1043.84592307,2.93632544984,,,,,z,1,2.91766767192,2018_Nov_15_1541,59.9890524923,chinese_cond1,001,1041,
images/lantern03.jpg,lantern,z,sounds/animalfarm_chinese.wav,,,,,,,,,0,1,1,1,0,175,175,5,1044.95226991,9.30098576646e-06,1046.99673984,2.04447988084,,,,,x,0,2.03386264496,2018_Nov_15_1541,59.9890524923,chinese_cond1,001,1041,
images/leek.jpg,donut,x,sounds/animalfarm_chinese.wav,,,,,,,,,0,1,1,1,0,176,176,169,1048.0970776,9.62170952334e-06,1048.23022025,0.133152915586,,,,,z,0,0.116752070031,2018_Nov_15_1541,59.9890524923,chinese_cond1,001,1041,
images/safe.jpg,safe,z,sounds/animalfarm_chinese.wav,,,,,,,,,0,1,1,1,0,177,177,78,1049.34089461,8.98026246432e-06,1050.24758006,0.90669507423,,,,,z,1,0.8838069513,2018_Nov_15_1541,59.9890524923,chinese_cond1,001,1041,
images/flower01.jpg,bus,x,sounds/animalfarm_chinese.wav,,,,,,,,,0,1,1,1,0,178,178,140,1051.3619886,9.30098576646e-06,1052.4815082,1.11952953688,,,,,x,1,1.10053820637,2018_Nov_15_1541,59.9890524923,chinese_cond1,001,1041,
,,,sounds/animalfarm_chinese.wav,,,,,,,,,0,1,1,1,,,,,,,,,,,,,,,,2018_Nov_15_1541,59.9890524923,chinese_cond1,001,1041,
