images,name,corrAns,sounds,trials_3.thisRepN,trials_3.thisTrialN,trials_3.thisN,trials_3.thisIndex,trials_4.thisRepN,trials_4.thisTrialN,trials_4.thisN,trials_4.thisIndex,trials_2.thisRepN,trials_2.thisTrialN,trials_2.thisN,trials_2.thisIndex,trials.thisRepN,trials.thisTrialN,trials.thisN,trials.thisIndex,begin_global,begin_routine,end_global,end_routine,key_resp_2.keys,key_resp_2.corr,begin_book,key_resp_1.keys,key_resp_1.corr,key_resp_1.rt,date,frameRate,expName,session,participant,
images\volleyball.jpg,volley ball,z,,0,0,0,0,,,,,,,,,,,,,,,,,,,,,,,2018_Nov_27_1533,59.9835706664,spanish_cond1,001,1053,
images\puma.jpg,puma,z,,,,,,0,0,0,0,,,,,,,,,48.234944794,1.02631311165e-05,51.0126467387,2.77771316997,None,0,,,,,2018_Nov_27_1533,59.9835706664,spanish_cond1,001,1053,
images\parkingmeter.jpg,ear,x,sounds\greatgatsby_english.wav,,,,,,,,,0,0,0,0,0,0,0,171,93.2759944169,8.98023426998e-06,94.9741420507,1.69815789693,,,83.009393648,x,1,1.68400376143,2018_Nov_27_1533,59.9835706664,spanish_cond1,001,1053,
images\arrow02.jpg,hammer,x,sounds\greatgatsby_english.wav,,,,,,,,,0,0,0,0,0,1,1,184,96.1653963908,9.30095848162e-06,97.1246860926,0.959299644193,,,,x,1,0.950485221416,2018_Nov_27_1533,59.9835706664,spanish_cond1,001,1053,
images\cherry01.jpg,highlighter,x,sounds\greatgatsby_english.wav,,,,,,,,,0,0,0,0,0,2,2,187,98.3318024168,9.30095848162e-06,99.3919145158,1.06012204141,,,,x,1,1.05048624772,2018_Nov_27_1533,59.9835706664,spanish_cond1,001,1053,
images\lipstick04.jpg,lipstick,z,sounds\greatgatsby_english.wav,,,,,,,,,0,0,0,0,0,3,3,56,100.584274067,9.30095848162e-06,101.259058974,0.674795170416,,,,z,1,0.65038913289,2018_Nov_27_1533,59.9835706664,spanish_cond1,001,1053,
images\croissant02b.jpg,croissant,z,sounds\greatgatsby_english.wav,,,,,,,,,0,0,0,0,0,4,4,39,102.45195798,8.65951005835e-06,103.49297072,1.04102268216,,,,z,1,1.0171525723,2018_Nov_27_1533,59.9835706664,spanish_cond1,001,1053,
images\ant.jpg,ant,z,sounds\greatgatsby_english.wav,,,,,,,,,0,0,0,0,0,5,5,98,104.653887576,9.62168269325e-06,105.776905911,1.12302795613,,,,z,1,1.10052829448,2018_Nov_27_1533,59.9835706664,spanish_cond1,001,1053,
images\key03b.jpg,cigar,x,sounds\greatgatsby_english.wav,,,,,,,,,0,0,0,0,0,6,6,153,106.949288284,9.62168269325e-06,107.694056495,0.744778152875,,,,x,1,0.733735348593,2018_Nov_27_1533,59.9835706664,spanish_cond1,001,1053,
images\computermouse02a.jpg,world map,x,sounds\greatgatsby_english.wav,,,,,,,,,0,0,0,0,0,7,7,239,108.866354518,8.98023426998e-06,110.061317696,1.19497279951,,,,x,1,1.18386713356,2018_Nov_27_1533,59.9835706664,spanish_cond1,001,1053,
images\lock02a.jpg,lock,z,sounds\greatgatsby_english.wav,,,,,,,,,0,0,0,0,0,8,8,65,111.259627936,9.30095848162e-06,112.328564721,1.06894672732,,,,z,1,1.05049747303,2018_Nov_27_1533,59.9835706664,spanish_cond1,001,1053,
images\computerkeyboard01a.jpg,computer keyboard,z,sounds\greatgatsby_english.wav,,,,,,,,,0,0,0,0,0,9,9,61,113.522798896,9.30095848162e-06,114.262391924,0.739602650196,,,,x,0,0.717075085689,2018_Nov_27_1533,59.9835706664,spanish_cond1,001,1053,
images\birthdaycandle.jpg,birthday candle,z,sounds\greatgatsby_english.wav,,,,,,,,,0,0,0,0,0,10,10,55,115.421359428,9.30095848162e-06,116.562993793,1.14164430695,,,,z,1,1.11718887811,2018_Nov_27_1533,59.9835706664,spanish_cond1,001,1053,
images\umbrella01.jpg,umbrella,z,sounds\greatgatsby_english.wav,,,,,,,,,0,0,0,0,0,11,11,53,117.722966762,8.98023426998e-06,118.480165544,0.757208724433,,,,z,1,0.733771590254,2018_Nov_27_1533,59.9835706664,spanish_cond1,001,1053,
images\radio03a.jpg,radio,z,sounds\greatgatsby_english.wav,,,,,,,,,0,0,0,0,0,12,12,37,119.673032158,9.30095848162e-06,120.664048393,0.991025857307,,,,z,1,0.967153823105,2018_Nov_27_1533,59.9835706664,spanish_cond1,001,1053,
images\desktopcomputer.jpg,desktop computer,z,sounds\greatgatsby_english.wav,,,,,,,,,0,0,0,0,0,13,13,16,121.923817768,8.98023426998e-06,122.747900389,0.824092883864,,,,z,1,0.800428036557,2018_Nov_27_1533,59.9835706664,spanish_cond1,001,1053,
images\medal01.jpg,medal,z,sounds\greatgatsby_english.wav,,,,,,,,,0,0,0,0,0,14,14,115,123.913207619,9.94239235297e-06,124.698407098,0.785209743044,,,,z,1,0.767091153888,2018_Nov_27_1533,59.9835706664,spanish_cond1,001,1053,
images\banjo.jpg,knife,x,sounds\greatgatsby_english.wav,,,,,,,,,0,0,0,0,0,15,15,191,125.847770239,9.94240690488e-06,126.582223045,0.734463068467,,,,x,1,0.717082783027,2018_Nov_27_1533,59.9835706664,spanish_cond1,001,1053,
images\masquerademask02b.jpg,mirror,x,sounds\greatgatsby_english.wav,,,,,,,,,0,0,0,0,0,16,16,204,127.779249432,8.9802488219e-06,128.699613016,0.920373526533,,,,x,1,0.900601932415,2018_Nov_27_1533,59.9835706664,spanish_cond1,001,1053,
images\watermelon01.jpg,orange,x,sounds\greatgatsby_english.wav,,,,,,,,,0,0,0,0,0,17,17,207,129.903141736,8.98023426998e-06,130.649925368,0.746793895232,,,,x,1,0.733750743282,2018_Nov_27_1533,59.9835706664,spanish_cond1,001,1053,
images\carrot02.jpg,corkscrew,x,sounds\greatgatsby_english.wav,,,,,,,,,0,0,0,0,0,18,18,161,131.821004645,9.30095848162e-06,132.717128967,0.89613458552,,,,x,1,0.883775214417,2018_Nov_27_1533,59.9835706664,spanish_cond1,001,1053,
images\bracelet02a.jpg,chess knight,x,sounds\greatgatsby_english.wav,,,,,,,,,0,0,0,0,0,19,19,152,133.893550843,1.02631311165e-05,134.817664959,0.924124699566,,,,z,0,0.900460493693,2018_Nov_27_1533,59.9835706664,spanish_cond1,001,1053,
images\atm.jpg,atm,z,sounds\greatgatsby_english.wav,,,,,,,,,0,0,0,0,0,20,20,96,136.023003517,8.98023426998e-06,137.551699542,1.52870660862,,,,z,1,1.5172853515,2018_Nov_27_1533,59.9835706664,spanish_cond1,001,1053,
images\dryingmachine01.jpg,drying machine,z,sounds\greatgatsby_english.wav,,,,,,,,,0,0,0,0,0,21,21,18,138.757597761,8.98023426998e-06,141.152620401,2.39503194077,,,,z,1,2.38414821494,2018_Nov_27_1533,59.9835706664,spanish_cond1,001,1053,
images\broom02.jpg,broom,z,sounds\greatgatsby_english.wav,,,,,,,,,0,0,0,0,0,22,22,116,142.31525569,9.62168269325e-06,143.319842025,1.00459627743,,,,z,1,0.983814406733,2018_Nov_27_1533,59.9835706664,spanish_cond1,001,1053,
images\magnifyingglass01b.jpg,magnifying glass,z,sounds\greatgatsby_english.wav,,,,,,,,,0,0,0,0,0,23,23,64,144.516673413,8.9802488219e-06,145.637103194,1.1204397237,,,,z,1,1.10051065472,2018_Nov_27_1533,59.9835706664,spanish_cond1,001,1053,
images\tissuebox03.jpg,tissue box,z,sounds\greatgatsby_english.wav,,,,,,,,,0,0,0,0,0,24,24,58,146.79513547,8.98023426998e-06,147.921022669,1.12589650022,,,,z,1,1.11718502943,2018_Nov_27_1533,59.9835706664,spanish_cond1,001,1053,
images\bicycle.jpg,hand bag,x,sounds\greatgatsby_english.wav,,,,,,,,,0,0,0,0,0,25,25,186,149.066731495,9.30095848162e-06,150.221606898,1.15488534483,,,,x,1,1.13384208511,2018_Nov_27_1533,59.9835706664,spanish_cond1,001,1053,
images\cigar.jpg,crocodile,x,sounds\greatgatsby_english.wav,,,,,,,,,0,0,0,0,0,26,26,162,151.358401877,8.98023426998e-06,152.938978973,1.58058671733,,,,x,1,1.56730270259,2018_Nov_27_1533,59.9835706664,spanish_cond1,001,1053,
images\paintbrush03a.jpg,paint brush,z,sounds\greatgatsby_english.wav,,,,,,,,,0,0,0,0,0,27,27,0,154.118941628,9.30095848162e-06,155.03951272,0.920581034123,,,,z,1,0.900458248623,2018_Nov_27_1533,59.9835706664,spanish_cond1,001,1053,
images\parkfountain.jpg,park fountain,z,sounds\greatgatsby_english.wav,,,,,,,,,0,0,0,0,0,28,28,93,156.23456602,9.62168269325e-06,157.506814396,1.27225831778,,,,z,1,1.25055404851,2018_Nov_27_1533,59.9835706664,spanish_cond1,001,1053,
images\crocodile.jpg,triangle ruler,x,sounds\greatgatsby_english.wav,,,,,,,,,0,0,0,0,0,29,29,235,158.671532458,9.62168269325e-06,159.557344262,0.885822066877,,,,x,1,0.867125856093,2018_Nov_27_1533,59.9835706664,spanish_cond1,001,1053,
images\cake.jpg,cake,z,sounds\greatgatsby_english.wav,,,,,,,,,0,0,0,0,0,30,30,23,160.745908059,8.98023426998e-06,161.674564571,0.928666133419,,,,z,1,0.917124605272,2018_Nov_27_1533,59.9835706664,spanish_cond1,001,1053,
images\notebook02b.jpg,notebook,z,sounds\greatgatsby_english.wav,,,,,,,,,0,0,0,0,0,31,31,7,162.855016649,9.30095848162e-06,163.875116663,1.0201102773,,,,z,1,1.00048557422,2018_Nov_27_1533,59.9835706664,spanish_cond1,001,1053,
images\chessknight02b (1).jpg,cockroach,x,sounds\greatgatsby_english.wav,,,,,,,,,0,0,0,0,0,32,32,155,165.04158972,9.30095848162e-06,166.09234762,1.05076784229,,,,x,1,1.03383047493,2018_Nov_27_1533,59.9835706664,spanish_cond1,001,1053,
images\floorlamp.jpg,floor lamp,z,sounds\greatgatsby_english.wav,,,,,,,,,0,0,0,0,0,33,33,26,167.250061739,9.30095848162e-06,168.009507505,0.75945570787,,,,z,1,0.750430890985,2018_Nov_27_1533,59.9835706664,spanish_cond1,001,1053,
images\feather03b.jpg,feather,z,sounds\greatgatsby_english.wav,,,,,,,,,0,0,0,0,0,34,34,114,169.183132037,8.98023426998e-06,169.87668628,0.693564185276,,,,z,1,0.683772520337,2018_Nov_27_1533,59.9835706664,spanish_cond1,001,1053,
images\glasses01b.jpg,calculator,x,sounds\greatgatsby_english.wav,,,,,,,,,0,0,0,0,0,35,35,142,171.032574845,9.30097303353e-06,171.827164125,0.79459922167,,,,x,1,0.783780281839,2018_Nov_27_1533,59.9835706664,spanish_cond1,001,1053,
images\sunglasses03a.jpg,sun glasses,z,sounds\greatgatsby_english.wav,,,,,,,,,0,0,0,0,0,36,36,17,173.004922132,8.9802488219e-06,173.710969487,0.706057297764,,,,z,1,0.683729543511,2018_Nov_27_1533,59.9835706664,spanish_cond1,001,1053,
images\doorhandle.jpg,doll,x,sounds\greatgatsby_english.wav,,,,,,,,,0,0,0,0,0,37,37,168,174.887010986,9.30095848162e-06,175.81151061,0.924509887569,,,,x,1,0.900465945975,2018_Nov_27_1533,59.9835706664,spanish_cond1,001,1053,
images\stapler03a.jpg,candy cane,x,sounds\greatgatsby_english.wav,,,,,,,,,0,0,0,0,0,38,38,145,176.991212197,9.30095848162e-06,177.828702311,0.837500697569,,,,x,1,0.817115240163,2018_Nov_27_1533,59.9835706664,spanish_cond1,001,1053,
images\egg01b (1).jpg,egg,z,sounds\greatgatsby_english.wav,,,,,,,,,0,0,0,0,0,39,39,19,179.010886612,9.62168269325e-06,179.846052769,0.835176099237,,,,z,1,0.817283619603,2018_Nov_27_1533,59.9835706664,spanish_cond1,001,1053,
images\pineapple01a.jpg,pineapple,z,sounds\greatgatsby_english.wav,,,,,,,,,0,0,0,0,0,40,40,51,181.03344208,9.30095848162e-06,181.796383723,0.7629512649,,,,z,1,0.750409723274,2018_Nov_27_1533,59.9835706664,spanish_cond1,001,1053,
images\boxingglove02a.jpg,bracelet,x,sounds\greatgatsby_english.wav,,,,,,,,,0,0,0,0,0,41,41,135,182.978500031,9.62168269325e-06,184.013621736,1.03513164706,,,,x,1,1.01716475976,2018_Nov_27_1533,59.9835706664,spanish_cond1,001,1053,
images\sportshorts02.jpg,tape,x,sounds\greatgatsby_english.wav,,,,,,,,,0,0,0,0,0,42,42,230,185.223073884,8.98023426998e-06,186.24750622,1.0244422792,,,,x,1,1.00047915976,2018_Nov_27_1533,59.9835706664,spanish_cond1,001,1053,
images\lightswitch02a.jpg,fork,x,sounds\greatgatsby_english.wav,,,,,,,,,0,0,0,0,0,43,43,177,187.453608419,8.98023426998e-06,188.031310556,0.57771207951,,,,x,1,0.56704420007,2018_Nov_27_1533,59.9835706664,spanish_cond1,001,1053,
images\diploma01.jpg,glasses,x,sounds\greatgatsby_english.wav,,,,,,,,,0,0,0,0,0,44,44,179,189.217235447,8.98023426998e-06,190.148503283,0.931277778596,,,,x,1,0.917122039493,2018_Nov_27_1533,59.9835706664,spanish_cond1,001,1053,
images\gluestick.jpg,squirrel,x,sounds\greatgatsby_english.wav,,,,,,,,,0,0,0,0,0,45,45,226,191.324464922,9.30095848162e-06,192.215718108,0.891263127982,,,,x,1,0.867127780424,2018_Nov_27_1533,59.9835706664,spanish_cond1,001,1053,
images\candy.jpg,candy,z,sounds\greatgatsby_english.wav,,,,,,,,,0,0,0,0,0,46,46,31,193.400398915,9.94240690488e-06,194.099526357,0.699137384159,,,,z,1,0.6837407688,2018_Nov_27_1533,59.9835706664,spanish_cond1,001,1053,
images\bowtie.jpg,bowtie,z,sounds\greatgatsby_english.wav,,,,,,,,,0,0,0,0,0,47,47,89,195.281189484,9.62168269325e-06,196.383458982,1.10227911986,,,,z,1,1.08385520267,2018_Nov_27_1533,59.9835706664,spanish_cond1,001,1053,
images\tent.jpg,tent,z,sounds\greatgatsby_english.wav,,,,,,,,,0,0,0,0,0,48,48,11,197.573524724,8.9802488219e-06,198.383948084,0.810432982107,,,,z,1,0.800415207646,2018_Nov_27_1533,59.9835706664,spanish_cond1,001,1053,
images\butterfly.jpg,butterfly,z,sounds\greatgatsby_english.wav,,,,,,,,,0,0,0,0,0,49,49,91,199.556895571,8.98023426998e-06,200.434656593,0.877770643478,,,,z,1,0.867294876967,2018_Nov_27_1533,59.9835706664,spanish_cond1,001,1053,
images\diaper01a.jpg,camera,x,sounds\greatgatsby_english.wav,,,,,,,,,0,0,0,0,0,50,50,143,201.62541253,8.98023426998e-06,202.485096335,0.859693427556,,,,x,1,0.850516588092,2018_Nov_27_1533,59.9835706664,spanish_cond1,001,1053,
images\gps.jpg,gps,z,sounds\greatgatsby_english.wav,,,,,,,,,0,0,0,0,0,51,51,21,203.668011885,9.94240690488e-06,204.702241018,1.03423875498,,,,z,1,1.0171541759,2018_Nov_27_1533,59.9835706664,spanish_cond1,001,1053,
images\pingpongpaddle01c (1).jpg,ping pong paddle,z,sounds\greatgatsby_english.wav,,,,,,,,,0,0,0,0,0,52,52,10,205.89086447,8.98023426998e-06,206.536047631,0.645193103948,,,,z,1,0.633728869987,2018_Nov_27_1533,59.9835706664,spanish_cond1,001,1053,
images\8ball.jpg,nail clipper,x,sounds\greatgatsby_english.wav,,,,,,,,,0,0,0,0,0,53,53,206,207.710233108,9.94240690488e-06,208.469888626,0.759665139805,,,,x,1,0.750436343282,2018_Nov_27_1533,59.9835706664,spanish_cond1,001,1053,
images\spoon02b.jpg,spoon,z,sounds\greatgatsby_english.wav,,,,,,,,,0,0,0,0,0,54,54,38,209.635485148,1.09045649879e-05,210.353760057,0.718313075413,,,,z,1,0.700414822786,2018_Nov_27_1533,59.9835706664,spanish_cond1,001,1053,
images\antelope.jpg,antelope,z,sounds\greatgatsby_english.wav,,,,,,,,,0,0,0,0,0,55,55,12,211.532704097,9.94240690488e-06,212.437559775,0.904865620396,,,,z,1,0.883757574673,2018_Nov_27_1533,59.9835706664,spanish_cond1,001,1053,
images\pipe.jpg,icecube,x,sounds\greatgatsby_english.wav,,,,,,,,,0,0,0,0,0,56,56,188,213.623742526,8.98023426998e-06,215.104913536,1.48118127314,,,,x,1,1.4672792257,2018_Nov_27_1533,59.9835706664,spanish_cond1,001,1053,
images\beermug01b.jpg,beer mug,z,sounds\greatgatsby_english.wav,,,,,,,,,0,0,0,0,0,57,57,111,216.27695883,9.62168269325e-06,217.405502255,1.12855400874,,,,x,0,1.11718791594,2018_Nov_27_1533,59.9835706664,spanish_cond1,001,1053,
images\raisin.jpg,ruler,x,sounds\greatgatsby_english.wav,,,,,,,,,0,0,0,0,0,58,58,218,218.561635532,9.30095848162e-06,219.922814868,1.36118927837,,,,x,1,1.35057977049,2018_Nov_27_1533,59.9835706664,spanish_cond1,001,1053,
images\printer03a.jpg,printer,z,sounds\greatgatsby_english.wav,,,,,,,,,0,0,0,0,0,59,59,72,221.070958942,9.30095848162e-06,222.440129084,1.36918008518,,,,z,1,1.35058073264,2018_Nov_27_1533,59.9835706664,spanish_cond1,001,1053,
images\blueberry02.jpg,blueberry,z,sounds\greatgatsby_english.wav,,,,,,,,,0,0,0,0,0,60,60,46,223.627921544,9.94240690488e-06,224.95742951,1.32951822956,,,,z,1,1.31722460662,2018_Nov_27_1533,59.9835706664,spanish_cond1,001,1053,
images\skateboard.jpg,key,x,sounds\greatgatsby_english.wav,,,,,,,,,0,0,0,0,0,61,61,189,226.082369615,8.9802488219e-06,227.691469545,1.60910955183,,,,x,1,1.60064503754,2018_Nov_27_1533,59.9835706664,spanish_cond1,001,1053,
images\ashtray02b.jpg,ashtray,z,sounds\greatgatsby_english.wav,,,,,,,,,0,0,0,0,0,62,62,43,228.842354515,9.30095848162e-06,229.942042196,1.09969794334,,,,z,1,1.08384269448,2018_Nov_27_1533,59.9835706664,spanish_cond1,001,1053,
images\grandpiano.jpg,tulip,x,sounds\greatgatsby_english.wav,,,,,,,,,0,0,0,0,0,63,63,236,231.085955937,9.94239235297e-06,231.959229727,0.873284694651,,,,x,1,0.850444746204,2018_Nov_27_1533,59.9835706664,spanish_cond1,001,1053,
images\swan.jpg,swan,z,sounds\greatgatsby_english.wav,,,,,,,,,0,0,0,0,0,64,64,54,233.137445726,8.98023426998e-06,234.593247568,1.45581178452,,,,z,1,1.4339221375,2018_Nov_27_1533,59.9835706664,spanish_cond1,001,1053,
images\tank.jpg,wallet,x,sounds\greatgatsby_english.wav,,,,,,,,,0,0,0,0,0,65,65,237,235.700186147,9.62168269325e-06,237.994110248,2.29393404273,,,,x,1,2.28415264093,2018_Nov_27_1533,59.9835706664,spanish_cond1,001,1053,
images\seagull.jpg,seagull,z,sounds\greatgatsby_english.wav,,,,,,,,,0,0,0,0,0,66,66,50,239.146622886,9.62166814134e-06,240.161346625,1.01473400218,,,,z,1,1.00049872384,2018_Nov_27_1533,59.9835706664,spanish_cond1,001,1053,
images\cockroach02.jpg,belt,x,sounds\greatgatsby_english.wav,,,,,,,,,0,0,0,0,0,67,67,129,241.325783413,9.62168269325e-06,242.511932168,1.18615869746,,,,x,1,1.16719789042,2018_Nov_27_1533,59.9835706664,spanish_cond1,001,1053,
images\eraser.jpg,eraser,z,sounds\greatgatsby_english.wav,,,,,,,,,0,0,0,0,0,68,68,110,243.653416755,9.62168269325e-06,245.195952287,1.54254547367,,,,z,1,1.53395587754,2018_Nov_27_1533,59.9835706664,spanish_cond1,001,1053,
images\squirrel.jpg,binder,x,sounds\greatgatsby_english.wav,,,,,,,,,0,0,0,0,0,69,69,132,246.390399742,9.30095848162e-06,247.796615926,1.40622644692,,,,x,1,1.38390542784,2018_Nov_27_1533,59.9835706664,spanish_cond1,001,1053,
images\wallet01.jpg,lamp,x,sounds\greatgatsby_english.wav,,,,,,,,,0,0,0,0,0,70,70,193,248.980032124,8.98023426998e-06,249.863816639,0.883794778507,,,,x,1,0.867119762363,2018_Nov_27_1533,59.9835706664,spanish_cond1,001,1053,
images\lamp04b.jpg,parking meter,x,sounds\greatgatsby_english.wav,,,,,,,,,0,0,0,0,0,71,71,209,251.061690696,9.30095848162e-06,252.081048558,1.01936812491,,,,x,1,1.00048236699,2018_Nov_27_1533,59.9835706664,spanish_cond1,001,1053,
images\doll.jpg,carrot,x,sounds\greatgatsby_english.wav,,,,,,,,,0,0,0,0,0,72,72,146,253.248936323,9.94239235297e-06,254.331629227,1.08270412878,,,,x,1,1.06717377207,2018_Nov_27_1533,59.9835706664,spanish_cond1,001,1053,
images\highheelshoe02a.jpg,high heel shoe,z,sounds\greatgatsby_english.wav,,,,,,,,,0,0,0,0,0,73,73,75,255.474641416,9.30095848162e-06,256.332143024,0.857511550828,,,,z,1,0.833779031018,2018_Nov_27_1533,59.9835706664,spanish_cond1,001,1053,
images\teapot.jpg,light switch,x,sounds\greatgatsby_english.wav,,,,,,,,,0,0,0,0,0,74,74,197,257.518372922,8.98023426998e-06,258.566038414,1.04767479228,,,,x,1,1.03379872339,2018_Nov_27_1533,59.9835706664,spanish_cond1,001,1053,
images\triangleruler02.jpg,bottle of red wine,x,sounds\greatgatsby_english.wav,,,,,,,,,0,0,0,0,0,75,75,134,259.740695673,8.98023426998e-06,261.133367415,1.39268136388,,,,x,1,1.38391537026,2018_Nov_27_1533,59.9835706664,spanish_cond1,001,1053,
images\worldmap.jpg,scooter,x,sounds\greatgatsby_english.wav,,,,,,,,,0,0,0,0,0,76,76,220,262.33804304,8.9802488219e-06,263.417289136,1.07925603873,,,,x,1,1.0671586981,2018_Nov_27_1533,59.9835706664,spanish_cond1,001,1053,
images\marker01a.jpg,marker,z,sounds\greatgatsby_english.wav,,,,,,,,,0,0,0,0,0,77,77,95,264.550097532,9.30097303353e-06,265.467809701,0.917722432438,,,,z,1,0.900457286465,2018_Nov_27_1533,59.9835706664,spanish_cond1,001,1053,
images\orange.jpg,bat,x,sounds\greatgatsby_english.wav,,,,,,,,,0,0,0,0,0,78,78,128,266.665928791,9.30095848162e-06,267.484997232,0.819078063272,,,,x,1,0.80043316813,2018_Nov_27_1533,59.9835706664,spanish_cond1,001,1053,
images\tulip02.jpg,sport shorts,x,sounds\greatgatsby_english.wav,,,,,,,,,0,0,0,0,0,79,79,225,268.641221594,9.94240690488e-06,269.835594963,1.19438363185,,,,x,1,1.18385815331,2018_Nov_27_1533,59.9835706664,spanish_cond1,001,1053,
images\belt02a.jpg,snowman,x,sounds\greatgatsby_english.wav,,,,,,,,,0,0,0,0,0,80,80,224,270.972010527,9.62168269325e-06,271.819438876,0.847438291341,,,,x,1,0.83377389946,2018_Nov_27_1533,59.9835706664,spanish_cond1,001,1053,
images\hairpin.jpg,hair pin,z,sounds\greatgatsby_english.wav,,,,,,,,,0,0,0,0,0,81,81,28,272.980899999,9.30097303353e-06,274.120048442,1.13915838508,,,,x,0,1.11719625472,2018_Nov_27_1533,59.9835706664,spanish_cond1,001,1053,
images\lemon02.jpg,lemon,z,sounds\greatgatsby_english.wav,,,,,,,,,0,0,0,0,0,82,82,14,275.308864648,8.98023426998e-06,276.170569007,0.861713980761,,,,z,1,0.850408825267,2018_Nov_27_1533,59.9835706664,spanish_cond1,001,1053,
images\bottleofredwine02.jpg,pipe,x,sounds\greatgatsby_english.wav,,,,,,,,,0,0,0,0,0,83,83,213,277.35886019,9.30095848162e-06,279.254682071,1.89583150255,,,,x,1,1.88400773839,2018_Nov_27_1533,59.9835706664,spanish_cond1,001,1053,
images\candle08a.jpg,screw driver,x,sounds\greatgatsby_english.wav,,,,,,,,,0,0,0,0,0,84,84,221,280.435219461,9.30095848162e-06,282.738907323,2.30369844622,,,,x,1,2.28414686793,2018_Nov_27_1533,59.9835706664,spanish_cond1,001,1053,
images\screw03c.jpg,screw,z,sounds\greatgatsby_english.wav,,,,,,,,,0,0,0,0,0,85,85,84,283.895937982,9.94240690488e-06,284.689663555,0.793736156804,,,,z,1,0.784021144616,2018_Nov_27_1533,59.9835706664,spanish_cond1,001,1053,
images\honeycomb.jpg,honey comb,z,sounds\greatgatsby_english.wav,,,,,,,,,0,0,0,0,0,86,86,59,285.887409644,9.62166814134e-06,287.390099225,1.50269984393,,,,z,1,1.48394686522,2018_Nov_27_1533,59.9835706664,spanish_cond1,001,1053,
images\snowman.jpg,globe,x,sounds\greatgatsby_english.wav,,,,,,,,,0,0,0,0,0,87,87,180,288.581279158,9.30095848162e-06,289.607332748,1.0260635326,,,,x,1,1.01714038484,2018_Nov_27_1533,59.9835706664,spanish_cond1,001,1053,
images\headphones02b.jpg,headphones,z,sounds\greatgatsby_english.wav,,,,,,,,,0,0,0,0,0,88,88,101,290.796746781,9.30097303353e-06,291.607842697,0.811105216941,,,,z,1,0.800429640178,2018_Nov_27_1533,59.9835706664,spanish_cond1,001,1053,
images\tape01a.jpg,tie,x,sounds\greatgatsby_english.wav,,,,,,,,,0,0,0,0,0,89,89,232,292.800302313,9.62168269325e-06,293.641719035,0.841426664512,,,,x,1,0.817121654633,2018_Nov_27_1533,59.9835706664,spanish_cond1,001,1053,
images\handfan01b.jpg,handfan,z,sounds\greatgatsby_english.wav,,,,,,,,,0,0,0,0,0,90,90,69,294.83389385,9.62168269325e-06,295.625544347,0.791660760035,,,,z,1,0.76709468184,2018_Nov_27_1533,59.9835706664,spanish_cond1,001,1053,
images\flamingo.jpg,flamingo,z,sounds\greatgatsby_english.wav,,,,,,,,,0,0,0,0,0,91,91,52,296.790292236,8.9802488219e-06,297.959486305,1.16920369037,,,,z,1,1.15053217522,2018_Nov_27_1533,59.9835706664,spanish_cond1,001,1053,
images\graduationcap.jpg,graduation cap,z,sounds\greatgatsby_english.wav,,,,,,,,,0,0,0,0,0,92,92,35,299.093865601,9.62168269325e-06,299.876635285,0.782779626927,,,,z,1,0.767091474612,2018_Nov_27_1533,59.9835706664,spanish_cond1,001,1053,
images\lollipop03b.jpg,lollipop,z,sounds\greatgatsby_english.wav,,,,,,,,,0,0,0,0,0,93,93,42,301.033199293,9.30095848162e-06,301.910485965,0.877295973842,,,,z,1,0.867121365969,2018_Nov_27_1533,59.9835706664,spanish_cond1,001,1053,
images\plant01.jpg,plant,z,sounds\greatgatsby_english.wav,,,,,,,,,0,0,0,0,0,94,94,47,303.089457587,9.30095848162e-06,303.744312463,0.654864497861,,,,z,1,0.633749396249,2018_Nov_27_1533,59.9835706664,spanish_cond1,001,1053,
images\electricguitar02.jpg,electric guitar,z,sounds\greatgatsby_english.wav,,,,,,,,,0,0,0,0,0,95,95,100,304.90968929,9.30095848162e-06,305.644774561,0.735094571501,,,,z,1,0.717077330744,2018_Nov_27_1533,59.9835706664,spanish_cond1,001,1053,
images\comb02a.jpg,diploma,x,sounds\greatgatsby_english.wav,,,,,,,,,0,0,0,0,0,96,96,166,306.79607198,9.30095848162e-06,308.362139259,1.56607722105,,,,x,1,1.5506241585,2018_Nov_27_1533,59.9835706664,spanish_cond1,001,1053,
images\mushroom01.jpg,shower head,x,sounds\greatgatsby_english.wav,,,,,,,,,0,0,0,0,0,97,97,222,309.555722046,8.98023426998e-06,310.746082853,1.19037074906,,,,x,1,1.16718987234,2018_Nov_27_1533,59.9835706664,spanish_cond1,001,1053,
images\gamecontroller01.jpg,game controller,z,sounds\greatgatsby_english.wav,,,,,,,,,0,0,0,0,0,98,98,112,311.922912368,9.62168269325e-06,312.629915156,0.707012730767,,,,z,1,0.683756484214,2018_Nov_27_1533,59.9835706664,spanish_cond1,001,1053,
images\lightbulb03b.jpg,treadmill,x,sounds\greatgatsby_english.wav,,,,,,,,,0,0,0,0,0,99,99,234,313.84009791,9.62168269325e-06,314.730440243,0.89035259615,,,,x,1,0.867117517293,2018_Nov_27_1533,59.9835706664,spanish_cond1,001,1053,
images\toucan.jpg,toucan,z,sounds\greatgatsby_english.wav,,,,,,,,,0,0,0,0,0,100,100,81,315.885757922,9.30095848162e-06,316.580923155,0.695174854831,,,,z,1,0.683742693131,2018_Nov_27_1533,59.9835706664,spanish_cond1,001,1053,
images\chameleon.jpg,50 dollar bill,x,sounds\greatgatsby_english.wav,,,,,,,,,0,0,0,0,0,101,101,120,317.763907339,8.98023426998e-06,318.814826883,1.0509288451,,,,x,1,1.03382438121,2018_Nov_27_1533,59.9835706664,spanish_cond1,001,1053,
images\ladybug03.jpg,giraffe,x,sounds\greatgatsby_english.wav,,,,,,,,,0,0,0,0,0,102,102,178,319.972256201,8.65952461027e-06,320.882016692,0.90976947092,,,,x,1,0.900458890086,2018_Nov_27_1533,59.9835706664,spanish_cond1,001,1053,
images\mirror02.jpg,8 ball,x,sounds\greatgatsby_english.wav,,,,,,,,,0,0,0,0,0,103,103,121,322.065165727,9.62168269325e-06,323.115930362,1.05077425674,,,,x,1,1.03382213615,2018_Nov_27_1533,59.9835706664,spanish_cond1,001,1053,
images\thumbtack02a.jpg,thumb tack,z,sounds\greatgatsby_english.wav,,,,,,,,,0,0,0,0,0,104,104,60,324.275332766,8.98023426998e-06,325.11643967,0.841116204901,,,,z,1,0.81711203295,2018_Nov_27_1533,59.9835706664,spanish_cond1,001,1053,
images\flashlight05.jpg,flash light,z,sounds\greatgatsby_english.wav,,,,,,,,,0,0,0,0,0,105,105,8,326.255436411,9.62168269325e-06,326.933566456,0.67813998778,,,,z,1,0.667058376028,2018_Nov_27_1533,59.9835706664,spanish_cond1,001,1053,
images\peach01.jpg,peach,z,sounds\greatgatsby_english.wav,,,,,,,,,0,0,0,0,0,106,106,106,328.142814624,9.62168269325e-06,328.917401389,0.774596707197,,,,z,1,0.750410685461,2018_Nov_27_1533,59.9835706664,spanish_cond1,001,1053,
images\blackolive.jpg,tank,x,sounds\greatgatsby_english.wav,,,,,,,,,0,0,0,0,0,107,107,229,330.098653991,9.62168269325e-06,331.051282923,0.952639195268,,,,x,1,0.933786151058,2018_Nov_27_1533,59.9835706664,spanish_cond1,001,1053,
images\coin01b.jpg,arrow,x,sounds\greatgatsby_english.wav,,,,,,,,,0,0,0,0,0,108,108,124,332.264256927,9.62168269325e-06,333.301867119,1.03762013471,,,,x,1,1.01714519567,2018_Nov_27_1533,59.9835706664,spanish_cond1,001,1053,
images\coffeepot03b.jpg,coffee pot,z,sounds\greatgatsby_english.wav,,,,,,,,,0,0,0,0,0,109,109,107,334.425309129,9.30095848162e-06,335.235547432,0.810248566529,,,,z,1,0.800284032055,2018_Nov_27_1533,59.9835706664,spanish_cond1,001,1053,
images\leaf01a.jpg,leaf,z,sounds\greatgatsby_english.wav,,,,,,,,,0,0,0,0,0,110,110,68,336.414236497,9.94240690488e-06,338.636831862,2.22260723203,,,,z,1,2.20100302827,2018_Nov_27_1533,59.9835706664,spanish_cond1,001,1053,
images\bowlingball.jpg,bowling ball,z,sounds\greatgatsby_english.wav,,,,,,,,,0,0,0,0,0,111,111,20,339.842275297,8.9802488219e-06,342.837498453,2.9952334188,,,,None,0,,2018_Nov_27_1533,59.9835706664,spanish_cond1,001,1053,
images\backpack01b.jpg,swallow,x,sounds\greatgatsby_english.wav,,,,,,,,,0,0,0,0,0,112,112,228,344.009868318,9.62168269325e-06,344.854821649,0.844963594762,,,,x,1,0.833776144515,2018_Nov_27_1533,59.9835706664,spanish_cond1,001,1053,
images\cocktailshrimp01.jpg,cocktail shrimp,z,sounds\greatgatsby_english.wav,,,,,,,,,0,0,0,0,0,113,113,30,346.049172567,9.62168269325e-06,347.48883949,1.43967686544,,,,z,1,1.41726925122,2018_Nov_27_1533,59.9835706664,spanish_cond1,001,1053,
images\remotecontrol01c.jpg,remote control,z,sounds\greatgatsby_english.wav,,,,,,,,,0,0,0,0,0,114,114,85,348.656177857,9.62168269325e-06,349.406005469,0.749837233219,,,,z,1,0.733769986633,2018_Nov_27_1533,59.9835706664,spanish_cond1,001,1053,
images\daisy.jpg,daisy,z,sounds\greatgatsby_english.wav,,,,,,,,,0,0,0,0,0,115,115,6,350.5744019,1.02631311165e-05,351.523195309,0.948803672145,,,,z,1,0.933789999748,2018_Nov_27_1533,59.9835706664,spanish_cond1,001,1053,
images\paperclip04.jpg,eye drops,x,sounds\greatgatsby_english.wav,,,,,,,,,0,0,0,0,0,116,116,174,352.731546737,8.98023426998e-06,353.657089993,0.92555255715,,,,x,1,0.917142565741,2018_Nov_27_1533,59.9835706664,spanish_cond1,001,1053,
images\saltshaker03c.jpg,salt shaker,z,sounds\greatgatsby_english.wav,,,,,,,,,0,0,0,0,0,117,117,63,354.882246971,9.30095848162e-06,355.824298788,0.942061759648,,,,x,0,0.933800583589,2018_Nov_27_1533,59.9835706664,spanish_cond1,001,1053,
images\puma.jpg,puma,z,sounds\greatgatsby_english.wav,,,,,,,,,0,0,0,0,0,118,118,4,356.922717048,9.30097303353e-06,357.674776889,0.752069463415,,,,z,1,0.733754912668,2018_Nov_27_1533,59.9835706664,spanish_cond1,001,1053,
images\nailclipper03a.jpg,aquarium,x,sounds\greatgatsby_english.wav,,,,,,,,,0,0,0,0,0,119,119,123,358.852502503,9.30097303353e-06,360.942290756,2.08979819485,,,,x,1,2.06743965122,2018_Nov_27_1533,59.9835706664,spanish_cond1,001,1053,
images\toothbrush03a.jpg,parrot,x,sounds\greatgatsby_english.wav,,,,,,,,,0,0,0,0,0,120,120,210,362.113449572,9.30095848162e-06,363.626327552,1.51288728071,,,,x,1,1.50059878934,2018_Nov_27_1533,59.9835706664,spanish_cond1,001,1053,
images\envelope02a.jpg,grand piano,x,sounds\greatgatsby_english.wav,,,,,,,,,0,0,0,0,0,121,121,182,364.820883412,8.98023426998e-06,365.860207546,1.03933311482,,,,x,1,1.01715930748,2018_Nov_27_1533,59.9835706664,spanish_cond1,001,1053,
images\elbow.jpg,elbow,z,sounds\greatgatsby_english.wav,,,,,,,,,0,0,0,0,0,122,122,105,367.048347027,9.62168269325e-06,368.027430132,0.979092726717,,,,z,1,0.967145805043,2018_Nov_27_1533,59.9835706664,spanish_cond1,001,1053,
images\swallow.jpg,mattress,x,sounds\greatgatsby_english.wav,,,,,,,,,0,0,0,0,0,123,123,202,369.243488527,9.30097303353e-06,370.177987324,0.934508418664,,,,x,1,0.917143527913,2018_Nov_27_1533,59.9835706664,spanish_cond1,001,1053,
images\aloe02.jpg,broad sword,x,sounds\greatgatsby_english.wav,,,,,,,,,0,0,0,0,0,124,124,137,371.419736571,9.30095848162e-06,372.745326589,1.32559963925,,,,x,1,1.31725732033,2018_Nov_27_1533,59.9835706664,spanish_cond1,001,1053,
images\dragonfly02.jpg,dragon fly,z,sounds\greatgatsby_english.wav,,,,,,,,,0,0,0,0,0,125,125,29,373.872576218,9.62168269325e-06,375.195932081,1.32336580545,,,,z,1,1.30055536347,2018_Nov_27_1533,59.9835706664,spanish_cond1,001,1053,
images\sock03.jpg,sock,z,sounds\greatgatsby_english.wav,,,,,,,,,0,0,0,0,0,126,126,90,376.376803023,9.30095848162e-06,377.363152101,0.98635902087,,,,z,1,0.967131693251,2018_Nov_27_1533,59.9835706664,spanish_cond1,001,1053,
images\icecube02 (2).jpg,aloe,x,sounds\greatgatsby_english.wav,,,,,,,,,0,0,0,0,0,127,127,122,378.56439471,9.62168269325e-06,380.09702504,1.5326402729,,,,x,1,1.5171201793,2018_Nov_27_1533,59.9835706664,spanish_cond1,001,1053,
images\safe.jpg,safe,z,sounds\greatgatsby_english.wav,,,,,,,,,0,0,0,0,0,128,128,78,381.250174634,9.30095848162e-06,381.981019629,0.730855258473,,,,z,1,0.717099139889,2018_Nov_27_1533,59.9835706664,spanish_cond1,001,1053,
images\kiwi03.jpg,backpack,x,sounds\greatgatsby_english.wav,,,,,,,,,0,0,0,0,0,129,129,125,383.176739071,9.30095848162e-06,384.014912003,0.838182233376,,,,x,1,0.817160462073,2018_Nov_27_1533,59.9835706664,spanish_cond1,001,1053,
images\hairdryer03a.jpg,hairdryer,z,sounds\greatgatsby_english.wav,,,,,,,,,0,0,0,0,0,130,130,119,385.187886431,9.30095848162e-06,386.03205303,0.844176541184,,,,z,1,0.8337844833,2018_Nov_27_1533,59.9835706664,spanish_cond1,001,1053,
images\parkbench03.jpg,park bench,z,sounds\greatgatsby_english.wav,,,,,,,,,0,0,0,0,0,131,131,71,387.205310014,9.30097303353e-06,388.032562017,0.82726194516,,,,z,1,0.817111391487,2018_Nov_27_1533,59.9835706664,spanish_cond1,001,1053,
images\pouch01b.jpg,pouch,z,sounds\greatgatsby_english.wav,,,,,,,,,0,0,0,0,0,132,132,25,389.224111101,9.94239235297e-06,390.033077097,0.808976259461,,,,z,1,0.800442469073,2018_Nov_27_1533,59.9835706664,spanish_cond1,001,1053,
images\plate01b.jpg,plate,z,sounds\greatgatsby_english.wav,,,,,,,,,0,0,0,0,0,133,133,3,391.201878281,8.98023426998e-06,391.833586597,0.631725315092,,,,z,1,0.617051288049,2018_Nov_27_1533,59.9835706664,spanish_cond1,001,1053,
images\bandaid01.jpg,door handle,x,sounds\greatgatsby_english.wav,,,,,,,,,0,0,0,0,0,134,134,170,393.014745548,9.30095848162e-06,394.167468901,1.15273329531,,,,x,1,1.1338545933,2018_Nov_27_1533,59.9835706664,spanish_cond1,001,1053,
images\treadmill.jpg,lily,x,sounds\greatgatsby_english.wav,,,,,,,,,0,0,0,0,0,135,135,199,395.30444573,8.98023426998e-06,396.351362655,1.04692686687,,,,x,1,1.03383945518,2018_Nov_27_1533,59.9835706664,spanish_cond1,001,1053,
images\hairband.jpg,hairband,z,sounds\greatgatsby_english.wav,,,,,,,,,0,0,0,0,0,136,136,66,397.527714613,8.98023426998e-06,398.335204002,0.807499331291,,,,z,1,0.783777074612,2018_Nov_27_1533,59.9835706664,spanish_cond1,001,1053,
images\ear.jpg,bullet,x,sounds\greatgatsby_english.wav,,,,,,,,,0,0,0,0,0,137,137,139,399.501088854,9.30095848162e-06,400.485745478,0.984666887744,,,,x,1,0.967146446492,2018_Nov_27_1533,59.9835706664,spanish_cond1,001,1053,
images\shotglass.jpg,shot glass,z,sounds\greatgatsby_english.wav,,,,,,,,,0,0,0,0,0,138,138,86,401.687919786,8.65951005835e-06,402.803012741,1.11510289747,,,,z,1,1.10051482412,2018_Nov_27_1533,59.9835706664,spanish_cond1,001,1053,
images\leek.jpg,donut,x,sounds\greatgatsby_english.wav,,,,,,,,,0,0,0,0,0,139,139,169,403.95949304,8.98023426998e-06,404.803515634,0.844031895234,,,,x,1,0.833777106687,2018_Nov_27_1533,59.9835706664,spanish_cond1,001,1053,
images\aquarium.jpg,computer mouse,x,sounds\greatgatsby_english.wav,,,,,,,,,0,0,0,0,0,140,140,159,406.016273151,9.30095848162e-06,407.154123628,1.13785977874,,,,x,1,1.11718118076,2018_Nov_27_1533,59.9835706664,spanish_cond1,001,1053,
images\bench02.jpg,electric toothbrush,x,sounds\greatgatsby_english.wav,,,,,,,,,0,0,0,0,0,141,141,172,408.338741253,8.98023426998e-06,409.388034092,1.04930310158,,,,x,1,1.03383047493,2018_Nov_27_1533,59.9835706664,spanish_cond1,001,1053,
images\microphone01.jpg,diaper,x,sounds\greatgatsby_english.wav,,,,,,,,,0,0,0,0,0,142,142,164,410.595074084,9.62168269325e-06,411.538580699,0.943516557949,,,,x,1,0.933805073713,2018_Nov_27_1533,59.9835706664,spanish_cond1,001,1053,
images\50dollarbill.jpg,cherry,x,sounds\greatgatsby_english.wav,,,,,,,,,0,0,0,0,0,143,143,151,412.748358701,9.30095848162e-06,413.505739654,0.757390253493,,,,x,1,0.73374304593,2018_Nov_27_1533,59.9835706664,spanish_cond1,001,1053,
images\globe.jpg,cloud,x,sounds\greatgatsby_english.wav,,,,,,,,,0,0,0,0,0,144,144,154,414.698143464,9.30095848162e-06,415.472913683,0.774780160617,,,,x,1,0.750408761116,2018_Nov_27_1533,59.9835706664,spanish_cond1,001,1053,
images\rhinoceros01.jpg,envelope,x,sounds\greatgatsby_english.wav,,,,,,,,,0,0,0,0,0,145,145,173,416.58680938,9.30095848162e-06,417.690156827,1.10335738969,,,,x,1,1.08384750533,2018_Nov_27_1533,59.9835706664,spanish_cond1,001,1053,
images\cupcake.jpg,scissors,x,sounds\greatgatsby_english.wav,,,,,,,,,0,0,0,0,0,146,146,219,418.919878331,8.98023426998e-06,419.590661901,0.670793512938,,,,x,1,0.650417997938,2018_Nov_27_1533,59.9835706664,spanish_cond1,001,1053,
images\volleyball.jpg,volley ball,z,sounds\greatgatsby_english.wav,,,,,,,,,0,0,0,0,0,147,147,2,420.725195144,9.62168269325e-06,421.474448341,0.749263139529,,,,z,1,0.733743687379,2018_Nov_27_1533,59.9835706664,spanish_cond1,001,1053,
images\dresser02.jpg,dresser,z,sounds\greatgatsby_english.wav,,,,,,,,,0,0,0,0,0,148,148,87,422.674882407,9.62168269325e-06,423.424961786,0.750089000561,,,,z,1,0.733755233392,2018_Nov_27_1533,59.9835706664,spanish_cond1,001,1053,
images\highlighter03b.jpg,coin,x,sounds\greatgatsby_english.wav,,,,,,,,,0,0,0,0,0,149,149,156,424.59725564,9.62168269325e-06,425.808899607,1.21165390938,,,,x,1,1.20053862175,2018_Nov_27_1533,59.9835706664,spanish_cond1,001,1053,
images\cat.jpg,black olive,x,sounds\greatgatsby_english.wav,,,,,,,,,0,0,0,0,0,150,150,133,427.045436468,9.30095848162e-06,428.026143713,0.98071718734,,,,x,1,0.967151257326,2018_Nov_27_1533,59.9835706664,spanish_cond1,001,1053,
images\flipflop01b.jpg,flip flop,z,sounds\greatgatsby_english.wav,,,,,,,,,0,0,0,0,0,151,151,27,429.230605736,9.62168269325e-06,429.893281115,0.662685642339,,,,z,1,0.650393943724,2018_Nov_27_1533,59.9835706664,spanish_cond1,001,1053,
images\ostrich.jpg,ostrich,z,sounds\greatgatsby_english.wav,,,,,,,,,0,0,0,0,0,152,152,76,431.07110904,5.93337026658e-05,432.24389809,1.17282625359,,,,x,0,1.15053506172,2018_Nov_27_1533,59.9835706664,spanish_cond1,001,1053,
images\candycane01a.jpg,lip,x,sounds\greatgatsby_english.wav,,,,,,,,,0,0,0,0,0,153,153,200,433.419929967,8.9802488219e-06,435.111557949,1.69163824529,,,,x,1,1.66754459168,2018_Nov_27_1533,59.9835706664,spanish_cond1,001,1053,
images\pictureframe04.jpg,picture frame,z,sounds\greatgatsby_english.wav,,,,,,,,,0,0,0,0,0,154,154,41,436.301139079,3.9448888856e-05,437.878679572,1.57755749115,,,,z,1,1.56727672406,2018_Nov_27_1533,59.9835706664,spanish_cond1,001,1053,
images\panda.jpg,panda,z,sounds\greatgatsby_english.wav,,,,,,,,,0,0,0,0,0,155,155,83,439.058453,9.62168269325e-06,439.812490418,0.754047681214,,,,z,1,0.733745932434,2018_Nov_27_1533,59.9835706664,spanish_cond1,001,1053,
images\baseball01a.jpg,baseball,z,sounds\greatgatsby_english.wav,,,,,,,,,0,0,0,0,0,156,156,74,441.015406878,9.62168269325e-06,442.013057584,0.997660648412,,,,z,1,0.983814086008,2018_Nov_27_1533,59.9835706664,spanish_cond1,001,1053,
images\bowl02b (1).jpg,bowl,z,sounds\greatgatsby_english.wav,,,,,,,,,0,0,0,0,0,157,157,24,443.203415825,9.62168269325e-06,444.213622185,1.01021694326,,,,z,1,1.00048493277,2018_Nov_27_1533,59.9835706664,spanish_cond1,001,1053,
images\lily.jpg,kiwi,x,sounds\greatgatsby_english.wav,,,,,,,,,0,0,0,0,0,158,158,190,445.391772436,9.30095848162e-06,447.097692143,1.70592932939,,,,x,1,1.68399285687,2018_Nov_27_1533,59.9835706664,spanish_cond1,001,1053,
images\drink.jpg,drink,z,sounds\greatgatsby_english.wav,,,,,,,,,0,0,0,0,0,159,159,117,448.275622699,9.30095848162e-06,450.048439395,1.77282695919,,,,z,1,1.7506723952,2018_Nov_27_1533,59.9835706664,spanish_cond1,001,1053,
images\apricot.jpg,apricot,z,sounds\greatgatsby_english.wav,,,,,,,,,0,0,0,0,0,160,160,32,451.251310633,9.62168269325e-06,452.549090142,1.29778945066,,,,z,1,1.28388804468,2018_Nov_27_1533,59.9835706664,spanish_cond1,001,1053,
images\tie01.jpg,bench,x,sounds\greatgatsby_english.wav,,,,,,,,,0,0,0,0,0,161,161,130,453.68512148,8.98023426998e-06,454.849670522,1.16455930453,,,,x,1,1.15051966703,2018_Nov_27_1533,59.9835706664,spanish_cond1,001,1053,
images\pepper05a.jpg,lighter,x,sounds\greatgatsby_english.wav,,,,,,,,,0,0,0,0,0,162,162,198,456.002876883,9.30095848162e-06,457.116920433,1.11405381342,,,,x,1,1.10050584389,2018_Nov_27_1533,59.9835706664,spanish_cond1,001,1053,
images\licenseplate.jpg,license plate,z,sounds\greatgatsby_english.wav,,,,,,,,,0,0,0,0,0,163,163,40,458.275389855,8.98023426998e-06,459.05074892,0.775368366099,,,,z,1,0.76709019173,2018_Nov_27_1533,59.9835706664,spanish_cond1,001,1053,
images\eyedrops.jpg,bicycle,x,sounds\greatgatsby_english.wav,,,,,,,,,0,0,0,0,0,164,164,131,460.223109484,9.62168269325e-06,461.101297067,0.878197846148,,,,x,1,0.867133232707,2018_Nov_27_1533,59.9835706664,spanish_cond1,001,1053,
images\dreamcatcher.jpg,dream catcher,z,sounds\greatgatsby_english.wav,,,,,,,,,0,0,0,0,0,165,165,48,462.275463941,8.98023426998e-06,464.118727385,1.84327338598,,,,x,0,1.83404555162,2018_Nov_27_1533,59.9835706664,spanish_cond1,001,1053,
images\hand01a.jpg,cupcake,x,sounds\greatgatsby_english.wav,,,,,,,,,0,0,0,0,0,166,166,163,465.268352877,9.30095848162e-06,466.38597858,1.11763564487,,,,x,1,1.10051995568,2018_Nov_27_1533,59.9835706664,spanish_cond1,001,1053,
images\basketball01.jpg,basket ball,z,sounds\greatgatsby_english.wav,,,,,,,,,0,0,0,0,0,167,167,33,467.562425793,1.18667521747e-05,468.21989039,0.657474860156,,,,z,1,0.633841122937,2018_Nov_27_1533,59.9835706664,spanish_cond1,001,1053,
images\ladder.jpg,ladder,z,sounds\greatgatsby_english.wav,,,,,,,,,0,0,0,0,0,168,168,113,469.378055766,9.30095848162e-06,469.986901042,0.608854897975,,,,z,1,0.600319183257,2018_Nov_27_1533,59.9835706664,spanish_cond1,001,1053,
images\table02.jpg,table,z,sounds\greatgatsby_english.wav,,,,,,,,,0,0,0,0,0,169,169,49,471.168752754,9.30097303353e-06,471.804024301,0.635281809446,,,,z,1,0.617056740346,2018_Nov_27_1533,59.9835706664,spanish_cond1,001,1053,
images\charcoalbarbecue.jpg,charcoal barbecue,z,sounds\greatgatsby_english.wav,,,,,,,,,0,0,0,0,0,170,170,77,472.992951477,9.30095848162e-06,473.737861767,0.744920233046,,,,z,1,0.733764855075,2018_Nov_27_1533,59.9835706664,spanish_cond1,001,1053,
images\scooter.jpg,pen,x,sounds\greatgatsby_english.wav,,,,,,,,,0,0,0,0,0,171,171,212,474.904682808,8.98023426998e-06,475.705022646,0.800349138764,,,,x,1,0.783767132205,2018_Nov_27_1533,59.9835706664,spanish_cond1,001,1053,
images\bus.jpg,microphone,x,sounds\greatgatsby_english.wav,,,,,,,,,0,0,0,0,0,172,172,203,476.883020875,9.62168269325e-06,477.655522621,0.772511688745,,,,x,1,0.750422872923,2018_Nov_27_1533,59.9835706664,spanish_cond1,001,1053,
images\donut.jpg,rhinoceros,x,sounds\greatgatsby_english.wav,,,,,,,,,0,0,0,0,0,173,173,216,478.861099476,9.30095848162e-06,479.656031287,0.794942074266,,,,x,1,0.783763924977,2018_Nov_27_1533,59.9835706664,spanish_cond1,001,1053,
images\lighter02b.jpg,stapler,x,sounds\greatgatsby_english.wav,,,,,,,,,0,0,0,0,0,174,174,227,480.826843081,9.62168269325e-06,481.606528055,0.779695557154,,,,x,1,0.767075759199,2018_Nov_27_1533,59.9835706664,spanish_cond1,001,1053,
images\cloud.jpg,ceiling fan,x,sounds\greatgatsby_english.wav,,,,,,,,,0,0,0,0,0,175,175,149,482.784985237,9.94240690488e-06,483.573721647,0.788746994032,,,,x,1,0.767111359426,2018_Nov_27_1533,59.9835706664,spanish_cond1,001,1053,
images\showerhead01.jpg,skateboard,x,sounds\greatgatsby_english.wav,,,,,,,,,0,0,0,0,0,176,176,223,484.759702985,8.98023426998e-06,485.490857157,0.731164114462,,,,x,1,0.717039806172,2018_Nov_27_1533,59.9835706664,spanish_cond1,001,1053,
images\binder03b.jpg,dj mixer,x,sounds\greatgatsby_english.wav,,,,,,,,,0,0,0,0,0,177,177,167,486.7218654,9.30095848162e-06,487.608140007,0.88630250952,,,,x,1,0.8671274597,2018_Nov_27_1533,59.9835706664,spanish_cond1,001,1053,
images\cheetah.jpg,cheetah,z,sounds\greatgatsby_english.wav,,,,,,,,,0,0,0,0,0,178,178,82,488.745596637,8.98023426998e-06,489.791957429,1.04637073366,,,,z,1,1.03382277761,2018_Nov_27_1533,59.9835706664,spanish_cond1,001,1053,
images\redfox.jpg,red fox,z,sounds\greatgatsby_english.wav,,,,,,,,,0,0,0,0,0,179,179,1,490.981821436,9.30095848162e-06,492.025873023,1.04406153002,,,,z,1,1.03383304072,2018_Nov_27_1533,59.9835706664,spanish_cond1,001,1053,
images\mailbox01.jpg,mail box,z,sounds\greatgatsby_english.wav,,,,,,,,,0,0,0,0,0,180,180,73,493.192521516,9.30095848162e-06,493.926362061,0.733850167322,,,,z,1,0.717074444226,2018_Nov_27_1533,59.9835706664,spanish_cond1,001,1053,
images\razor04a.jpg,razor,z,sounds\greatgatsby_english.wav,,,,,,,,,0,0,0,0,0,181,181,36,495.099186711,8.98023426998e-06,495.776846577,0.677669808239,,,,z,1,0.667082430227,2018_Nov_27_1533,59.9835706664,spanish_cond1,001,1053,
images\rubberglove02a.jpg,lady bug,x,sounds\greatgatsby_english.wav,,,,,,,,,0,0,0,0,0,182,182,192,496.950920763,9.94239235297e-06,498.144115155,1.19320465509,,,,x,1,1.1838777174,2018_Nov_27_1533,59.9835706664,spanish_cond1,001,1053,
images\fryingpan01.jpg,frying pan,z,sounds\greatgatsby_english.wav,,,,,,,,,0,0,0,0,0,183,183,45,499.320814135,9.30095848162e-06,500.227983828,0.907179634873,,,,z,1,0.883800230789,2018_Nov_27_1533,59.9835706664,spanish_cond1,001,1053,
images\lip.jpg,boxing glove,x,sounds\greatgatsby_english.wav,,,,,,,,,0,0,0,0,0,184,184,136,501.406475648,9.30097303353e-06,502.445223444,1.03875741753,,,,x,1,1.01715064795,2018_Nov_27_1533,59.9835706664,spanish_cond1,001,1053,
images\giraffe.jpg,lettuce,x,sounds\greatgatsby_english.wav,,,,,,,,,0,0,0,0,0,185,185,195,503.606377956,9.30095848162e-06,504.662442214,1.05607419983,,,,x,1,1.03381796676,2018_Nov_27_1533,59.9835706664,spanish_cond1,001,1053,
images\scissors04a.jpg,leek,x,sounds\greatgatsby_english.wav,,,,,,,,,0,0,0,0,0,186,186,194,505.836363415,9.30095848162e-06,506.679628141,0.843274668863,,,,x,1,0.833780313915,2018_Nov_27_1533,59.9835706664,spanish_cond1,001,1053,
images\hat05.jpg,hat,z,sounds\greatgatsby_english.wav,,,,,,,,,0,0,0,0,0,187,187,15,507.785484923,9.62168269325e-06,508.430076672,0.644602011962,,,,z,1,0.633734963718,2018_Nov_27_1533,59.9835706664,spanish_cond1,001,1053,
images\mattress.jpg,cat,x,sounds\greatgatsby_english.wav,,,,,,,,,0,0,0,0,0,188,188,147,509.612446351,9.30097303353e-06,510.497487137,0.885060350396,,,,x,1,0.867301932871,2018_Nov_27_1533,59.9835706664,spanish_cond1,001,1053,
images\bed.jpg,bed,z,sounds\greatgatsby_english.wav,,,,,,,,,0,0,0,0,0,189,189,103,511.686814255,9.62168269325e-06,512.347745223,0.660941231399,,,,z,1,0.650345835325,2018_Nov_27_1533,59.9835706664,spanish_cond1,001,1053,
images\weight01.jpg,weight,z,sounds\greatgatsby_english.wav,,,,,,,,,0,0,0,0,0,190,190,67,513.523098451,8.98023426998e-06,514.681528744,1.15844055629,,,,z,1,1.15037630398,2018_Nov_27_1533,59.9835706664,spanish_cond1,001,1053,
images\banana04a.jpg,banana,z,sounds\greatgatsby_english.wav,,,,,,,,,0,0,0,0,0,191,191,118,515.825256787,8.98023426998e-06,516.56548645,0.74023960554,,,,z,1,0.717073161344,2018_Nov_27_1533,59.9835706664,spanish_cond1,001,1053,
images\flower01.jpg,bus,x,sounds\greatgatsby_english.wav,,,,,,,,,0,0,0,0,0,192,192,140,517.75836044,9.62168269325e-06,518.382644025,0.624293528017,,,,x,1,0.600399043222,2018_Nov_27_1533,59.9835706664,spanish_cond1,001,1053,
images\straw.jpg,straw,z,sounds\greatgatsby_english.wav,,,,,,,,,0,0,0,0,0,193,193,109,519.535574565,9.62168269325e-06,520.316458079,0.780894418713,,,,z,1,0.767099813398,2018_Nov_27_1533,59.9835706664,spanish_cond1,001,1053,
images\battery03b.jpg,battery,z,sounds\greatgatsby_english.wav,,,,,,,,,0,0,0,0,0,194,194,34,521.494434819,9.62168269325e-06,522.150266617,0.655842381457,,,,z,1,0.633721814098,2018_Nov_27_1533,59.9835706664,spanish_cond1,001,1053,
images\bat.jpg,hand,x,sounds\greatgatsby_english.wav,,,,,,,,,0,0,0,0,0,195,195,185,523.324412965,8.98023426998e-06,524.117426213,0.793023190185,,,,x,1,0.783766811481,2018_Nov_27_1533,59.9835706664,spanish_cond1,001,1053,
images\ceilingfan02.jpg,paper clip,x,sounds\greatgatsby_english.wav,,,,,,,,,0,0,0,0,0,196,196,208,525.292870526,9.62168269325e-06,526.051261435,0.758401171537,,,,x,1,0.750427042309,2018_Nov_27_1533,59.9835706664,spanish_cond1,001,1053,
images\lantern03.jpg,lantern,z,sounds\greatgatsby_english.wav,,,,,,,,,0,0,0,0,0,197,197,5,527.233217381,8.9802488219e-06,528.201804835,0.968597716841,,,,z,1,0.950463412271,2018_Nov_27_1533,59.9835706664,spanish_cond1,001,1053,
images\nailpolish02b.jpg,nail polish,z,sounds\greatgatsby_english.wav,,,,,,,,,0,0,0,0,0,198,198,94,529.431969898,9.62168269325e-06,530.319015843,0.887055887215,,,,z,1,0.867116875859,2018_Nov_27_1533,59.9835706664,spanish_cond1,001,1053,
images\cola.jpg,comb,x,sounds\greatgatsby_english.wav,,,,,,,,,0,0,0,0,0,199,199,157,531.506008099,9.30095848162e-06,532.202829223,0.696831066991,,,,x,1,0.683733392172,2018_Nov_27_1533,59.9835706664,spanish_cond1,001,1053,
images\clothespin02a.jpg,clothes pin,z,sounds\greatgatsby_english.wav,,,,,,,,,0,0,0,0,0,200,200,79,533.385618408,9.62168269325e-06,534.203348153,0.817739687322,,,,z,1,0.800438620397,2018_Nov_27_1533,59.9835706664,spanish_cond1,001,1053,
images\parrot01.jpg,chameleon,x,sounds\greatgatsby_english.wav,,,,,,,,,0,0,0,0,0,201,201,150,535.392395279,9.62168269325e-06,536.103836549,0.711451854077,,,,x,1,0.700414181323,2018_Nov_27_1533,59.9835706664,spanish_cond1,001,1053,
images\grasshopper.jpg,cauliflower,x,sounds\greatgatsby_english.wav,,,,,,,,,0,0,0,0,0,202,202,148,537.270019994,9.62168269325e-06,538.037663753,0.767653380826,,,,x,1,0.750422872923,2018_Nov_27_1533,59.9835706664,spanish_cond1,001,1053,
images\broadsword.jpg,teapot,x,sounds\greatgatsby_english.wav,,,,,,,,,0,0,0,0,0,203,203,231,539.195879162,3.14308272209e-05,540.154869309,0.959011314451,,,,x,1,0.950476241182,2018_Nov_27_1533,59.9835706664,spanish_cond1,001,1053,
images\ruler02b.jpg,watermelon,x,sounds\greatgatsby_english.wav,,,,,,,,,0,0,0,0,0,204,204,238,541.379685037,9.30095848162e-06,541.988672715,0.60899729887,,,,x,1,0.60038268636,2018_Nov_27_1533,59.9835706664,spanish_cond1,001,1053,
images\button07.jpg,radish,x,sounds\greatgatsby_english.wav,,,,,,,,,0,0,0,0,0,205,205,215,543.173111376,8.98023426998e-06,544.022531092,0.849429658774,,,,x,1,0.833781276087,2018_Nov_27_1533,59.9835706664,spanish_cond1,001,1053,
images\screwdriver02b.jpg,cola,x,sounds\greatgatsby_english.wav,,,,,,,,,0,0,0,0,0,206,206,158,545.184471054,8.98023426998e-06,546.056395564,0.871934451963,,,,x,1,0.850451160673,2018_Nov_27_1533,59.9835706664,spanish_cond1,001,1053,
images\bullet (2).jpg,rubber glove,x,sounds\greatgatsby_english.wav,,,,,,,,,0,0,0,0,0,207,207,217,547.2383823,9.62168269325e-06,547.990208335,0.751836618714,,,,x,1,0.733740159427,2018_Nov_27_1533,59.9835706664,spanish_cond1,001,1053,
images\gorilla.jpg,gorilla,z,sounds\greatgatsby_english.wav,,,,,,,,,0,0,0,0,0,208,208,80,549.178428638,9.30095848162e-06,550.224115591,1.04569689521,,,,z,1,1.03382726772,2018_Nov_27_1533,59.9835706664,spanish_cond1,001,1053,
images\hammer02a.jpg,flower,x,sounds\greatgatsby_english.wav,,,,,,,,,0,0,0,0,0,209,209,176,551.389188693,9.30095848162e-06,552.341323071,0.952144320094,,,,x,1,0.933797697086,2018_Nov_27_1533,59.9835706664,spanish_cond1,001,1053,
images\radish01.jpg,raisin,x,sounds\greatgatsby_english.wav,,,,,,,,,0,0,0,0,0,210,210,214,553.520726065,9.94239235297e-06,554.441879589,0.921163787323,,,,x,1,0.900476209121,2018_Nov_27_1533,59.9835706664,spanish_cond1,001,1053,
images\bull.jpg,button,x,sounds\greatgatsby_english.wav,,,,,,,,,0,0,0,0,0,211,211,141,555.621871751,9.30095848162e-06,556.258988736,0.637127248032,,,,x,1,0.617039100587,2018_Nov_27_1533,59.9835706664,spanish_cond1,001,1053,
images\dolphin01.jpg,dolphin,z,sounds\greatgatsby_english.wav,,,,,,,,,0,0,0,0,0,212,212,99,557.434711757,1.02631311165e-05,558.17616177,0.741460596968,,,,z,1,0.717085028082,2018_Nov_27_1533,59.9835706664,spanish_cond1,001,1053,
images\djmixer01.jpg,light bulb,x,sounds\greatgatsby_english.wav,,,,,,,,,0,0,0,0,0,213,213,196,559.375401144,9.30095848162e-06,560.076662995,0.701271793921,,,,x,1,0.683756804938,2018_Nov_27_1533,59.9835706664,spanish_cond1,001,1053,
images\barrel01.jpg,barrel,z,sounds\greatgatsby_english.wav,,,,,,,,,0,0,0,0,0,214,214,9,561.238106799,9.94240690488e-06,561.877117331,0.639020153569,,,,z,1,0.617068607084,2018_Nov_27_1533,59.9835706664,spanish_cond1,001,1053,
images\fireextinguisher02.jpg,fire extinguisher,z,sounds\greatgatsby_english.wav,,,,,,,,,0,0,0,0,0,215,215,175,563.056066182,9.62168269325e-06,563.727581962,0.671525402198,,,,z,1,0.650398433849,2018_Nov_27_1533,59.9835706664,spanish_cond1,001,1053,
,,,sounds\greatgatsby_english.wav,,,,,,,,,0,0,0,0,,,,,,,,,,,,,,,2018_Nov_27_1533,59.9835706664,spanish_cond1,001,1053,
images\screwdriver02b.jpg,cola,x,sounds\animalfarm_spanish.wav,,,,,,,,,0,1,1,1,0,0,0,158,584.845799077,9.94239235297e-06,586.96688185,2.12109303588,,,574.730578475,x,1,2.100786797,2018_Nov_27_1533,59.9835706664,spanish_cond1,001,1053,
images\donut.jpg,rhinoceros,x,sounds\animalfarm_spanish.wav,,,,,,,,,0,1,1,1,0,1,1,216,588.09158013,9.30095848162e-06,588.900710978,0.809141110949,,,,x,1,0.800442148349,2018_Nov_27_1533,59.9835706664,spanish_cond1,001,1053,
images\mattress.jpg,cat,x,sounds\animalfarm_spanish.wav,,,,,,,,,0,1,1,1,0,2,2,147,590.003262071,9.62168269325e-06,590.667817206,0.664564756808,,,,x,1,0.650400358179,2018_Nov_27_1533,59.9835706664,spanish_cond1,001,1053,
images\headphones02b.jpg,headphones,z,sounds\animalfarm_spanish.wav,,,,,,,,,0,1,1,1,0,3,3,101,591.774350392,9.62168269325e-06,592.418261888,0.643921438328,,,,z,1,0.633724379863,2018_Nov_27_1533,59.9835706664,spanish_cond1,001,1053,
images\hairpin.jpg,hair pin,z,sounds\animalfarm_spanish.wav,,,,,,,,,0,1,1,1,0,4,4,28,593.508018068,9.30095848162e-06,594.168719399,0.660711273216,,,,z,1,0.650406772649,2018_Nov_27_1533,59.9835706664,spanish_cond1,001,1053,
images\safe.jpg,safe,z,sounds\animalfarm_spanish.wav,,,,,,,,,0,1,1,1,0,5,5,78,595.277822216,9.62168269325e-06,595.852489354,0.574678363206,,,,z,1,0.550377522726,2018_Nov_27_1533,59.9835706664,spanish_cond1,001,1053,
images\atm.jpg,atm,z,sounds\animalfarm_spanish.wav,,,,,,,,,0,1,1,1,0,6,6,96,596.988184575,9.30095848162e-06,597.819652478,0.831478166161,,,,z,1,0.817097921143,2018_Nov_27_1533,59.9835706664,spanish_cond1,001,1053,
images\parkingmeter.jpg,ear,x,sounds\animalfarm_spanish.wav,,,,,,,,,0,1,1,1,0,7,7,171,598.920634595,9.30095848162e-06,599.753480323,0.832855670276,,,,x,1,0.817111391501,2018_Nov_27_1533,59.9835706664,spanish_cond1,001,1053,
images\mushroom01.jpg,shower head,x,sounds\animalfarm_spanish.wav,,,,,,,,,0,1,1,1,0,8,8,222,600.868959107,9.30095848162e-06,601.620636327,0.751686841191,,,,x,1,0.733765175799,2018_Nov_27_1533,59.9835706664,spanish_cond1,001,1053,
images\highlighter03b.jpg,coin,x,sounds\animalfarm_spanish.wav,,,,,,,,,0,1,1,1,0,9,9,156,602.722029931,9.94239235297e-06,603.371137456,0.649118108704,,,,x,1,0.633795901042,2018_Nov_27_1533,59.9835706664,spanish_cond1,001,1053,
images\djmixer01.jpg,light bulb,x,sounds\animalfarm_spanish.wav,,,,,,,,,0,1,1,1,0,10,10,196,604.491208349,9.62168269325e-06,605.1381975,0.646999093631,,,,x,1,0.633733360111,2018_Nov_27_1533,59.9835706664,spanish_cond1,001,1053,
images\bed.jpg,bed,z,sounds\animalfarm_spanish.wav,,,,,,,,,0,1,1,1,0,11,11,103,606.256643611,9.62168269325e-06,607.005336826,0.748703157646,,,,z,1,0.733740800875,2018_Nov_27_1533,59.9835706664,spanish_cond1,001,1053,
images\magnifyingglass01b.jpg,magnifying glass,z,sounds\animalfarm_spanish.wav,,,,,,,,,0,1,1,1,0,12,12,64,608.111050887,9.30095848162e-06,609.55598568,1.44494473626,,,,z,1,1.43391123293,2018_Nov_27_1533,59.9835706664,spanish_cond1,001,1053,
images\clothespin02a.jpg,clothes pin,z,sounds\animalfarm_spanish.wav,,,,,,,,,0,1,1,1,0,13,13,79,610.660160592,9.30095848162e-06,611.406459612,0.746309283189,,,,z,1,0.733749139661,2018_Nov_27_1533,59.9835706664,spanish_cond1,001,1053,
images\lollipop03b.jpg,lollipop,z,sounds\animalfarm_spanish.wav,,,,,,,,,0,1,1,1,0,14,14,42,612.49857086,9.62168269325e-06,613.306948009,0.808387091805,,,,z,1,0.800437658225,2018_Nov_27_1533,59.9835706664,spanish_cond1,001,1053,
images\nailclipper03a.jpg,aquarium,x,sounds\animalfarm_spanish.wav,,,,,,,,,0,1,1,1,0,15,15,123,614.405654919,9.62168269325e-06,615.340806707,0.935161730857,,,,x,1,0.917135830561,2018_Nov_27_1533,59.9835706664,spanish_cond1,001,1053,
images\backpack01b.jpg,swallow,x,sounds\animalfarm_spanish.wav,,,,,,,,,0,1,1,1,0,16,16,228,616.471254263,9.62168269325e-06,617.291436254,0.820231702921,,,,x,1,0.800466843997,2018_Nov_27_1533,59.9835706664,spanish_cond1,001,1053,
images\blackolive.jpg,tank,x,sounds\animalfarm_spanish.wav,,,,,,,,,0,1,1,1,0,17,17,229,618.405615791,9.30095848162e-06,619.291831064,0.886224894639,,,,x,1,0.867136760658,2018_Nov_27_1533,59.9835706664,spanish_cond1,001,1053,
images\charcoalbarbecue.jpg,charcoal barbecue,z,sounds\animalfarm_spanish.wav,,,,,,,,,0,1,1,1,0,18,18,77,620.408026664,8.98023426998e-06,621.159167314,0.751149951349,,,,z,1,0.733949270638,2018_Nov_27_1533,59.9835706664,spanish_cond1,001,1053,
images\razor04a.jpg,razor,z,sounds\animalfarm_spanish.wav,,,,,,,,,0,1,1,1,0,19,19,36,622.257795647,8.98023426998e-06,622.959430178,0.701644473724,,,,z,1,0.683742693131,2018_Nov_27_1533,59.9835706664,spanish_cond1,001,1053,
images\chameleon.jpg,50 dollar bill,x,sounds\animalfarm_spanish.wav,,,,,,,,,0,1,1,1,0,20,20,120,624.068729919,9.30095848162e-06,624.693204334,0.624484037311,,,,x,1,0.600387497194,2018_Nov_27_1533,59.9835706664,spanish_cond1,001,1053,
images\mailbox01.jpg,mail box,z,sounds\animalfarm_spanish.wav,,,,,,,,,0,1,1,1,0,21,21,73,625.812090477,9.30095848162e-06,626.326967842,0.514887628378,,,,z,1,0.500373321265,2018_Nov_27_1533,59.9835706664,spanish_cond1,001,1053,
images\snowman.jpg,globe,x,sounds\animalfarm_spanish.wav,,,,,,,,,0,1,1,1,0,22,22,180,627.437260861,9.94240690488e-06,628.094076315,0.656826038059,,,,x,1,0.63372309698,2018_Nov_27_1533,59.9835706664,spanish_cond1,001,1053,
images\gorilla.jpg,gorilla,z,sounds\animalfarm_spanish.wav,,,,,,,,,0,1,1,1,0,23,23,80,629.204781142,9.62166814134e-06,629.811184435,0.606413556554,,,,z,1,0.583719216229,2018_Nov_27_1533,59.9835706664,spanish_cond1,001,1053,
images\corkscrew02a.jpg,masquerade mask,x,sounds\animalfarm_spanish.wav,,,,,,,,,0,1,1,1,0,24,24,201,630.979119026,9.30095848162e-06,631.728344,0.749235236653,,,,x,1,0.733752667613,2018_Nov_27_1533,59.9835706664,spanish_cond1,001,1053,
images\bull.jpg,button,x,sounds\animalfarm_spanish.wav,,,,,,,,,0,1,1,1,0,25,25,141,632.833770051,9.62166814134e-06,633.512127168,0.678366738735,,,,x,1,0.667070884214,2018_Nov_27_1533,59.9835706664,spanish_cond1,001,1053,
images\microphone01.jpg,diaper,x,sounds\animalfarm_spanish.wav,,,,,,,,,0,1,1,1,0,26,26,164,634.610841134,8.65951005835e-06,635.32926101,0.718428856329,,,,x,1,0.700390127124,2018_Nov_27_1533,59.9835706664,spanish_cond1,001,1053,
images\graduationcap.jpg,graduation cap,z,sounds\animalfarm_spanish.wav,,,,,,,,,0,1,1,1,0,27,27,35,636.431543658,8.98023426998e-06,637.013026795,0.581493079764,,,,z,1,0.566999940347,2018_Nov_27_1533,59.9835706664,spanish_cond1,001,1053,
images\candle08a.jpg,screw driver,x,sounds\animalfarm_spanish.wav,,,,,,,,,0,1,1,1,0,28,28,221,638.126403563,9.30095848162e-06,639.330290209,1.20389626801,,,,x,1,1.18386969934,2018_Nov_27_1533,59.9835706664,spanish_cond1,001,1053,
images\weight01.jpg,weight,z,sounds\animalfarm_spanish.wav,,,,,,,,,0,1,1,1,0,29,29,67,640.434585713,9.30095848162e-06,641.197428253,0.762852482294,,,,z,1,0.750421269302,2018_Nov_27_1533,59.9835706664,spanish_cond1,001,1053,
images\handbag02a.jpg,candle,x,sounds\animalfarm_spanish.wav,,,,,,,,,0,1,1,1,0,30,30,144,642.378478479,9.30095848162e-06,643.081259273,0.702790416035,,,,x,1,0.68374525891,2018_Nov_27_1533,59.9835706664,spanish_cond1,001,1053,
images\pictureframe04.jpg,picture frame,z,sounds\animalfarm_spanish.wav,,,,,,,,,0,1,1,1,0,31,31,41,644.202427679,9.94240690488e-06,644.815029901,0.612612485478,,,,z,1,0.60039134587,2018_Nov_27_1533,59.9835706664,spanish_cond1,001,1053,
images\shotglass.jpg,shot glass,z,sounds\animalfarm_spanish.wav,,,,,,,,,0,1,1,1,0,32,32,86,645.923218658,8.98023426998e-06,646.515462043,0.592253006616,,,,z,1,0.583717933347,2018_Nov_27_1533,59.9835706664,spanish_cond1,001,1053,
images\squirrel.jpg,binder,x,sounds\animalfarm_spanish.wav,,,,,,,,,0,1,1,1,0,33,33,132,647.617939049,9.62168269325e-06,648.199245468,0.581317323711,,,,x,1,0.567052859595,2018_Nov_27_1533,59.9835706664,spanish_cond1,001,1053,
images\masquerademask02b.jpg,mirror,x,sounds\animalfarm_spanish.wav,,,,,,,,,0,1,1,1,0,34,34,204,649.304366512,9.94240690488e-06,650.083040888,0.77868463911,,,,x,1,0.767097889067,2018_Nov_27_1533,59.9835706664,spanish_cond1,001,1053,
images\hat05.jpg,hat,z,sounds\animalfarm_spanish.wav,,,,,,,,,0,1,1,1,0,35,35,15,651.186640102,9.62168269325e-06,651.783480727,0.59685024622,,,,z,1,0.583700614312,2018_Nov_27_1533,59.9835706664,spanish_cond1,001,1053,
images\lightbulb03b.jpg,treadmill,x,sounds\animalfarm_spanish.wav,,,,,,,,,0,1,1,1,0,36,36,234,652.885610069,9.30095848162e-06,653.483902285,0.598302478742,,,,x,1,0.583693558408,2018_Nov_27_1533,59.9835706664,spanish_cond1,001,1053,
images\eyedrops.jpg,bicycle,x,sounds\animalfarm_spanish.wav,,,,,,,,,0,1,1,1,0,37,37,131,654.584274708,9.30095848162e-06,655.117660341,0.533395574923,,,,x,1,0.517025886817,2018_Nov_27_1533,59.9835706664,spanish_cond1,001,1053,
images\hand01a.jpg,cupcake,x,sounds\animalfarm_spanish.wav,,,,,,,,,0,1,1,1,0,38,38,163,656.228390184,8.98023426998e-06,656.734749795,0.506369553405,,,,x,1,0.483694135706,2018_Nov_27_1533,59.9835706664,spanish_cond1,001,1053,
images\bracelet02a.jpg,chess knight,x,sounds\animalfarm_spanish.wav,,,,,,,,,0,1,1,1,0,39,39,152,657.841431796,9.30095848162e-06,658.551878184,0.710456009998,,,,x,1,0.700405842537,2018_Nov_27_1533,59.9835706664,spanish_cond1,001,1053,
images\orange.jpg,bat,x,sounds\animalfarm_spanish.wav,,,,,,,,,0,1,1,1,0,40,40,128,659.676429573,9.30095848162e-06,660.235653271,0.559233639447,,,,x,1,0.550386182236,2018_Nov_27_1533,59.9835706664,spanish_cond1,001,1053,
images\cat.jpg,black olive,x,sounds\animalfarm_spanish.wav,,,,,,,,,0,1,1,1,0,41,41,133,661.364622294,8.9802488219e-06,661.919419376,0.554807024353,,,,x,1,0.533715014768,2018_Nov_27_1533,59.9835706664,spanish_cond1,001,1053,
images\lemon02.jpg,lemon,z,sounds\animalfarm_spanish.wav,,,,,,,,,0,1,1,1,0,42,42,14,663.029848061,8.9802488219e-06,663.686520793,0.656682675006,,,,z,1,0.633724059153,2018_Nov_27_1533,59.9835706664,spanish_cond1,001,1053,
images\desktopcomputer.jpg,desktop computer,z,sounds\animalfarm_spanish.wav,,,,,,,,,0,1,1,1,0,43,43,16,664.820508166,9.30095848162e-06,665.48697545,0.666476905724,,,,z,1,0.65038496349,2018_Nov_27_1533,59.9835706664,spanish_cond1,001,1053,
images\puzzle.jpg,puzzle,z,sounds\animalfarm_spanish.wav,,,,,,,,,0,1,1,1,0,44,44,57,666.714166772,9.62168269325e-06,667.587528119,0.87337161052,,,,z,1,0.85044859488,2018_Nov_27_1533,59.9835706664,spanish_cond1,001,1053,
images\fork01.jpg,cooking pot,x,sounds\animalfarm_spanish.wav,,,,,,,,,0,1,1,1,0,45,45,160,668.710974298,9.30095848162e-06,669.871456254,1.16049189886,,,,x,1,1.1505376275,2018_Nov_27_1533,59.9835706664,spanish_cond1,001,1053,
images\8ball.jpg,nail clipper,x,sounds\animalfarm_spanish.wav,,,,,,,,,0,1,1,1,0,46,46,206,670.98682888,9.30095848162e-06,671.605225279,0.61840666231,,,,x,1,0.600385572863,2018_Nov_27_1533,59.9835706664,spanish_cond1,001,1053,
images\bowl02b (1).jpg,bowl,z,sounds\animalfarm_spanish.wav,,,,,,,,,0,1,1,1,0,47,47,24,672.72098662,9.62168269325e-06,673.389017427,0.668040749748,,,,z,1,0.650387529269,2018_Nov_27_1533,59.9835706664,spanish_cond1,001,1053,
images\tulip02.jpg,sport shorts,x,sounds\animalfarm_spanish.wav,,,,,,,,,0,1,1,1,0,48,48,225,674.482132857,8.98023426998e-06,675.18947497,0.707352376136,,,,x,1,0.683740127351,2018_Nov_27_1533,59.9835706664,spanish_cond1,001,1053,
images\dresser02.jpg,dresser,z,sounds\animalfarm_spanish.wav,,,,,,,,,0,1,1,1,0,49,49,87,676.310055171,8.98023426998e-06,676.889906471,0.579860921804,,,,z,1,0.567040672133,2018_Nov_27_1533,59.9835706664,spanish_cond1,001,1053,
images\arrow02.jpg,hammer,x,sounds\animalfarm_spanish.wav,,,,,,,,,0,1,1,1,0,50,50,184,677.986451068,9.62168269325e-06,679.157152855,1.17071237008,,,,x,1,1.15052223283,2018_Nov_27_1533,59.9835706664,spanish_cond1,001,1053,
images\apple06.jpg,apple,z,sounds\animalfarm_spanish.wav,,,,,,,,,0,1,1,1,0,51,51,13,680.360618392,9.62168269325e-06,681.124338108,0.763729658967,,,,z,1,0.750432173867,2018_Nov_27_1533,59.9835706664,spanish_cond1,001,1053,
images\swan.jpg,swan,z,sounds\animalfarm_spanish.wav,,,,,,,,,0,1,1,1,0,52,52,54,682.214824254,9.62168269325e-06,682.941470026,0.726656356506,,,,z,1,0.717083103751,2018_Nov_27_1533,59.9835706664,spanish_cond1,001,1053,
images\parrot01.jpg,chameleon,x,sounds\animalfarm_spanish.wav,,,,,,,,,0,1,1,1,0,53,53,150,684.052845484,9.62168269325e-06,684.675241937,0.622406716182,,,,x,1,0.600353821326,2018_Nov_27_1533,59.9835706664,spanish_cond1,001,1053,
images\cake.jpg,cake,z,sounds\animalfarm_spanish.wav,,,,,,,,,0,1,1,1,0,54,54,23,685.78733389,8.98023426998e-06,686.392356472,0.605031562329,,,,z,1,0.583724989236,2018_Nov_27_1533,59.9835706664,spanish_cond1,001,1053,
images\panda.jpg,panda,z,sounds\animalfarm_spanish.wav,,,,,,,,,0,1,1,1,0,55,55,83,687.500256899,9.62168269325e-06,688.059443713,0.559197077062,,,,z,1,0.550380729954,2018_Nov_27_1533,59.9835706664,spanish_cond1,001,1053,
images\saltshaker03c.jpg,salt shaker,z,sounds\animalfarm_spanish.wav,,,,,,,,,0,1,1,1,0,56,56,63,689.16942531,8.98023426998e-06,689.993271237,0.823855869763,,,,z,1,0.800436696067,2018_Nov_27_1533,59.9835706664,spanish_cond1,001,1053,
images\flipflop01b.jpg,flip flop,z,sounds\animalfarm_spanish.wav,,,,,,,,,0,1,1,1,0,57,57,27,691.109483835,9.62166814134e-06,691.76039286,0.650919608277,,,,z,1,0.633728549263,2018_Nov_27_1533,59.9835706664,spanish_cond1,001,1053,
images\cheetah.jpg,cheetah,z,sounds\animalfarm_spanish.wav,,,,,,,,,0,1,1,1,0,58,58,82,692.86096798,9.94240690488e-06,693.477519582,0.616561544448,,,,z,1,0.600396798167,2018_Nov_27_1533,59.9835706664,spanish_cond1,001,1053,
images\cockroach02.jpg,belt,x,sounds\animalfarm_spanish.wav,,,,,,,,,0,1,1,1,0,59,59,129,694.574704983,8.9802488219e-06,696.361565807,1.78687044534,,,,x,1,1.76735126002,2018_Nov_27_1533,59.9835706664,spanish_cond1,001,1053,
images\cookingpot.jpg,grasshopper,x,sounds\animalfarm_spanish.wav,,,,,,,,,0,1,1,1,0,60,60,183,697.548952552,9.62168269325e-06,698.628824699,1.07988273095,,,,x,1,1.06716799905,2018_Nov_27_1533,59.9835706664,spanish_cond1,001,1053,
images\acousticguitar02.jpg,acoustic guitar,z,sounds\animalfarm_spanish.wav,,,,,,,,,0,1,1,1,0,61,61,97,699.812731923,9.94240690488e-06,700.529302191,0.71658053124,,,,z,1,0.700405521813,2018_Nov_27_1533,59.9835706664,spanish_cond1,001,1053,
images\plant01.jpg,plant,z,sounds\animalfarm_spanish.wav,,,,,,,,,0,1,1,1,0,62,62,47,701.639016305,9.30095848162e-06,702.229740747,0.590734063779,,,,z,1,0.567048690209,2018_Nov_27_1533,59.9835706664,spanish_cond1,001,1053,
images\lantern03.jpg,lantern,z,sounds\animalfarm_spanish.wav,,,,,,,,,0,1,1,1,0,63,63,5,703.334755311,9.62168269325e-06,704.030203101,0.695458052985,,,,z,1,0.683723770489,2018_Nov_27_1533,59.9835706664,spanish_cond1,001,1053,
images\beermug01b.jpg,beer mug,z,sounds\animalfarm_spanish.wav,,,,,,,,,0,1,1,1,0,64,64,111,705.14551094,9.62168269325e-06,705.864000092,0.718499415321,,,,z,1,0.700407766868,2018_Nov_27_1533,59.9835706664,spanish_cond1,001,1053,
images\hairdryer03a.jpg,hairdryer,z,sounds\animalfarm_spanish.wav,,,,,,,,,0,1,1,1,0,65,65,119,706.961459391,8.9802488219e-06,707.597777456,0.636327365544,,,,z,1,0.617047118663,2018_Nov_27_1533,59.9835706664,spanish_cond1,001,1053,
images\egg01b (1).jpg,egg,z,sounds\animalfarm_spanish.wav,,,,,,,,,0,1,1,1,0,66,66,19,708.708693639,8.98023426998e-06,709.298226596,0.589542578833,,,,z,1,0.567053180319,2018_Nov_27_1533,59.9835706664,spanish_cond1,001,1053,
images\toucan.jpg,toucan,z,sounds\animalfarm_spanish.wav,,,,,,,,,0,1,1,1,0,67,67,81,710.397621456,9.30095848162e-06,710.998487151,0.600875957927,,,,z,1,0.583553723307,2018_Nov_27_1533,59.9835706664,spanish_cond1,001,1053,
images\key03b.jpg,cigar,x,sounds\animalfarm_spanish.wav,,,,,,,,,0,1,1,1,0,68,68,153,712.09833423,9.62168269325e-06,712.815966411,0.717648217207,,,,x,1,0.70055562006,2018_Nov_27_1533,59.9835706664,spanish_cond1,001,1053,
images\scissors04a.jpg,leek,x,sounds\animalfarm_spanish.wav,,,,,,,,,0,1,1,1,0,69,69,194,713.908385552,9.62168269325e-06,714.616255575,0.707880606467,,,,x,1,0.68375359771,2018_Nov_27_1533,59.9835706664,spanish_cond1,001,1053,
images\croissant02b.jpg,croissant,z,sounds\animalfarm_spanish.wav,,,,,,,,,0,1,1,1,0,70,70,39,715.725476418,9.30095848162e-06,716.400034574,0.674568098737,,,,z,1,0.650395226621,2018_Nov_27_1533,59.9835706664,spanish_cond1,001,1053,
images\dolphin01.jpg,dolphin,z,sounds\animalfarm_spanish.wav,,,,,,,,,0,1,1,1,0,71,71,99,717.498191124,9.30095848162e-06,718.450546159,0.952364656609,,,,z,1,0.933792886237,2018_Nov_27_1533,59.9835706664,spanish_cond1,001,1053,
images\notebook02b.jpg,notebook,z,sounds\animalfarm_spanish.wav,,,,,,,,,0,1,1,1,0,72,72,7,719.555755722,9.30095848162e-06,720.100985324,0.545239544605,,,,z,1,0.533697054285,2018_Nov_27_1533,59.9835706664,spanish_cond1,001,1053,
images\camera01a.jpg,bull,x,sounds\animalfarm_spanish.wav,,,,,,,,,0,1,1,1,0,73,73,138,721.293062318,9.62168269325e-06,722.051482413,0.758430357295,,,,x,1,0.73375170544,2018_Nov_27_1533,59.9835706664,spanish_cond1,001,1053,
images\licenseplate.jpg,license plate,z,sounds\animalfarm_spanish.wav,,,,,,,,,0,1,1,1,0,74,74,40,723.167049075,9.62168269325e-06,723.935313753,0.768274941482,,,,z,1,0.75043730544,2018_Nov_27_1533,59.9835706664,spanish_cond1,001,1053,
images\ant.jpg,ant,z,sounds\animalfarm_spanish.wav,,,,,,,,,0,1,1,1,0,75,75,98,725.028643426,9.30095848162e-06,725.60240773,0.573774887278,,,,z,1,0.55038906874,2018_Nov_27_1533,59.9835706664,spanish_cond1,001,1053,
images\eraser.jpg,eraser,z,sounds\animalfarm_spanish.wav,,,,,,,,,0,1,1,1,0,76,76,110,726.707728263,9.30095848162e-06,727.569570854,0.861853174414,,,,z,1,0.850454688611,2018_Nov_27_1533,59.9835706664,spanish_cond1,001,1053,
images\hanger02a.jpg,hanger,z,sounds\animalfarm_spanish.wav,,,,,,,,,0,1,1,1,0,77,77,88,728.73275073,9.30095848162e-06,729.45336916,0.720628372801,,,,z,1,0.700394937972,2018_Nov_27_1533,59.9835706664,spanish_cond1,001,1053,
images\birthdaycandle.jpg,birthday candle,z,sounds\animalfarm_spanish.wav,,,,,,,,,0,1,1,1,0,78,78,55,730.549212978,1.18667376228e-05,731.103803836,0.554602723962,,,,z,1,0.533559784963,2018_Nov_27_1533,59.9835706664,spanish_cond1,001,1053,
images\marker01a.jpg,marker,z,sounds\animalfarm_spanish.wav,,,,,,,,,0,1,1,1,0,79,79,95,732.200624896,9.62168269325e-06,732.837587293,0.636972659675,,,,z,1,0.617061871904,2018_Nov_27_1533,59.9835706664,spanish_cond1,001,1053,
images\cola.jpg,comb,x,sounds\animalfarm_spanish.wav,,,,,,,,,0,1,1,1,0,80,80,157,733.956583123,9.30095848162e-06,734.638068569,0.681495709694,,,,x,1,0.667089486131,2018_Nov_27_1533,59.9835706664,spanish_cond1,001,1053,
images\flamingo.jpg,flamingo,z,sounds\animalfarm_spanish.wav,,,,,,,,,0,1,1,1,0,81,81,52,735.735509907,8.98023426998e-06,736.338482109,0.602981823366,,,,z,1,0.583696444926,2018_Nov_27_1533,59.9835706664,spanish_cond1,001,1053,
images\bowlingball.jpg,bowling ball,z,sounds\animalfarm_spanish.wav,,,,,,,,,0,1,1,1,0,82,82,20,737.468710932,9.62168269325e-06,738.288976311,0.820275962658,,,,z,1,0.800432847405,2018_Nov_27_1533,59.9835706664,spanish_cond1,001,1053,
images\teapot.jpg,light switch,x,sounds\animalfarm_spanish.wav,,,,,,,,,0,1,1,1,0,83,83,197,739.403560279,9.30095848162e-06,740.289497164,0.885947148752,,,,x,1,0.867126497527,2018_Nov_27_1533,59.9835706664,spanish_cond1,001,1053,
images\bat.jpg,hand,x,sounds\animalfarm_spanish.wav,,,,,,,,,0,1,1,1,0,84,84,185,741.385484346,9.30095848162e-06,742.14005256,0.754577835876,,,,x,1,0.733842469985,2018_Nov_27_1533,59.9835706664,spanish_cond1,001,1053,
images\gamecontroller01.jpg,game controller,z,sounds\animalfarm_spanish.wav,,,,,,,,,0,1,1,1,0,85,85,112,743.257962102,8.98023426998e-06,743.890410006,0.632457525091,,,,z,1,0.617053212394,2018_Nov_27_1533,59.9835706664,spanish_cond1,001,1053,
images\table02.jpg,table,z,sounds\animalfarm_spanish.wav,,,,,,,,,0,1,1,1,0,86,86,49,745.003436223,9.30095848162e-06,745.94094789,0.937521287982,,,,z,1,0.917132944058,2018_Nov_27_1533,59.9835706664,spanish_cond1,001,1053,
images\broom02.jpg,broom,z,sounds\animalfarm_spanish.wav,,,,,,,,,0,1,1,1,0,87,87,116,747.032732,9.30095848162e-06,747.641363033,0.608640655206,,,,z,1,0.600371461056,2018_Nov_27_1533,59.9835706664,spanish_cond1,001,1053,
images\lipstick04.jpg,lipstick,z,sounds\animalfarm_spanish.wav,,,,,,,,,0,1,1,1,0,88,88,56,748.739260118,8.9802488219e-06,749.291798671,0.55254785344,,,,z,1,0.53369929934,2018_Nov_27_1533,59.9835706664,spanish_cond1,001,1053,
images\dreamcatcher.jpg,dream catcher,z,sounds\animalfarm_spanish.wav,,,,,,,,,0,1,1,1,0,89,89,48,750.388833012,9.30097303353e-06,751.075600441,0.686777050883,,,,z,1,0.667082109518,2018_Nov_27_1533,59.9835706664,spanish_cond1,001,1053,
images\hammer02a.jpg,flower,x,sounds\animalfarm_spanish.wav,,,,,,,,,0,1,1,1,0,90,90,176,752.16898143,9.30095848162e-06,753.209466901,1.04049573471,,,,x,1,1.01715353447,2018_Nov_27_1533,59.9835706664,spanish_cond1,001,1053,
images\belt02a.jpg,snowman,x,sounds\animalfarm_spanish.wav,,,,,,,,,0,1,1,1,0,91,91,224,754.310918877,8.65951005835e-06,755.059958473,0.749049217469,,,,x,1,0.733768383026,2018_Nov_27_1533,59.9835706664,spanish_cond1,001,1053,
images\leek.jpg,donut,x,sounds\animalfarm_spanish.wav,,,,,,,,,0,1,1,1,0,92,92,169,756.160187854,9.62168269325e-06,756.693692795,0.533514563052,,,,x,1,0.517026207526,2018_Nov_27_1533,59.9835706664,spanish_cond1,001,1053,
images\lily.jpg,kiwi,x,sounds\animalfarm_spanish.wav,,,,,,,,,0,1,1,1,0,93,93,190,757.791575768,9.30095848162e-06,758.377453449,0.585887622598,,,,x,1,0.567038747802,2018_Nov_27_1533,59.9835706664,spanish_cond1,001,1053,
images\floorlamp.jpg,floor lamp,z,sounds\animalfarm_spanish.wav,,,,,,,,,0,1,1,1,0,94,94,26,759.46844826,9.62168269325e-06,760.044556084,0.576117446093,,,,z,1,0.56705061454,2018_Nov_27_1533,59.9835706664,spanish_cond1,001,1053,
images\sunglasses03a.jpg,sun glasses,z,sounds\animalfarm_spanish.wav,,,,,,,,,0,1,1,1,0,95,95,17,761.151597616,9.30095848162e-06,761.694973762,0.543385767218,,,,z,1,0.533680055974,2018_Nov_27_1533,59.9835706664,spanish_cond1,001,1053,
images\computermouse02a.jpg,world map,x,sounds\animalfarm_spanish.wav,,,,,,,,,0,1,1,1,0,96,96,239,762.79560565,9.94240690488e-06,763.495431305,0.699836238971,,,,x,1,0.683726656993,2018_Nov_27_1533,59.9835706664,spanish_cond1,001,1053,
images\blueberry02.jpg,blueberry,z,sounds\animalfarm_spanish.wav,,,,,,,,,0,1,1,1,0,97,97,46,764.606396879,9.62168269325e-06,765.229217648,0.622830390916,,,,z,1,0.600385572863,2018_Nov_27_1533,59.9835706664,spanish_cond1,001,1053,
images\rhinoceros01.jpg,envelope,x,sounds\animalfarm_spanish.wav,,,,,,,,,0,1,1,1,0,98,98,173,766.34015115,8.98023426998e-06,766.929655242,0.589514034509,,,,x,1,0.567012769257,2018_Nov_27_1533,59.9835706664,spanish_cond1,001,1053,
images\kiwi03.jpg,backpack,x,sounds\animalfarm_spanish.wav,,,,,,,,,0,1,1,1,0,99,99,125,768.056617504,9.62168269325e-06,768.580076768,0.523468885716,,,,x,1,0.500360492355,2018_Nov_27_1533,59.9835706664,spanish_cond1,001,1053,
images\baseball01a.jpg,baseball,z,sounds\animalfarm_spanish.wav,,,,,,,,,0,1,1,1,0,100,100,74,769.710255879,8.98023426998e-06,770.397205479,0.686959862825,,,,z,1,0.667043943497,2018_Nov_27_1533,59.9835706664,spanish_cond1,001,1053,
images\cigar.jpg,crocodile,x,sounds\animalfarm_spanish.wav,,,,,,,,,0,1,1,1,0,101,101,162,771.49387612,8.9802488219e-06,772.131000161,0.637134303935,,,,x,1,0.617076945869,2018_Nov_27_1533,59.9835706664,spanish_cond1,001,1053,
images\wallet01.jpg,lamp,x,sounds\animalfarm_spanish.wav,,,,,,,,,0,1,1,1,0,102,102,193,773.234460182,8.65951005835e-06,773.7814188,0.546967919377,,,,x,1,0.533712448974,2018_Nov_27_1533,59.9835706664,spanish_cond1,001,1053,
images\tent.jpg,tent,z,sounds\animalfarm_spanish.wav,,,,,,,,,0,1,1,1,0,103,103,11,774.906805031,9.62168269325e-06,775.448475894,0.541680805196,,,,z,1,0.533679414541,2018_Nov_27_1533,59.9835706664,spanish_cond1,001,1053,
images\computerkeyboard01a.jpg,computer keyboard,z,sounds\animalfarm_spanish.wav,,,,,,,,,0,1,1,1,0,104,104,61,776.564004711,8.98023426998e-06,777.348987703,0.784992613757,,,,z,1,0.767084739433,2018_Nov_27_1533,59.9835706664,spanish_cond1,001,1053,
images\gluestick.jpg,squirrel,x,sounds\animalfarm_spanish.wav,,,,,,,,,0,1,1,1,0,105,105,226,778.455462838,8.98023426998e-06,779.416189699,0.960736161287,,,,x,1,0.950479769133,2018_Nov_27_1533,59.9835706664,spanish_cond1,001,1053,
images\scooter.jpg,pen,x,sounds\animalfarm_spanish.wav,,,,,,,,,0,1,1,1,0,106,106,212,780.507350644,8.98023426998e-06,781.099945221,0.592604197998,,,,x,1,0.583714084671,2018_Nov_27_1533,59.9835706664,spanish_cond1,001,1053,
images\bicycle.jpg,hand bag,x,sounds\animalfarm_spanish.wav,,,,,,,,,0,1,1,1,0,107,107,186,782.208442833,9.62168269325e-06,782.767047215,0.558614644586,,,,x,1,0.550379767781,2018_Nov_27_1533,59.9835706664,spanish_cond1,001,1053,
images\aquarium.jpg,computer mouse,x,sounds\animalfarm_spanish.wav,,,,,,,,,0,1,1,1,0,108,108,159,783.903611595,9.30095848162e-06,784.634192956,0.730590982945,,,,x,1,0.71708983893,2018_Nov_27_1533,59.9835706664,spanish_cond1,001,1053,
images\seagull.jpg,seagull,z,sounds\animalfarm_spanish.wav,,,,,,,,,0,1,1,1,0,109,109,50,785.740036267,9.62168269325e-06,786.334625418,0.594599093383,,,,z,1,0.583718895505,2018_Nov_27_1533,59.9835706664,spanish_cond1,001,1053,
images\hairband.jpg,hairband,z,sounds\animalfarm_spanish.wav,,,,,,,,,0,1,1,1,0,110,110,66,787.442255476,9.30095848162e-06,788.218442647,0.776197113635,,,,z,1,0.767064854619,2018_Nov_27_1533,59.9835706664,spanish_cond1,001,1053,
images\envelope02a.jpg,grand piano,x,sounds\animalfarm_spanish.wav,,,,,,,,,0,1,1,1,0,111,111,182,789.339606563,9.62168269325e-06,790.035573282,0.695976340925,,,,x,1,0.68370805509,2018_Nov_27_1533,59.9835706664,spanish_cond1,001,1053,
images\glasses01b.jpg,calculator,x,sounds\animalfarm_spanish.wav,,,,,,,,,0,1,1,1,0,112,112,142,791.126689006,9.94240690488e-06,791.802684321,0.676005898742,,,,x,1,0.667013474842,2018_Nov_27_1533,59.9835706664,spanish_cond1,001,1053,
images\handfan01b.jpg,handfan,z,sounds\animalfarm_spanish.wav,,,,,,,,,0,1,1,1,0,113,113,69,792.915290071,9.30095848162e-06,793.569810113,0.654529663327,,,,z,1,0.633720531201,2018_Nov_27_1533,59.9835706664,spanish_cond1,001,1053,
images\straw.jpg,straw,z,sounds\animalfarm_spanish.wav,,,,,,,,,0,1,1,1,0,114,114,109,794.65956052,9.30095848162e-06,795.520328689,0.860778432543,,,,z,1,0.850461744514,2018_Nov_27_1533,59.9835706664,spanish_cond1,001,1053,
images\dryingmachine01.jpg,drying machine,z,sounds\animalfarm_spanish.wav,,,,,,,,,0,1,1,1,0,115,115,18,796.639651015,9.30095848162e-06,797.220762756,0.581121682844,,,,z,1,0.567054463216,2018_Nov_27_1533,59.9835706664,spanish_cond1,001,1053,
images\butterfly.jpg,butterfly,z,sounds\animalfarm_spanish.wav,,,,,,,,,0,1,1,1,0,116,116,91,798.326877719,9.30097303353e-06,799.004540151,0.677672374048,,,,z,1,0.667074091441,2018_Nov_27_1533,59.9835706664,spanish_cond1,001,1053,
images\bus.jpg,microphone,x,sounds\animalfarm_spanish.wav,,,,,,,,,0,1,1,1,0,117,117,203,800.121554556,9.62168269325e-06,800.821682973,0.700138359782,,,,x,1,0.683753276986,2018_Nov_27_1533,59.9835706664,spanish_cond1,001,1053,
images\mitten01.jpg,mitten,z,sounds\animalfarm_spanish.wav,,,,,,,,,0,1,1,1,0,118,118,102,802.011829537,9.62168269325e-06,802.988891127,0.977071532063,,,,z,1,0.967115336389,2018_Nov_27_1533,59.9835706664,spanish_cond1,001,1053,
images\ostrich.jpg,ostrich,z,sounds\animalfarm_spanish.wav,,,,,,,,,0,1,1,1,0,119,119,76,804.08764839,9.94240690488e-06,804.872707394,0.785068625046,,,,z,1,0.76709468184,2018_Nov_27_1533,59.9835706664,spanish_cond1,001,1053,
images\fryingpan01.jpg,frying pan,z,sounds\animalfarm_spanish.wav,,,,,,,,,0,1,1,1,0,120,120,45,805.972095198,1.02631311165e-05,806.556472858,0.584388243835,,,,z,1,0.567046765864,2018_Nov_27_1533,59.9835706664,spanish_cond1,001,1053,
images\peach01.jpg,peach,z,sounds\animalfarm_spanish.wav,,,,,,,,,0,1,1,1,0,121,121,106,807.683706772,9.30095848162e-06,808.323593519,0.639896368069,,,,z,1,0.617057381794,2018_Nov_27_1533,59.9835706664,spanish_cond1,001,1053,
images\thumbtack02a.jpg,thumb tack,z,sounds\animalfarm_spanish.wav,,,,,,,,,0,1,1,1,0,122,122,60,809.432232249,9.62168269325e-06,810.090725404,0.65850309722,,,,z,1,0.650393943724,2018_Nov_27_1533,59.9835706664,spanish_cond1,001,1053,
images\showerhead01.jpg,skateboard,x,sounds\animalfarm_spanish.wav,,,,,,,,,0,1,1,1,0,123,123,223,811.197147941,9.62168269325e-06,811.824494749,0.627357392237,,,,x,1,0.617062513353,2018_Nov_27_1533,59.9835706664,spanish_cond1,001,1053,
images\parkbench03.jpg,park bench,z,sounds\animalfarm_spanish.wav,,,,,,,,,0,1,1,1,0,124,124,71,812.928664851,8.9802488219e-06,813.574939111,0.646283561233,,,,z,1,0.633719569028,2018_Nov_27_1533,59.9835706664,spanish_cond1,001,1053,
images\basketball01.jpg,basket ball,z,sounds\animalfarm_spanish.wav,,,,,,,,,0,1,1,1,0,125,125,33,814.713026923,9.30095848162e-06,815.308716153,0.595698530888,,,,z,1,0.583710235995,2018_Nov_27_1533,59.9835706664,spanish_cond1,001,1053,
images\calculator02b.jpg,dice,x,sounds\animalfarm_spanish.wav,,,,,,,,,0,1,1,1,0,126,126,165,816.487678795,9.30095848162e-06,817.32590176,0.83823258683,,,,x,1,0.817104335598,2018_Nov_27_1533,59.9835706664,spanish_cond1,001,1053,
images\tie01.jpg,bench,x,sounds\animalfarm_spanish.wav,,,,,,,,,0,1,1,1,0,127,127,130,818.422991907,1.02631311165e-05,819.059692594,0.636711591374,,,,x,1,0.617075021539,2018_Nov_27_1533,59.9835706664,spanish_cond1,001,1053,
images\redfox.jpg,red fox,z,sounds\animalfarm_spanish.wav,,,,,,,,,0,1,1,1,0,128,128,1,820.171398717,9.62168269325e-06,820.843481214,0.672092119261,,,,z,1,0.650410942035,2018_Nov_27_1533,59.9835706664,spanish_cond1,001,1053,
images\bullet (2).jpg,rubber glove,x,sounds\animalfarm_spanish.wav,,,,,,,,,0,1,1,1,0,129,129,217,821.946529748,8.98023426998e-06,822.627270797,0.680750670785,,,,x,1,0.667013474842,2018_Nov_27_1533,59.9835706664,spanish_cond1,001,1053,
images\pipe.jpg,icecube,x,sounds\animalfarm_spanish.wav,,,,,,,,,0,1,1,1,0,130,130,188,823.734763906,9.30095848162e-06,824.361042708,0.626288744112,,,,x,1,0.617067003463,2018_Nov_27_1533,59.9835706664,spanish_cond1,001,1053,
images\nailpolish02b.jpg,nail polish,z,sounds\animalfarm_spanish.wav,,,,,,,,,0,1,1,1,0,131,131,94,825.46808873,8.98023426998e-06,826.194841945,0.726762515726,,,,z,1,0.717088235309,2018_Nov_27_1533,59.9835706664,spanish_cond1,001,1053,
images\flower01.jpg,bus,x,sounds\animalfarm_spanish.wav,,,,,,,,,0,1,1,1,0,132,132,140,827.307247243,9.30095848162e-06,827.995298846,0.688061866123,,,,x,1,0.667069280607,2018_Nov_27_1533,59.9835706664,spanish_cond1,001,1053,
images\bottleofredwine02.jpg,pipe,x,sounds\animalfarm_spanish.wav,,,,,,,,,0,1,1,1,0,133,133,213,829.092194314,9.62168269325e-06,829.812431726,0.720247674923,,,,x,1,0.700410332662,2018_Nov_27_1533,59.9835706664,spanish_cond1,001,1053,
images\candy.jpg,candy,z,sounds\animalfarm_spanish.wav,,,,,,,,,0,1,1,1,0,134,134,31,830.913113326,8.98023426998e-06,831.846303574,0.933200190644,,,,z,1,0.917104079024,2018_Nov_27_1533,59.9835706664,spanish_cond1,001,1053,
images\ashtray02b.jpg,ashtray,z,sounds\animalfarm_spanish.wav,,,,,,,,,0,1,1,1,0,135,135,43,832.959552374,9.62168269325e-06,833.913477667,0.953935235826,,,,z,1,0.933788075403,2018_Nov_27_1533,59.9835706664,spanish_cond1,001,1053,
images\50dollarbill.jpg,cherry,x,sounds\animalfarm_spanish.wav,,,,,,,,,0,1,1,1,0,136,136,151,835.033704752,9.94239235297e-06,835.663929405,0.630234916563,,,,x,1,0.617060589007,2018_Nov_27_1533,59.9835706664,spanish_cond1,001,1053,
images\cloud.jpg,ceiling fan,x,sounds\animalfarm_spanish.wav,,,,,,,,,0,1,1,1,0,137,137,149,836.767548505,9.30095848162e-06,837.297690347,0.530152105959,,,,x,1,0.517029735493,2018_Nov_27_1533,59.9835706664,spanish_cond1,001,1053,
images\pouch01b.jpg,pouch,z,sounds\animalfarm_spanish.wav,,,,,,,,,0,1,1,1,0,138,138,25,838.408340651,9.30095848162e-06,839.081487307,0.673156598001,,,,z,1,0.650382397711,2018_Nov_27_1533,59.9835706664,spanish_cond1,001,1053,
images\pepper05a.jpg,lighter,x,sounds\animalfarm_spanish.wav,,,,,,,,,0,1,1,1,0,139,139,198,840.201352616,9.30095848162e-06,840.815252162,0.613909488209,,,,x,1,0.60038685576,2018_Nov_27_1533,59.9835706664,spanish_cond1,001,1053,
images\axe01.jpg,axe,z,sounds\animalfarm_spanish.wav,,,,,,,,,0,1,1,1,0,140,140,104,841.978888106,9.62168269325e-06,842.599056177,0.620177693228,,,,z,1,0.600395194546,2018_Nov_27_1533,59.9835706664,spanish_cond1,001,1053,
images\nametag01a.jpg,name tag,z,sounds\animalfarm_spanish.wav,,,,,,,,,0,1,1,1,0,141,141,108,843.784777409,9.62168269325e-06,844.782943516,0.998176049834,,,,z,1,0.98381729325,2018_Nov_27_1533,59.9835706664,spanish_cond1,001,1053,
images\bowtie.jpg,bowtie,z,sounds\animalfarm_spanish.wav,,,,,,,,,0,1,1,1,0,142,142,89,845.892040881,9.30095848162e-06,846.483376299,0.591345682013,,,,z,1,0.567052218146,2018_Nov_27_1533,59.9835706664,spanish_cond1,001,1053,
images\cactus.jpg,cactus,z,sounds\animalfarm_spanish.wav,,,,,,,,,0,1,1,1,0,143,143,70,847.680713467,9.94240690488e-06,848.517236922,0.836534039263,,,,z,1,0.81711844739,2018_Nov_27_1533,59.9835706664,spanish_cond1,001,1053,
images\umbrella01.jpg,umbrella,z,sounds\animalfarm_spanish.wav,,,,,,,,,0,1,1,1,0,144,144,53,849.629499179,1.02631311165e-05,852.618487484,2.98900017254,,,,None,0,,2018_Nov_27_1533,59.9835706664,spanish_cond1,001,1053,
images\electrictoothbrush01a.jpg,banjo,x,sounds\animalfarm_spanish.wav,,,,,,,,,0,1,1,1,0,145,145,127,853.778924219,9.62168269325e-06,854.568797912,0.789885559716,,,,x,1,0.767114245929,2018_Nov_27_1533,59.9835706664,spanish_cond1,001,1053,
images\dragonfly02.jpg,dragon fly,z,sounds\animalfarm_spanish.wav,,,,,,,,,0,1,1,1,0,146,146,29,855.664799847,8.65951005835e-06,856.302564371,0.637773825045,,,,z,1,0.617067965635,2018_Nov_27_1533,59.9835706664,spanish_cond1,001,1053,
images\cherry01.jpg,highlighter,x,sounds\animalfarm_spanish.wav,,,,,,,,,0,1,1,1,0,147,147,187,857.410358639,9.30095848162e-06,858.886551711,1.4762026942,,,,x,1,1.46727313196,2018_Nov_27_1533,59.9835706664,spanish_cond1,001,1053,
images\beachumbrella01.jpg,beach umbrella,z,sounds\animalfarm_spanish.wav,,,,,,,,,0,1,1,1,0,148,148,92,860.069856938,9.94240690488e-06,860.803709672,0.733863316957,,,,z,1,0.717083745185,2018_Nov_27_1533,59.9835706664,spanish_cond1,001,1053,
images\bandaid01.jpg,door handle,x,sounds\animalfarm_spanish.wav,,,,,,,,,0,1,1,1,0,149,149,170,861.909194736,9.62168269325e-06,862.654185849,0.745001055184,,,,x,1,0.73374753604,2018_Nov_27_1533,59.9835706664,spanish_cond1,001,1053,
images\corn01.jpg,corn,z,sounds\animalfarm_spanish.wav,,,,,,,,,0,1,1,1,0,150,150,22,863.829531379,9.30095848162e-06,864.688043264,0.8585215067,,,,z,1,0.850431275845,2018_Nov_27_1533,59.9835706664,spanish_cond1,001,1053,
images\barrel01.jpg,barrel,z,sounds\animalfarm_spanish.wav,,,,,,,,,0,1,1,1,0,151,151,9,865.816765973,9.62168269325e-06,866.738554208,0.921798497599,,,,z,1,0.9004422125,2018_Nov_27_1533,59.9835706664,spanish_cond1,001,1053,
images\tank.jpg,wallet,x,sounds\animalfarm_spanish.wav,,,,,,,,,0,1,1,1,0,152,152,237,867.841387216,9.30095848162e-06,868.805758128,0.964381495825,,,,x,1,0.950463732996,2018_Nov_27_1533,59.9835706664,spanish_cond1,001,1053,
images\medal01.jpg,medal,z,sounds\animalfarm_spanish.wav,,,,,,,,,0,1,1,1,0,153,153,115,869.905248563,9.30095848162e-06,870.556220449,0.650981828498,,,,z,1,0.633737529497,2018_Nov_27_1533,59.9835706664,spanish_cond1,001,1053,
images\volleyball.jpg,volley ball,z,sounds\animalfarm_spanish.wav,,,,,,,,,0,1,1,1,0,154,154,2,871.687444475,9.30095848162e-06,872.256654516,0.569220303805,,,,z,1,0.55038040923,2018_Nov_27_1533,59.9835706664,spanish_cond1,001,1053,
images\mirror02.jpg,8 ball,x,sounds\animalfarm_spanish.wav,,,,,,,,,0,1,1,1,0,155,155,121,873.356830015,9.30095848162e-06,874.307382909,0.950562836326,,,,x,1,0.934019637207,2018_Nov_27_1533,59.9835706664,spanish_cond1,001,1053,
images\doll.jpg,carrot,x,sounds\animalfarm_spanish.wav,,,,,,,,,0,1,1,1,0,156,156,146,875.417250649,9.62168269325e-06,876.124309564,0.707069498691,,,,x,1,0.683744617461,2018_Nov_27_1533,59.9835706664,spanish_cond1,001,1053,
images\banana04a.jpg,banana,z,sounds\animalfarm_spanish.wav,,,,,,,,,0,1,1,1,0,157,157,118,877.2296843,9.94239235297e-06,878.174820187,0.945145829406,,,,z,1,0.933803470092,2018_Nov_27_1533,59.9835706664,spanish_cond1,001,1053,
images\pineapple01a.jpg,pineapple,z,sounds\animalfarm_spanish.wav,,,,,,,,,0,1,1,1,0,158,158,51,879.285951575,9.62168269325e-06,880.108655729,0.822714417576,,,,x,0,0.800440865467,2018_Nov_27_1533,59.9835706664,spanish_cond1,001,1053,
images\lettuce.jpg,mushroom,x,sounds\animalfarm_spanish.wav,,,,,,,,,0,1,1,1,0,159,159,205,881.305585579,9.30095848162e-06,882.109172093,0.80359645639,,,,x,1,0.783762321371,2018_Nov_27_1533,59.9835706664,spanish_cond1,001,1053,
images\boxingglove02a.jpg,bracelet,x,sounds\animalfarm_spanish.wav,,,,,,,,,0,1,1,1,0,160,160,135,883.219436888,9.30095848162e-06,883.892804201,0.67337725524,,,,x,1,0.650248656326,2018_Nov_27_1533,59.9835706664,spanish_cond1,001,1053,
images\coin01b.jpg,arrow,x,sounds\animalfarm_spanish.wav,,,,,,,,,0,1,1,1,0,161,161,124,884.994323849,8.98023426998e-06,886.226899785,1.23258555761,,,,x,1,1.21721973162,2018_Nov_27_1533,59.9835706664,spanish_cond1,001,1053,
images\lip.jpg,boxing glove,x,sounds\animalfarm_spanish.wav,,,,,,,,,0,1,1,1,0,162,162,136,887.328418471,9.30095848162e-06,887.943996038,0.61558718879,,,,x,1,0.600390704436,2018_Nov_27_1533,59.9835706664,spanish_cond1,001,1053,
images\triangleruler02.jpg,bottle of red wine,x,sounds\animalfarm_spanish.wav,,,,,,,,,0,1,1,1,0,163,163,134,889.053388788,9.30095848162e-06,890.644697267,1.59131842059,,,,x,1,1.56731200355,2018_Nov_27_1533,59.9835706664,spanish_cond1,001,1053,
images\cupcake.jpg,scissors,x,sounds\animalfarm_spanish.wav,,,,,,,,,0,1,1,1,0,164,164,219,891.762238298,9.30095848162e-06,892.511831782,0.749603426346,,,,x,1,0.733746253143,2018_Nov_27_1533,59.9835706664,spanish_cond1,001,1053,
images\giraffe.jpg,lettuce,x,sounds\animalfarm_spanish.wav,,,,,,,,,0,1,1,1,0,165,165,195,893.611332802,9.62168269325e-06,894.162255874,0.5509330145,,,,x,1,0.533696733561,2018_Nov_27_1533,59.9835706664,spanish_cond1,001,1053,
images\chessknight02b (1).jpg,cockroach,x,sounds\animalfarm_spanish.wav,,,,,,,,,0,1,1,1,0,166,166,155,895.269326271,9.62168269325e-06,896.596216819,1.32690016992,,,,x,1,1.31724352925,2018_Nov_27_1533,59.9835706664,spanish_cond1,001,1053,
images\carrot02.jpg,corkscrew,x,sounds\animalfarm_spanish.wav,,,,,,,,,0,1,1,1,0,167,167,161,897.697261156,9.30095848162e-06,898.396675965,0.69942443099,,,,x,1,0.683738844455,2018_Nov_27_1533,59.9835706664,spanish_cond1,001,1053,
images\puma.jpg,puma,z,sounds\animalfarm_spanish.wav,,,,,,,,,0,1,1,1,0,168,168,4,899.49377862,9.62168269325e-06,900.247149256,0.753380577939,,,,z,1,0.733751384716,2018_Nov_27_1533,59.9835706664,spanish_cond1,001,1053,
images\ceilingfan02.jpg,paper clip,x,sounds\animalfarm_spanish.wav,,,,,,,,,0,1,1,1,0,169,169,208,901.343822463,9.62168269325e-06,902.347691983,1.00388010358,,,,x,1,0.98381985903,2018_Nov_27_1533,59.9835706664,spanish_cond1,001,1053,
images\plate01b.jpg,plate,z,sounds\animalfarm_spanish.wav,,,,,,,,,0,1,1,1,0,170,170,3,903.44715195,9.30095848162e-06,904.214838045,0.767696357681,,,,z,1,0.75043313604,2018_Nov_27_1533,59.9835706664,spanish_cond1,001,1053,
images\broadsword.jpg,teapot,x,sounds\animalfarm_spanish.wav,,,,,,,,,0,1,1,1,0,171,171,231,905.306214516,9.62168269325e-06,905.998673812,0.692469237882,,,,x,1,0.683785349262,2018_Nov_27_1533,59.9835706664,spanish_cond1,001,1053,
images\pen03c.jpg,pepper,x,sounds\animalfarm_spanish.wav,,,,,,,,,0,1,1,1,0,172,172,211,907.164699781,9.62168269325e-06,907.84911054,0.684420380261,,,,x,1,0.667077298669,2018_Nov_27_1533,59.9835706664,spanish_cond1,001,1053,
images\watermelon01.jpg,orange,x,sounds\animalfarm_spanish.wav,,,,,,,,,0,1,1,1,0,173,173,207,908.976988786,8.65952461027e-06,909.616229596,0.639250111781,,,,x,1,0.617072776469,2018_Nov_27_1533,59.9835706664,spanish_cond1,001,1053,
images\bench02.jpg,electric toothbrush,x,sounds\animalfarm_spanish.wav,,,,,,,,,0,1,1,1,0,174,174,172,910.723739063,8.98023426998e-06,911.266639256,0.542910456134,,,,x,1,0.533704110188,2018_Nov_27_1533,59.9835706664,spanish_cond1,001,1053,
images\apricot.jpg,apricot,z,sounds\animalfarm_spanish.wav,,,,,,,,,0,1,1,1,0,175,175,32,912.381875574,8.98023426998e-06,912.950410172,0.56854486173,,,,x,0,0.550377202002,2018_Nov_27_1533,59.9835706664,spanish_cond1,001,1053,
images\lychee02a.jpg,lychee,z,sounds\animalfarm_spanish.wav,,,,,,,,,0,1,1,1,0,176,176,62,914.142762667,9.30095848162e-06,915.100952931,0.958200206675,,,,z,1,0.933793527685,2018_Nov_27_1533,59.9835706664,spanish_cond1,001,1053,
images\printer03a.jpg,printer,z,sounds\animalfarm_spanish.wav,,,,,,,,,0,1,1,1,0,177,177,72,916.20834373,9.62168269325e-06,916.834740237,0.626406449344,,,,z,1,0.617065399856,2018_Nov_27_1533,59.9835706664,spanish_cond1,001,1053,
images\highheelshoe02a.jpg,high heel shoe,z,sounds\animalfarm_spanish.wav,,,,,,,,,0,1,1,1,0,178,178,75,917.93982985,8.98023426998e-06,918.468488992,0.528668763334,,,,z,1,0.517035187775,2018_Nov_27_1533,59.9835706664,spanish_cond1,001,1053,
images\raisin.jpg,ruler,x,sounds\animalfarm_spanish.wav,,,,,,,,,0,1,1,1,0,179,179,218,919.571768767,9.62168269325e-06,920.185598395,0.613839891361,,,,x,1,0.600393911664,2018_Nov_27_1533,59.9835706664,spanish_cond1,001,1053,
images\sock03.jpg,sock,z,sounds\animalfarm_spanish.wav,,,,,,,,,0,1,1,1,0,180,180,90,921.290091464,9.62168269325e-06,922.286123161,0.996041640072,,,,z,1,0.983818255409,2018_Nov_27_1533,59.9835706664,spanish_cond1,001,1053,
images\rubberglove02a.jpg,lady bug,x,sounds\animalfarm_spanish.wav,,,,,,,,,0,1,1,1,0,181,181,192,923.389570353,9.30095848162e-06,924.336651745,0.947091012771,,,,x,1,0.933804111541,2018_Nov_27_1533,59.9835706664,spanish_cond1,001,1053,
images\paperclip04.jpg,eye drops,x,sounds\animalfarm_spanish.wav,,,,,,,,,0,1,1,1,0,182,182,174,925.441650272,9.30095848162e-06,926.054038252,0.612398242694,,,,x,1,0.600661715143,2018_Nov_27_1533,59.9835706664,spanish_cond1,001,1053,
images\pingpongpaddle01c (1).jpg,ping pong paddle,z,sounds\animalfarm_spanish.wav,,,,,,,,,0,1,1,1,0,183,183,10,927.163554159,9.30095848162e-06,927.787537869,0.623993972986,,,,z,1,0.600385893587,2018_Nov_27_1533,59.9835706664,spanish_cond1,001,1053,
images\ear.jpg,bullet,x,sounds\animalfarm_spanish.wav,,,,,,,,,0,1,1,1,0,184,184,139,928.88966208,9.30095848162e-06,929.688020493,0.798368355187,,,,x,1,0.783754944743,2018_Nov_27_1533,59.9835706664,spanish_cond1,001,1053,
images\feather03b.jpg,feather,z,sounds\animalfarm_spanish.wav,,,,,,,,,0,1,1,1,0,185,185,114,930.787314967,9.94240690488e-06,931.405129575,0.617824229834,,,,z,1,0.600386214312,2018_Nov_27_1533,59.9835706664,spanish_cond1,001,1053,
images\banjo.jpg,knife,x,sounds\animalfarm_spanish.wav,,,,,,,,,0,1,1,1,0,186,186,191,932.500067673,9.62168269325e-06,933.355644303,0.85558689374,,,,x,1,0.833785124749,2018_Nov_27_1533,59.9835706664,spanish_cond1,001,1053,
images\daisy.jpg,daisy,z,sounds\animalfarm_spanish.wav,,,,,,,,,0,1,1,1,0,187,187,6,934.456253099,9.62168269325e-06,935.089416214,0.633173698938,,,,z,1,0.617060268298,2018_Nov_27_1533,59.9835706664,spanish_cond1,001,1053,
images\ladybug03.jpg,giraffe,x,sounds\animalfarm_spanish.wav,,,,,,,,,0,1,1,1,0,188,188,178,936.190970501,9.62168269325e-06,936.873202269,0.682241710761,,,,x,1,0.667071525662,2018_Nov_27_1533,59.9835706664,spanish_cond1,001,1053,
images\cocktailshrimp01.jpg,cocktail shrimp,z,sounds\animalfarm_spanish.wav,,,,,,,,,0,1,1,1,0,189,189,30,937.986657934,9.30095848162e-06,938.673675207,0.68702689388,,,,z,1,0.667083071676,2018_Nov_27_1533,59.9835706664,spanish_cond1,001,1053,
images\grandpiano.jpg,tulip,x,sounds\animalfarm_spanish.wav,,,,,,,,,0,1,1,1,0,190,190,236,939.786867238,9.94240690488e-06,940.99092034,1.20406336455,,,,x,1,1.18386520921,2018_Nov_27_1533,59.9835706664,spanish_cond1,001,1053,
images\radio03a.jpg,radio,z,sounds\animalfarm_spanish.wav,,,,,,,,,0,1,1,1,0,191,191,37,942.103767915,8.9802488219e-06,942.908073489,0.804315516769,,,,z,1,0.783757189798,2018_Nov_27_1533,59.9835706664,spanish_cond1,001,1053,
images\crocodile.jpg,triangle ruler,x,sounds\animalfarm_spanish.wav,,,,,,,,,0,1,1,1,0,192,192,235,944.004671006,9.30095848162e-06,944.625195721,0.620534336893,,,,x,1,0.60039134587,2018_Nov_27_1533,59.9835706664,spanish_cond1,001,1053,
images\coffeepot03b.jpg,coffee pot,z,sounds\animalfarm_spanish.wav,,,,,,,,,0,1,1,1,0,193,193,107,945.745326268,9.30095848162e-06,946.492335047,0.747018401147,,,,z,1,0.733755233392,2018_Nov_27_1533,59.9835706664,spanish_cond1,001,1053,
images\grasshopper.jpg,cauliflower,x,sounds\animalfarm_spanish.wav,,,,,,,,,0,1,1,1,0,194,194,148,947.584490234,8.98023426998e-06,948.30946889,0.724988598304,,,,x,1,0.717089518206,2018_Nov_27_1533,59.9835706664,spanish_cond1,001,1053,
images\leaf01a.jpg,leaf,z,sounds\animalfarm_spanish.wav,,,,,,,,,0,1,1,1,0,195,195,68,949.41134454,9.62168269325e-06,950.059911968,0.64857769091,,,,z,1,0.633719569028,2018_Nov_27_1533,59.9835706664,spanish_cond1,001,1053,
images\flashlight05.jpg,flash light,z,sounds\animalfarm_spanish.wav,,,,,,,,,0,1,1,1,0,196,196,8,951.16109614,9.62168269325e-06,951.760346676,0.599260798248,,,,z,1,0.583706066594,2018_Nov_27_1533,59.9835706664,spanish_cond1,001,1053,
images\fireextinguisher02.jpg,fire extinguisher,z,sounds\animalfarm_spanish.wav,,,,,,,,,0,1,1,1,0,197,197,175,952.869199008,9.30095848162e-06,953.644181544,0.774992479055,,,,z,1,0.750440191958,2018_Nov_27_1533,59.9835706664,spanish_cond1,001,1053,
images\spoon02b.jpg,spoon,z,sounds\animalfarm_spanish.wav,,,,,,,,,0,1,1,1,0,198,198,38,954.734353381,1.02631311165e-05,955.511312532,0.776969413957,,,,z,1,0.767098530516,2018_Nov_27_1533,59.9835706664,spanish_cond1,001,1053,
images\skateboard.jpg,key,x,sounds\animalfarm_spanish.wav,,,,,,,,,0,1,1,1,0,199,199,189,956.601113934,9.62168269325e-06,957.311786753,0.710682440244,,,,x,1,0.700354847635,2018_Nov_27_1533,59.9835706664,spanish_cond1,001,1053,
images\ruler02b.jpg,watermelon,x,sounds\animalfarm_spanish.wav,,,,,,,,,0,1,1,1,0,200,200,238,958.413086706,8.98023426998e-06,959.278939614,0.865862529259,,,,x,1,0.85044410477,2018_Nov_27_1533,59.9835706664,spanish_cond1,001,1053,
images\cauliflower01.jpg,glue stick,x,sounds\animalfarm_spanish.wav,,,,,,,,,0,1,1,1,0,201,201,181,960.475346685,9.62168269325e-06,961.112753603,0.637416860656,,,,x,1,0.617059306125,2018_Nov_27_1533,59.9835706664,spanish_cond1,001,1053,
images\diploma01.jpg,glasses,x,sounds\animalfarm_spanish.wav,,,,,,,,,0,1,1,1,0,202,202,179,962.24267774,9.30095848162e-06,962.979893571,0.737226094774,,,,x,1,0.717086952413,2018_Nov_27_1533,59.9835706664,spanish_cond1,001,1053,
images\paintbrush03a.jpg,paint brush,z,sounds\animalfarm_spanish.wav,,,,,,,,,0,1,1,1,0,203,203,0,964.079227815,9.62168269325e-06,964.797024848,0.71780697495,,,,z,1,0.700412577717,2018_Nov_27_1533,59.9835706664,spanish_cond1,001,1053,
images\radish01.jpg,raisin,x,sounds\animalfarm_spanish.wav,,,,,,,,,0,1,1,1,0,204,204,214,965.906628954,9.62168269325e-06,967.080942078,1.17432306657,,,,x,1,1.15052127065,2018_Nov_27_1533,59.9835706664,spanish_cond1,001,1053,
images\toothbrush03a.jpg,parrot,x,sounds\animalfarm_spanish.wav,,,,,,,,,0,1,1,1,0,205,205,210,968.172132851,9.94240690488e-06,969.364864761,1.19274217292,,,,x,1,1.18384981452,2018_Nov_27_1533,59.9835706664,spanish_cond1,001,1053,
images\aloe02.jpg,broad sword,x,sounds\animalfarm_spanish.wav,,,,,,,,,0,1,1,1,0,206,206,137,970.485613341,9.62168269325e-06,971.081974805,0.596371407184,,,,x,1,0.583719857677,2018_Nov_27_1533,59.9835706664,spanish_cond1,001,1053,
images\comb02a.jpg,diploma,x,sounds\animalfarm_spanish.wav,,,,,,,,,0,1,1,1,0,207,207,166,972.184955346,9.62168269325e-06,972.765734817,0.580789734813,,,,x,1,0.567045803691,2018_Nov_27_1533,59.9835706664,spanish_cond1,001,1053,
images\lion.jpg,lion,z,sounds\animalfarm_spanish.wav,,,,,,,,,0,1,1,1,0,208,208,44,973.953072812,9.62168269325e-06,974.582875074,0.629812845465,,,,z,1,0.617062834062,2018_Nov_27_1533,59.9835706664,spanish_cond1,001,1053,
images\electricguitar02.jpg,electric guitar,z,sounds\animalfarm_spanish.wav,,,,,,,,,0,1,1,1,0,209,209,100,975.683552505,9.94240690488e-06,976.299968762,0.616426199456,,,,z,1,0.600380762015,2018_Nov_27_1533,59.9835706664,spanish_cond1,001,1053,
images\binder03b.jpg,dj mixer,x,sounds\animalfarm_spanish.wav,,,,,,,,,0,1,1,1,0,210,210,167,977.411849358,9.30095848162e-06,978.067092629,0.655252893077,,,,x,1,0.633726624917,2018_Nov_27_1533,59.9835706664,spanish_cond1,001,1053,
images\globe.jpg,cloud,x,sounds\animalfarm_spanish.wav,,,,,,,,,0,1,1,1,0,211,211,154,979.193584391,9.30095848162e-06,979.934236766,0.740662638826,,,,x,1,0.717087593875,2018_Nov_27_1533,59.9835706664,spanish_cond1,001,1053,
images\lighter02b.jpg,stapler,x,sounds\animalfarm_spanish.wav,,,,,,,,,0,1,1,1,0,212,212,227,981.034709897,9.94240690488e-06,981.768064547,0.733366196728,,,,x,1,0.71709432904,2018_Nov_27_1533,59.9835706664,spanish_cond1,001,1053,
images\ladder.jpg,ladder,z,sounds\animalfarm_spanish.wav,,,,,,,,,0,1,1,1,0,213,213,113,982.859108109,9.30095848162e-06,983.58518075,0.726082583526,,,,z,1,0.717079575799,2018_Nov_27_1533,59.9835706664,spanish_cond1,001,1053,
images\gps.jpg,gps,z,sounds\animalfarm_spanish.wav,,,,,,,,,0,1,1,1,0,214,214,21,984.702038642,9.30097303353e-06,985.669033387,0.967005007769,,,,z,1,0.950469185278,2018_Nov_27_1533,59.9835706664,spanish_cond1,001,1053,
images\parkfountain.jpg,park fountain,z,sounds\animalfarm_spanish.wav,,,,,,,,,0,1,1,1,0,215,215,93,986.787737359,9.30095848162e-06,987.502847056,0.715120280642,,,,z,1,0.700413219165,2018_Nov_27_1533,59.9835706664,spanish_cond1,001,1053,
images\swallow.jpg,mattress,x,sounds\animalfarm_spanish.wav,,,,,,,,,0,1,1,1,0,216,216,202,988.603552068,9.94240690488e-06,989.420041899,0.816500414701,,,,x,1,0.800461712439,2018_Nov_27_1533,59.9835706664,spanish_cond1,001,1053,
images\honeycomb.jpg,honey comb,z,sounds\animalfarm_spanish.wav,,,,,,,,,0,1,1,1,0,217,217,59,990.532201524,8.98023426998e-06,991.720614902,1.1884226792,,,,z,1,1.16722515185,2018_Nov_27_1533,59.9835706664,spanish_cond1,001,1053,
