images,name,corrAns,sounds,trials_3.thisRepN,trials_3.thisTrialN,trials_3.thisN,trials_3.thisIndex,trials_4.thisRepN,trials_4.thisTrialN,trials_4.thisN,trials_4.thisIndex,trials_2.thisRepN,trials_2.thisTrialN,trials_2.thisN,trials_2.thisIndex,trials.thisRepN,trials.thisTrialN,trials.thisN,trials.thisIndex,begin_global,begin_routine,end_global,end_routine,key_resp_2.keys,key_resp_2.corr,begin_book,key_resp_1.keys,key_resp_1.corr,key_resp_1.rt,date,frameRate,expName,session,participant,
images/volleyball.jpg,volley ball,z,,0,0,0,0,,,,,,,,,,,,,,,,,,,,,,,2018_Nov_27_1533,59.9834168541,chinese_cond1,001,1059,
images/puma.jpg,puma,z,,,,,,0,0,0,0,,,,,,,,,48.1593396724,1.02630583569e-05,51.0014252872,2.84209651919,None,0,,,,,2018_Nov_27_1533,59.9834168541,chinese_cond1,001,1059,
images/leek.jpg,donut,x,sounds/greatgatsby_english.wav,,,,,,,,,0,0,0,0,0,0,0,169,93.1804165405,9.30100213736e-06,96.0127967958,2.83239051851,,,83.0016016841,None,0,,2018_Nov_27_1533,59.9834168541,chinese_cond1,001,1059,
images/comb02a.jpg,diploma,x,sounds/greatgatsby_english.wav,,,,,,,,,0,0,0,0,0,1,1,166,97.1243999297,9.30100213736e-06,98.3136305439,1.18924023595,,,,x,1,1.16722525691,2018_Nov_27_1533,59.9834168541,chinese_cond1,001,1059,
images/scissors04a.jpg,leek,x,sounds/greatgatsby_english.wav,,,,,,,,,0,0,0,0,0,2,2,194,99.4091886125,9.62160993367e-06,100.730876006,1.32169733616,,,,x,1,1.30054990947,2018_Nov_27_1533,59.9834168541,chinese_cond1,001,1059,
images/boxingglove02a.jpg,bracelet,x,sounds/greatgatsby_english.wav,,,,,,,,,0,0,0,0,0,3,3,135,101.8431812,9.30088572204e-06,102.831420977,0.988250360475,,,,x,1,0.967165153706,2018_Nov_27_1533,59.9834168541,chinese_cond1,001,1059,
images/dreamcatcher.jpg,dream catcher,z,sounds/greatgatsby_english.wav,,,,,,,,,0,0,0,0,0,4,4,48,103.931106092,9.30088572204e-06,105.015306122,1.08420965192,,,,z,1,1.06718349899,2018_Nov_27_1533,59.9834168541,chinese_cond1,001,1059,
images/parkfountain.jpg,park fountain,z,sounds/greatgatsby_english.wav,,,,,,,,,0,0,0,0,0,5,5,93,106.136124232,9.30088572204e-06,107.032465054,0.89635076432,,,,z,1,0.883781360229,2018_Nov_27_1533,59.9834168541,chinese_cond1,001,1059,
images/toothbrush03a.jpg,parrot,x,sounds/greatgatsby_english.wav,,,,,,,,,0,0,0,0,0,6,6,210,108.126522145,9.30100213736e-06,109.099665231,0.973153027939,,,,x,1,0.950478324317,2018_Nov_27_1533,59.9834168541,chinese_cond1,001,1059,
images/headphones02b.jpg,headphones,z,sounds/greatgatsby_english.wav,,,,,,,,,0,0,0,0,0,7,7,101,110.206862931,8.98016151041e-06,111.300229508,1.09337619878,,,,z,1,1.08384691563,2018_Nov_27_1533,59.9834168541,chinese_cond1,001,1059,
images/highlighter03b.jpg,coin,x,sounds/greatgatsby_english.wav,,,,,,,,,0,0,0,0,0,8,8,156,112.401229262,9.30088572204e-06,113.484098939,1.08287897764,,,,x,1,1.06717002869,2018_Nov_27_1533,59.9834168541,chinese_cond1,001,1059,
images/cocktailshrimp01.jpg,cocktail shrimp,z,sounds/greatgatsby_english.wav,,,,,,,,,0,0,0,0,0,9,9,30,114.598084393,8.98016151041e-06,115.868045471,1.26997037814,,,,z,1,1.25055292423,2018_Nov_27_1533,59.9834168541,chinese_cond1,001,1059,
images/axe01.jpg,axe,z,sounds/greatgatsby_english.wav,,,,,,,,,0,0,0,0,0,10,10,104,116.971397077,8.98027792573e-06,117.968663565,0.997276431299,,,,z,1,0.98390907154,2018_Nov_27_1533,59.9834168541,chinese_cond1,001,1059,
images/atm.jpg,atm,z,sounds/greatgatsby_english.wav,,,,,,,,,0,0,0,0,0,11,11,96,119.107007512,9.30088572204e-06,120.002423373,0.895425802912,,,,z,1,0.883760192548,2018_Nov_27_1533,59.9834168541,chinese_cond1,001,1059,
images/bus.jpg,microphone,x,sounds/greatgatsby_english.wav,,,,,,,,,0,0,0,0,0,12,12,203,121.121759428,8.98016151041e-06,122.069603344,0.947853537975,,,,x,1,0.933801437262,2018_Nov_27_1533,59.9834168541,chinese_cond1,001,1059,
images/licenseplate.jpg,license plate,z,sounds/greatgatsby_english.wav,,,,,,,,,0,0,0,0,0,13,13,40,123.187045217,9.30100213736e-06,124.286838736,1.09980314109,,,,z,1,1.08384210488,2018_Nov_27_1533,59.9834168541,chinese_cond1,001,1059,
images/puma.jpg,puma,z,sounds/greatgatsby_english.wav,,,,,,,,,0,0,0,0,0,14,14,4,125.384001375,8.98016151041e-06,126.187328414,0.803336660261,,,,z,1,0.783773278003,2018_Nov_27_1533,59.9834168541,chinese_cond1,001,1059,
images/icecube02 (2).jpg,aloe,x,sounds/greatgatsby_english.wav,,,,,,,,,0,0,0,0,0,15,15,122,127.29774167,9.30100213736e-06,128.32119701,1.02346496179,,,,x,1,1.00049423217,2018_Nov_27_1533,59.9834168541,chinese_cond1,001,1059,
images/chessknight02b (1).jpg,cockroach,x,sounds/greatgatsby_english.wav,,,,,,,,,0,0,0,0,0,16,16,155,129.429370667,8.98016151041e-06,130.588441254,1.15908020863,,,,z,0,1.15047235892,2018_Nov_27_1533,59.9834168541,chinese_cond1,001,1059,
images/tie01.jpg,bench,x,sounds/greatgatsby_english.wav,,,,,,,,,0,0,0,0,0,17,17,130,131.686218075,9.30088572204e-06,132.488908161,0.802700027707,,,,x,1,0.783756279736,2018_Nov_27_1533,59.9834168541,chinese_cond1,001,1059,
images/donut.jpg,rhinoceros,x,sounds/greatgatsby_english.wav,,,,,,,,,0,0,0,0,0,18,18,216,133.613788531,9.30088572204e-06,134.572780093,0.959001503536,,,,x,1,0.950483776629,2018_Nov_27_1533,59.9834168541,chinese_cond1,001,1059,
images/cat.jpg,black olive,x,sounds/greatgatsby_english.wav,,,,,,,,,0,0,0,0,0,19,19,133,135.702604709,9.30088572204e-06,136.973383306,1.27078885993,,,,x,1,1.25055099989,2018_Nov_27_1533,59.9834168541,chinese_cond1,001,1059,
images/plate01b.jpg,plate,z,sounds/greatgatsby_english.wav,,,,,,,,,0,0,0,0,0,20,20,3,138.072148912,9.30088572204e-06,138.840512795,0.768374466919,,,,z,1,0.750418221112,2018_Nov_27_1533,59.9834168541,chinese_cond1,001,1059,
images/egg01b (1).jpg,egg,z,sounds/greatgatsby_english.wav,,,,,,,,,0,0,0,0,0,21,21,19,139.952916451,9.62160993367e-06,140.724344188,0.771437679883,,,,z,1,0.750439709402,2018_Nov_27_1533,59.9834168541,chinese_cond1,001,1059,
images/masquerademask02b.jpg,mirror,x,sounds/greatgatsby_english.wav,,,,,,,,,0,0,0,0,0,22,22,204,141.829106649,9.62160993367e-06,142.824872481,0.995775453746,,,,x,1,0.983829853241,2018_Nov_27_1533,59.9834168541,chinese_cond1,001,1059,
images/croissant02b.jpg,croissant,z,sounds/greatgatsby_english.wav,,,,,,,,,0,0,0,0,0,23,23,39,143.936613846,8.98027792573e-06,144.65865429,0.722050386714,,,,z,1,0.700413859333,2018_Nov_27_1533,59.9834168541,chinese_cond1,001,1059,
images/daisy.jpg,daisy,z,sounds/greatgatsby_english.wav,,,,,,,,,0,0,0,0,0,24,24,6,145.760084773,9.30088572204e-06,146.64249601,0.882421179442,,,,x,0,0.867123716394,2018_Nov_27_1533,59.9834168541,chinese_cond1,001,1059,
images/floorlamp.jpg,floor lamp,z,sounds/greatgatsby_english.wav,,,,,,,,,0,0,0,0,0,25,25,26,147.734301314,9.62160993367e-06,149.00975443,1.27546305791,,,,z,1,1.26721922739,2018_Nov_27_1533,59.9834168541,chinese_cond1,001,1059,
images/lantern03.jpg,lantern,z,sounds/greatgatsby_english.wav,,,,,,,,,0,0,0,0,0,26,26,5,150.116422619,9.30088572204e-06,151.043593776,0.927181420731,,,,z,1,0.917108193506,2018_Nov_27_1533,59.9834168541,chinese_cond1,001,1059,
images/watermelon01.jpg,orange,x,sounds/greatgatsby_english.wav,,,,,,,,,0,0,0,0,0,27,27,207,152.172580347,9.30100213736e-06,153.010765665,0.838195260498,,,,x,1,0.81709594198,2018_Nov_27_1533,59.9834168541,chinese_cond1,001,1059,
images/lemon02.jpg,lemon,z,sounds/greatgatsby_english.wav,,,,,,,,,0,0,0,0,0,28,28,14,154.122375855,9.621726349e-06,155.011274009,0.888908096589,,,,z,1,0.867118584923,2018_Nov_27_1533,59.9834168541,chinese_cond1,001,1059,
images/diaper01a.jpg,camera,x,sounds/greatgatsby_english.wav,,,,,,,,,0,0,0,0,0,29,29,143,156.130821099,9.30100213736e-06,157.128483679,0.997672522673,,,,x,1,0.983821193804,2018_Nov_27_1533,59.9834168541,chinese_cond1,001,1059,
images/magnifyingglass01b.jpg,magnifying glass,z,sounds/greatgatsby_english.wav,,,,,,,,,0,0,0,0,0,30,30,64,158.23481062,8.98027792573e-06,159.529089137,1.29428781825,,,,z,1,1.28389322793,2018_Nov_27_1533,59.9834168541,chinese_cond1,001,1059,
images/hat05.jpg,hat,z,sounds/greatgatsby_english.wav,,,,,,,,,0,0,0,0,0,31,31,15,160.632791934,8.98016151041e-06,161.429570797,0.796788164531,,,,z,1,0.783764297725,2018_Nov_27_1533,59.9834168541,chinese_cond1,001,1059,
images/doll.jpg,carrot,x,sounds/greatgatsby_english.wav,,,,,,,,,0,0,0,0,0,32,32,146,162.540109777,8.98016151041e-06,163.313379419,0.773278943147,,,,x,1,0.750431049964,2018_Nov_27_1533,59.9834168541,chinese_cond1,001,1059,
images/honeycomb.jpg,honey comb,z,sounds/greatgatsby_english.wav,,,,,,,,,0,0,0,0,0,33,33,59,164.42626127,9.30088572204e-06,165.330551821,0.904300493072,,,,z,1,0.883785208804,2018_Nov_27_1533,59.9834168541,chinese_cond1,001,1059,
images/charcoalbarbecue.jpg,charcoal barbecue,z,sounds/greatgatsby_english.wav,,,,,,,,,0,0,0,0,0,34,34,77,166.446952951,8.98027792573e-06,167.664476672,1.21753302147,,,,z,1,1.20053605421,2018_Nov_27_1533,59.9834168541,chinese_cond1,001,1059,
images/dryingmachine01.jpg,drying machine,z,sounds/greatgatsby_english.wav,,,,,,,,,0,0,0,0,0,35,35,18,168.785181246,8.98016151041e-06,169.89838414,1.11321283609,,,,z,1,1.10051963339,2018_Nov_27_1533,59.9834168541,chinese_cond1,001,1059,
images/parkbench03.jpg,park bench,z,sounds/greatgatsby_english.wav,,,,,,,,,0,0,0,0,0,36,36,71,171.003373351,8.98016151041e-06,171.782206232,0.778842502506,,,,z,1,0.767089976463,2018_Nov_27_1533,59.9834168541,chinese_cond1,001,1059,
images/grasshopper.jpg,cauliflower,x,sounds/greatgatsby_english.wav,,,,,,,,,0,0,0,0,0,37,37,148,172.875030468,8.65943729877e-06,173.982741965,1.10772079765,,,,x,1,1.08383825619,2018_Nov_27_1533,59.9834168541,chinese_cond1,001,1059,
images/pouch01b.jpg,pouch,z,sounds/greatgatsby_english.wav,,,,,,,,,0,0,0,0,0,38,38,25,175.094963771,9.62160993367e-06,175.966580157,0.871625686996,,,,z,1,0.850444263662,2018_Nov_27_1533,59.9834168541,chinese_cond1,001,1059,
images/lily.jpg,kiwi,x,sounds/greatgatsby_english.wav,,,,,,,,,0,0,0,0,0,39,39,190,177.0658509,8.98016151041e-06,177.917085101,0.851243822835,,,,x,1,0.833785978612,2018_Nov_27_1533,59.9834168541,chinese_cond1,001,1059,
images/broadsword.jpg,teapot,x,sounds/greatgatsby_english.wav,,,,,,,,,0,0,0,0,0,40,40,231,179.009424407,8.98016151041e-06,179.917706019,0.908291553962,,,,x,1,0.883910610923,2018_Nov_27_1533,59.9834168541,chinese_cond1,001,1059,
images/mirror02.jpg,8 ball,x,sounds/greatgatsby_english.wav,,,,,,,,,0,0,0,0,0,41,41,121,181.020435745,8.98016151041e-06,182.284890993,1.26447737752,,,,x,1,1.25055709353,2018_Nov_27_1533,59.9834168541,chinese_cond1,001,1059,
images/apple06.jpg,apple,z,sounds/greatgatsby_english.wav,,,,,,,,,0,0,0,0,0,42,42,13,183.411704033,9.30088572204e-06,184.101979238,0.690285467892,,,,z,1,0.667070348398,2018_Nov_27_1533,59.9834168541,chinese_cond1,001,1059,
images/rhinoceros01.jpg,envelope,x,sounds/greatgatsby_english.wav,,,,,,,,,0,0,0,0,0,43,43,173,185.21359488,9.30088572204e-06,186.035792221,0.822207283694,,,,x,1,0.80043509102,2018_Nov_27_1533,59.9834168541,chinese_cond1,001,1059,
images/skateboard.jpg,key,x,sounds/greatgatsby_english.wav,,,,,,,,,0,0,0,0,0,44,44,189,187.126965062,9.30088572204e-06,187.936272277,0.809316837112,,,,x,1,0.800432525342,2018_Nov_27_1533,59.9834168541,chinese_cond1,001,1059,
images/parrot01.jpg,chameleon,x,sounds/greatgatsby_english.wav,,,,,,,,,0,0,0,0,0,45,45,150,189.049316414,9.30100213736e-06,190.120171855,1.07086506346,,,,x,1,1.0505127057,2018_Nov_27_1533,59.9834168541,chinese_cond1,001,1059,
images/ear.jpg,bullet,x,sounds/greatgatsby_english.wav,,,,,,,,,0,0,0,0,0,46,46,139,191.223450658,8.98027792573e-06,192.137332711,0.913891996373,,,,x,1,0.900457926444,2018_Nov_27_1533,59.9834168541,chinese_cond1,001,1059,
images/ceilingfan02.jpg,paper clip,x,sounds/greatgatsby_english.wav,,,,,,,,,0,0,0,0,0,47,47,208,193.235341735,9.30088572204e-06,194.137835924,0.902503810124,,,,x,1,0.883782643126,2018_Nov_27_1533,59.9834168541,chinese_cond1,001,1059,
images/antelope.jpg,antelope,z,sounds/greatgatsby_english.wav,,,,,,,,,0,0,0,0,0,48,48,12,195.24280076,9.30088572204e-06,195.954964579,0.712173761916,,,,x,0,0.700392050203,2018_Nov_27_1533,59.9834168541,chinese_cond1,001,1059,
images/hairdryer03a.jpg,hairdryer,z,sounds/greatgatsby_english.wav,,,,,,,,,0,0,0,0,0,49,49,119,197.053753598,8.98016151041e-06,197.955479338,0.901735360967,,,,z,1,0.883782322286,2018_Nov_27_1533,59.9834168541,chinese_cond1,001,1059,
images/treadmill.jpg,lily,x,sounds/greatgatsby_english.wav,,,,,,,,,0,0,0,0,0,50,50,199,199.060967271,3.07892914861e-05,199.789275259,0.72832402389,,,,x,1,0.717079841765,2018_Nov_27_1533,59.9834168541,chinese_cond1,001,1059,
images/tank.jpg,wallet,x,sounds/greatgatsby_english.wav,,,,,,,,,0,0,0,0,0,51,51,237,200.893909751,9.30100213736e-06,201.639737483,0.745837673778,,,,x,1,0.733751917956,2018_Nov_27_1533,59.9834168541,chinese_cond1,001,1059,
images/lightbulb03b.jpg,treadmill,x,sounds/greatgatsby_english.wav,,,,,,,,,0,0,0,0,0,52,52,234,202.74180075,9.621726349e-06,203.990339542,1.24854873435,,,,x,1,1.23387828225,2018_Nov_27_1533,59.9834168541,chinese_cond1,001,1059,
images/diploma01.jpg,glasses,x,sounds/greatgatsby_english.wav,,,,,,,,,0,0,0,0,0,53,53,179,205.12099611,8.65943729877e-06,206.157554215,1.03656772617,,,,x,1,1.01715636591,2018_Nov_27_1533,59.9834168541,chinese_cond1,001,1059,
images/aloe02.jpg,broad sword,x,sounds/greatgatsby_english.wav,,,,,,,,,0,0,0,0,0,54,54,137,207.279870416,8.33882950246e-06,208.258084753,0.978223638027,,,,x,1,0.967130195,2018_Nov_27_1533,59.9834168541,chinese_cond1,001,1059,
images/electrictoothbrush01a.jpg,banjo,x,sounds/greatgatsby_english.wav,,,,,,,,,0,0,0,0,0,55,55,127,209.353016772,8.6595537141e-06,210.425302633,1.07229548215,,,,x,1,1.05050404614,2018_Nov_27_1533,59.9834168541,chinese_cond1,001,1059,
images/gamecontroller01.jpg,game controller,z,sounds/greatgatsby_english.wav,,,,,,,,,0,0,0,0,0,56,56,112,211.546489573,9.30088572204e-06,212.642526799,1.09604684846,,,,z,1,1.08384082187,2018_Nov_27_1533,59.9834168541,chinese_cond1,001,1059,
images/stapler03a.jpg,candy cane,x,sounds/greatgatsby_english.wav,,,,,,,,,0,0,0,0,0,57,57,145,213.753713637,9.30088572204e-06,214.543016477,0.789312783163,,,,x,1,0.767101843259,2018_Nov_27_1533,59.9834168541,chinese_cond1,001,1059,
images/aquarium.jpg,computer mouse,x,sounds/greatgatsby_english.wav,,,,,,,,,0,0,0,0,0,58,58,159,215.679140389,8.98016151041e-06,216.626872694,0.947742247488,,,,x,1,0.933793419274,2018_Nov_27_1533,59.9834168541,chinese_cond1,001,1059,
images/bicycle.jpg,hand bag,x,sounds/greatgatsby_english.wav,,,,,,,,,0,0,0,0,0,59,59,186,217.736475166,8.98027792573e-06,218.710731156,0.974265932222,,,,x,1,0.950477362145,2018_Nov_27_1533,59.9834168541,chinese_cond1,001,1059,
images/marker01a.jpg,marker,z,sounds/greatgatsby_english.wav,,,,,,,,,0,0,0,0,0,60,60,95,219.808680846,8.65943729877e-06,220.677907535,0.869235989521,,,,z,1,0.850461582653,2018_Nov_27_1533,59.9834168541,chinese_cond1,001,1059,
images/pepper05a.jpg,lighter,x,sounds/greatgatsby_english.wav,,,,,,,,,0,0,0,0,0,61,61,198,221.798781129,9.30100213736e-06,222.445009378,0.646237870329,,,,x,1,0.633723630221,2018_Nov_27_1533,59.9834168541,chinese_cond1,001,1059,
images/squirrel.jpg,binder,x,sounds/greatgatsby_english.wav,,,,,,,,,0,0,0,0,0,62,62,132,223.548165023,9.94233414531e-06,224.26213643,0.713981670095,,,,x,1,0.7004068034,2018_Nov_27_1533,59.9834168541,chinese_cond1,001,1059,
images/eyedrops.jpg,bicycle,x,sounds/greatgatsby_english.wav,,,,,,,,,0,0,0,0,0,63,63,131,225.362930922,8.98027792573e-06,226.029242763,0.666321463301,,,,x,1,0.650389292045,2018_Nov_27_1533,59.9834168541,chinese_cond1,001,1059,
images/printer03a.jpg,printer,z,sounds/greatgatsby_english.wav,,,,,,,,,0,0,0,0,0,64,64,72,227.138441767,8.98016151041e-06,227.846369815,0.707937669707,,,,z,1,0.683732161415,2018_Nov_27_1533,59.9834168541,chinese_cond1,001,1059,
images/sportshorts02.jpg,tape,x,sounds/greatgatsby_english.wav,,,,,,,,,0,0,0,0,0,65,65,230,228.953561422,9.62160993367e-06,229.646827357,0.693275877042,,,,x,1,0.683728312724,2018_Nov_27_1533,59.9834168541,chinese_cond1,001,1059,
images/coin01b.jpg,arrow,x,sounds/greatgatsby_english.wav,,,,,,,,,0,0,0,0,0,66,66,124,230.749197554,9.62160993367e-06,231.380615837,0.631428545807,,,,x,1,0.617068231571,2018_Nov_27_1533,59.9834168541,chinese_cond1,001,1059,
images/swan.jpg,swan,z,sounds/greatgatsby_english.wav,,,,,,,,,0,0,0,0,0,67,67,54,232.472762389,8.98016151041e-06,233.497811716,1.02505959,,,,z,1,1.01714321633,2018_Nov_27_1533,59.9834168541,chinese_cond1,001,1059,
images/razor04a.jpg,razor,z,sounds/greatgatsby_english.wav,,,,,,,,,0,0,0,0,0,68,68,36,234.598027305,9.62160993367e-06,235.331615013,0.733597330051,,,,x,0,0.717089784215,2018_Nov_27_1533,59.9834168541,chinese_cond1,001,1059,
images/flashlight05.jpg,flash light,z,sounds/greatgatsby_english.wav,,,,,,,,,0,0,0,0,0,69,69,8,236.434865913,8.65943729877e-06,237.182079482,0.747222870821,,,,z,1,0.733764426084,2018_Nov_27_1533,59.9834168541,chinese_cond1,001,1059,
images/blackolive.jpg,tank,x,sounds/greatgatsby_english.wav,,,,,,,,,0,0,0,0,0,70,70,229,238.296934734,9.30088572204e-06,238.932499949,0.635575156542,,,,x,1,0.617040008074,2018_Nov_27_1533,59.9834168541,chinese_cond1,001,1059,
images/lychee02a.jpg,lychee,z,sounds/greatgatsby_english.wav,,,,,,,,,0,0,0,0,0,71,71,62,240.055985501,9.30088572204e-06,240.816319154,0.760343916249,,,,z,1,0.750420145458,2018_Nov_27_1533,59.9834168541,chinese_cond1,001,1059,
images/ladder.jpg,ladder,z,sounds/greatgatsby_english.wav,,,,,,,,,0,0,0,0,0,72,72,113,241.908438444,8.98027792573e-06,242.716805625,0.808377122506,,,,z,1,0.800437656813,2018_Nov_27_1533,59.9834168541,chinese_cond1,001,1059,
images/baseball01a.jpg,baseball,z,sounds/greatgatsby_english.wav,,,,,,,,,0,0,0,0,0,73,73,74,243.84901609,8.98027792573e-06,244.767334366,0.918327898136,,,,z,1,0.900470755296,2018_Nov_27_1533,59.9834168541,chinese_cond1,001,1059,
images/spoon02b.jpg,spoon,z,sounds/greatgatsby_english.wav,,,,,,,,,0,0,0,0,0,74,74,38,245.858371221,8.98016151041e-06,246.534424343,0.676062743412,,,,z,1,0.667055274476,2018_Nov_27_1533,59.9834168541,chinese_cond1,001,1059,
images/lock02a.jpg,lock,z,sounds/greatgatsby_english.wav,,,,,,,,,0,0,0,0,0,75,75,65,247.645017203,9.62160993367e-06,248.534945195,0.889938254608,,,,z,1,0.867123716511,2018_Nov_27_1533,59.9834168541,chinese_cond1,001,1059,
images/pingpongpaddle01c (1).jpg,ping pong paddle,z,sounds/greatgatsby_english.wav,,,,,,,,,0,0,0,0,0,76,76,10,249.646269942,9.30088572204e-06,250.318730019,0.672470660298,,,,z,1,0.650401479448,2018_Nov_27_1533,59.9834168541,chinese_cond1,001,1059,
images/envelope02a.jpg,grand piano,x,sounds/greatgatsby_english.wav,,,,,,,,,0,0,0,0,0,77,77,182,251.441449688,8.98027792573e-06,252.619314887,1.1778761039,,,,z,0,1.16719831631,2018_Nov_27_1533,59.9834168541,chinese_cond1,001,1059,
images/straw.jpg,straw,z,sounds/greatgatsby_english.wav,,,,,,,,,0,0,0,0,0,78,78,109,253.711114418,8.98016151041e-06,254.636495949,0.925391152152,,,,z,1,0.917141869315,2018_Nov_27_1533,59.9834168541,chinese_cond1,001,1059,
images/puzzle.jpg,puzzle,z,sounds/greatgatsby_english.wav,,,,,,,,,0,0,0,0,0,79,79,57,255.756731307,9.621726349e-06,256.470368522,0.713663514238,,,,z,1,0.700403916882,2018_Nov_27_1533,59.9834168541,chinese_cond1,001,1059,
images/weight01.jpg,weight,z,sounds/greatgatsby_english.wav,,,,,,,,,0,0,0,0,0,80,80,67,257.575122965,9.30088572204e-06,258.187427517,0.612313853111,,,,z,1,0.600425341167,2018_Nov_27_1533,59.9834168541,chinese_cond1,001,1059,
images/tent.jpg,tent,z,sounds/greatgatsby_english.wav,,,,,,,,,0,0,0,0,0,81,81,11,259.313772624,8.6595537141e-06,260.371272893,1.05750989111,,,,z,1,1.03382715932,2018_Nov_27_1533,59.9834168541,chinese_cond1,001,1059,
images/umbrella01.jpg,umbrella,z,sounds/greatgatsby_english.wav,,,,,,,,,0,0,0,0,0,82,82,53,261.485871888,8.98016151041e-06,262.805224428,1.31936248217,,,,z,1,1.30056851124,2018_Nov_27_1533,59.9834168541,chinese_cond1,001,1059,
images/raisin.jpg,ruler,x,sounds/greatgatsby_english.wav,,,,,,,,,0,0,0,0,0,83,83,218,263.910081502,9.62160993367e-06,264.989115668,1.07904442889,,,,x,1,1.06717708451,2018_Nov_27_1533,59.9834168541,chinese_cond1,001,1059,
images/50dollarbill.jpg,cherry,x,sounds/greatgatsby_english.wav,,,,,,,,,0,0,0,0,0,84,84,151,266.11130807,8.98016151041e-06,267.106327903,0.995029455051,,,,x,1,0.983835305553,2018_Nov_27_1533,59.9834168541,chinese_cond1,001,1059,
images/cupcake.jpg,scissors,x,sounds/greatgatsby_english.wav,,,,,,,,,0,0,0,0,0,85,85,219,268.224981142,9.30100213736e-06,269.473574135,1.24860261555,,,,x,1,1.23385711457,2018_Nov_27_1533,59.9834168541,chinese_cond1,001,1059,
images/belt02a.jpg,snowman,x,sounds/greatgatsby_english.wav,,,,,,,,,0,0,0,0,0,86,86,224,270.57654312,9.62160993367e-06,271.357385323,0.780852465425,,,,x,1,0.767092542374,2018_Nov_27_1533,59.9834168541,chinese_cond1,001,1059,
images/bottleofredwine02.jpg,pipe,x,sounds/greatgatsby_english.wav,,,,,,,,,0,0,0,0,0,87,87,213,272.455881202,8.65943729877e-06,273.474596596,1.01872533641,,,,x,1,1.0004919871,2018_Nov_27_1533,59.9834168541,chinese_cond1,001,1059,
images/bat.jpg,hand,x,sounds/greatgatsby_english.wav,,,,,,,,,0,0,0,0,0,88,88,185,274.57290325,9.30100213736e-06,275.44174828,0.868854651577,,,,x,1,0.850428548292,2018_Nov_27_1533,59.9834168541,chinese_cond1,001,1059,
images/pineapple01a.jpg,pineapple,z,sounds/greatgatsby_english.wav,,,,,,,,,0,0,0,0,0,89,89,51,276.554633017,8.98016151041e-06,276.79209312,0.23746940319,,,,x,0,0.216953798081,2018_Nov_27_1533,59.9834168541,chinese_cond1,001,1059,
images/key03b.jpg,cigar,x,sounds/greatgatsby_english.wav,,,,,,,,,0,0,0,0,0,90,90,153,277.893805196,8.98027792573e-06,278.959321584,1.06552568858,,,,x,1,1.05050372554,2018_Nov_27_1533,59.9834168541,chinese_cond1,001,1059,
images/dragonfly02.jpg,dragon fly,z,sounds/greatgatsby_english.wav,,,,,,,,,0,0,0,0,0,91,91,29,280.056969796,9.62160993367e-06,280.793118467,0.736158292857,,,,x,0,0.717087859754,2018_Nov_27_1533,59.9834168541,chinese_cond1,001,1059,
images/battery03b.jpg,battery,z,sounds/greatgatsby_english.wav,,,,,,,,,0,0,0,0,0,92,92,34,281.902786045,8.98027792573e-06,282.693586336,0.790809912141,,,,z,1,0.767088372959,2018_Nov_27_1533,59.9834168541,chinese_cond1,001,1059,
images/banjo.jpg,knife,x,sounds/greatgatsby_english.wav,,,,,,,,,0,0,0,0,0,93,93,191,283.790174562,9.621726349e-06,284.510734876,0.720569935278,,,,x,1,0.700432781829,2018_Nov_27_1533,59.9834168541,chinese_cond1,001,1059,
images/cigar.jpg,crocodile,x,sounds/greatgatsby_english.wav,,,,,,,,,0,0,0,0,0,94,94,162,285.609238453,9.30088572204e-06,286.477884956,0.868657086859,,,,x,1,0.850448433077,2018_Nov_27_1533,59.9834168541,chinese_cond1,001,1059,
images/crocodile.jpg,triangle ruler,x,sounds/greatgatsby_english.wav,,,,,,,,,0,0,0,0,0,95,95,235,287.575495964,9.30088572204e-06,288.745124709,1.16963836702,,,,x,1,1.15052752302,2018_Nov_27_1533,59.9834168541,chinese_cond1,001,1059,
images/showerhead01.jpg,skateboard,x,sounds/greatgatsby_english.wav,,,,,,,,,0,0,0,0,0,96,96,223,289.852719463,8.98027792573e-06,290.645608614,0.792899093241,,,,x,1,0.783774560783,2018_Nov_27_1533,59.9834168541,chinese_cond1,001,1059,
images/calculator02b.jpg,dice,x,sounds/greatgatsby_english.wav,,,,,,,,,0,0,0,0,0,97,97,165,291.747626339,9.30100213736e-06,292.379385549,0.631768831518,,,,x,1,0.617070476641,2018_Nov_27_1533,59.9834168541,chinese_cond1,001,1059,
images/pictureframe04.jpg,picture frame,z,sounds/greatgatsby_english.wav,,,,,,,,,0,0,0,0,0,98,98,41,293.50075979,9.94233414531e-06,294.446555898,0.945806371281,,,,z,1,0.933792136377,2018_Nov_27_1533,59.9834168541,chinese_cond1,001,1059,
images/tissuebox03.jpg,tissue box,z,sounds/greatgatsby_english.wav,,,,,,,,,0,0,0,0,0,99,99,58,295.572237432,9.30088572204e-06,296.447065845,0.874838035554,,,,z,1,0.850444263779,2018_Nov_27_1533,59.9834168541,chinese_cond1,001,1059,
images/dresser02.jpg,dresser,z,sounds/greatgatsby_english.wav,,,,,,,,,0,0,0,0,0,100,100,87,297.569480508,8.6595537141e-06,298.430901151,0.861429944169,,,,z,1,0.850442980882,2018_Nov_27_1533,59.9834168541,chinese_cond1,001,1059,
images/banana04a.jpg,banana,z,sounds/greatgatsby_english.wav,,,,,,,,,0,0,0,0,0,101,101,118,299.538373389,8.98027792573e-06,300.098006458,0.559642369626,,,,z,1,0.550379606197,2018_Nov_27_1533,59.9834168541,chinese_cond1,001,1059,
images/wallet01.jpg,lamp,x,sounds/greatgatsby_english.wav,,,,,,,,,0,0,0,0,0,102,102,193,301.203561101,9.62160993367e-06,302.048480613,0.844929454033,,,,x,1,0.833777319058,2018_Nov_27_1533,59.9834168541,chinese_cond1,001,1059,
images/ant.jpg,ant,z,sounds/greatgatsby_english.wav,,,,,,,,,0,0,0,0,0,103,103,98,303.143552788,8.98027792573e-06,303.848940079,0.70539691241,,,,z,1,0.68373665167,2018_Nov_27_1533,59.9834168541,chinese_cond1,001,1059,
images/bowl02b (1).jpg,bowl,z,sounds/greatgatsby_english.wav,,,,,,,,,0,0,0,0,0,104,104,24,304.966820378,8.98027792573e-06,305.599383958,0.632573522278,,,,z,1,0.617050271248,2018_Nov_27_1533,59.9834168541,chinese_cond1,001,1059,
images/ladybug03.jpg,giraffe,x,sounds/greatgatsby_english.wav,,,,,,,,,0,0,0,0,0,105,105,178,306.702342359,9.30088572204e-06,307.499855996,0.79752325872,,,,x,1,0.783755959012,2018_Nov_27_1533,59.9834168541,chinese_cond1,001,1059,
images/leaf01a.jpg,leaf,z,sounds/greatgatsby_english.wav,,,,,,,,,0,0,0,0,0,106,106,68,308.602886239,9.30088572204e-06,309.216964382,0.614087764872,,,,z,1,0.600379798678,2018_Nov_27_1533,59.9834168541,chinese_cond1,001,1059,
images/plant01.jpg,plant,z,sounds/greatgatsby_english.wav,,,,,,,,,0,0,0,0,0,107,107,47,310.329281442,8.98027792573e-06,310.984083223,0.654812044348,,,,z,1,0.633733893279,2018_Nov_27_1533,59.9834168541,chinese_cond1,001,1059,
images/lightswitch02a.jpg,fork,x,sounds/greatgatsby_english.wav,,,,,,,,,0,0,0,0,0,108,108,177,312.096157818,9.621726349e-06,312.784549424,0.688401869498,,,,x,1,0.667079328676,2018_Nov_27_1533,59.9834168541,chinese_cond1,001,1059,
images/ashtray02b.jpg,ashtray,z,sounds/greatgatsby_english.wav,,,,,,,,,0,0,0,0,0,109,109,43,313.899770299,8.65943729877e-06,314.718359842,0.818599485327,,,,x,0,0.800428355928,2018_Nov_27_1533,59.9834168541,chinese_cond1,001,1059,
images/basketball01.jpg,basket ball,z,sounds/greatgatsby_english.wav,,,,,,,,,0,0,0,0,0,110,110,33,315.857498217,9.30088572204e-06,316.402131773,0.544643498608,,,,z,1,0.533716831007,2018_Nov_27_1533,59.9834168541,chinese_cond1,001,1059,
images/bed.jpg,bed,z,sounds/greatgatsby_english.wav,,,,,,,,,0,0,0,0,0,111,111,103,317.521915235,8.98016151041e-06,318.102547557,0.580641943729,,,,z,1,0.567035646294,2018_Nov_27_1533,59.9834168541,chinese_cond1,001,1059,
images/lip.jpg,boxing glove,x,sounds/greatgatsby_english.wav,,,,,,,,,0,0,0,0,0,112,112,136,319.20570705,9.621726349e-06,320.03659595,0.830898521119,,,,x,1,0.817330710241,2018_Nov_27_1533,59.9834168541,chinese_cond1,001,1059,
images/handbag02a.jpg,candle,x,sounds/greatgatsby_english.wav,,,,,,,,,0,0,0,0,0,113,113,144,321.15244608,8.98027792573e-06,321.85348695,0.701050491887,,,,x,1,0.683731840807,2018_Nov_27_1533,59.9834168541,chinese_cond1,001,1059,
images/cola.jpg,comb,x,sounds/greatgatsby_english.wav,,,,,,,,,0,0,0,0,0,114,114,157,322.974631876,8.98016151041e-06,323.837335406,0.862713472336,,,,z,0,0.850424699718,2018_Nov_27_1533,59.9834168541,chinese_cond1,001,1059,
images/arrow02.jpg,hammer,x,sounds/greatgatsby_english.wav,,,,,,,,,0,0,0,0,0,115,115,184,324.935904089,9.30100213736e-06,326.337986791,1.40209232422,,,,z,0,1.38393530657,2018_Nov_27_1533,59.9834168541,chinese_cond1,001,1059,
images/dolphin01.jpg,dolphin,z,sounds/greatgatsby_english.wav,,,,,,,,,0,0,0,0,0,116,116,99,327.438430093,8.98027792573e-06,328.138417713,0.699997562566,,,,x,0,0.683738575899,2018_Nov_27_1533,59.9834168541,chinese_cond1,001,1059,
images/hand01a.jpg,cupcake,x,sounds/greatgatsby_english.wav,,,,,,,,,0,0,0,0,0,117,117,163,329.250365302,8.98027792573e-06,330.088921695,0.8385663355,,,,x,1,0.81711743027,2018_Nov_27_1533,59.9834168541,chinese_cond1,001,1059,
images/bull.jpg,button,x,sounds/greatgatsby_english.wav,,,,,,,,,0,0,0,0,0,118,118,141,331.194857356,9.30088572204e-06,332.639561727,1.44471463468,,,,x,1,1.43387071323,2018_Nov_27_1533,59.9834168541,chinese_cond1,001,1059,
images/flipflop01b.jpg,flip flop,z,sounds/greatgatsby_english.wav,,,,,,,,,0,0,0,0,0,119,119,27,333.756742853,9.30100213736e-06,334.823440779,1.06670786871,,,,x,0,1.0504966696,2018_Nov_27_1533,59.9834168541,chinese_cond1,001,1059,
images/hairband.jpg,hairband,z,sounds/greatgatsby_english.wav,,,,,,,,,0,0,0,0,0,120,120,66,335.933378405,8.98016151041e-06,336.990673092,1.0573043084,,,,z,1,1.03383966733,2018_Nov_27_1533,59.9834168541,chinese_cond1,001,1059,
images/apricot.jpg,apricot,z,sounds/greatgatsby_english.wav,,,,,,,,,0,0,0,0,0,121,121,32,338.107586415,8.98016151041e-06,339.057848894,0.950272421003,,,,x,0,0.933773855329,2018_Nov_27_1533,59.9834168541,chinese_cond1,001,1059,
images/glasses01b.jpg,calculator,x,sounds/greatgatsby_english.wav,,,,,,,,,0,0,0,0,0,122,122,142,340.150734068,8.98027792573e-06,341.141708959,0.990984513075,,,,x,1,0.967140778783,2018_Nov_27_1533,59.9834168541,chinese_cond1,001,1059,
images/birthdaycandle.jpg,birthday candle,z,sounds/greatgatsby_english.wav,,,,,,,,,0,0,0,0,0,123,123,55,342.238837602,8.98027792573e-06,343.375631501,1.13680352084,,,,z,1,1.1172055006,2018_Nov_27_1533,59.9834168541,chinese_cond1,001,1059,
images/snowman.jpg,globe,x,sounds/greatgatsby_english.wav,,,,,,,,,0,0,0,0,0,124,124,180,344.487371583,8.98016151041e-06,345.476164605,0.988802001812,,,,x,1,0.967163229361,2018_Nov_27_1533,59.9834168541,chinese_cond1,001,1059,
images/lettuce.jpg,mushroom,x,sounds/greatgatsby_english.wav,,,,,,,,,0,0,0,0,0,125,125,205,346.599588899,9.30088572204e-06,347.593341882,0.99376260431,,,,x,1,0.983811892918,2018_Nov_27_1533,59.9834168541,chinese_cond1,001,1059,
images/highheelshoe02a.jpg,high heel shoe,z,sounds/greatgatsby_english.wav,,,,,,,,,0,0,0,0,0,126,126,75,348.700322133,8.98016151041e-06,349.377144345,0.676832154742,,,,z,1,0.667083818698,2018_Nov_27_1533,59.9834168541,chinese_cond1,001,1059,
images/seagull.jpg,seagull,z,sounds/greatgatsby_english.wav,,,,,,,,,0,0,0,0,0,127,127,50,350.48428175,9.30088572204e-06,351.494573068,1.010301581,,,,z,1,1.00072066172,2018_Nov_27_1533,59.9834168541,chinese_cond1,001,1059,
images/corkscrew02a.jpg,masquerade mask,x,sounds/greatgatsby_english.wav,,,,,,,,,0,0,0,0,0,128,128,201,352.59883392,8.98027792573e-06,353.761571318,1.1627470199,,,,x,1,1.15052367444,2018_Nov_27_1533,59.9834168541,chinese_cond1,001,1059,
images/camera01a.jpg,bull,x,sounds/greatgatsby_english.wav,,,,,,,,,0,0,0,0,0,129,129,138,354.872131465,9.30088572204e-06,355.645395976,0.773274453124,,,,x,1,0.750434577814,2018_Nov_27_1533,59.9834168541,chinese_cond1,001,1059,
images/candle08a.jpg,screw driver,x,sounds/greatgatsby_english.wav,,,,,,,,,0,0,0,0,0,130,130,221,356.75917232,9.62160993367e-06,357.895951787,1.13678940898,,,,z,0,1.11717952206,2018_Nov_27_1533,59.9834168541,chinese_cond1,001,1059,
images/lighter02b.jpg,stapler,x,sounds/greatgatsby_english.wav,,,,,,,,,0,0,0,0,0,131,131,227,358.997612227,8.98027792573e-06,359.91315594,0.9155539762,,,,x,1,0.900485508493,2018_Nov_27_1533,59.9834168541,chinese_cond1,001,1059,
images/cake.jpg,cake,z,sounds/greatgatsby_english.wav,,,,,,,,,0,0,0,0,0,132,132,23,361.026917531,8.65943729877e-06,361.896961418,0.87005318841,,,,z,1,0.85044939525,2018_Nov_27_1533,59.9834168541,chinese_cond1,001,1059,
images/nametag01a.jpg,name tag,z,sounds/greatgatsby_english.wav,,,,,,,,,0,0,0,0,0,133,133,108,363.018623988,9.621726349e-06,364.064323944,1.04571021907,,,,z,1,1.03397308756,2018_Nov_27_1533,59.9834168541,chinese_cond1,001,1059,
images/candycane01a.jpg,lip,x,sounds/greatgatsby_english.wav,,,,,,,,,0,0,0,0,0,134,134,200,365.158232862,8.98016151041e-06,366.281417577,1.12319433677,,,,x,1,1.10052027472,2018_Nov_27_1533,59.9834168541,chinese_cond1,001,1059,
images/cauliflower01.jpg,glue stick,x,sounds/greatgatsby_english.wav,,,,,,,,,0,0,0,0,0,135,135,181,367.397618898,9.30088572204e-06,368.531971463,1.13436250784,,,,x,1,1.11716669321,2018_Nov_27_1533,59.9834168541,chinese_cond1,001,1059,
images/mitten01.jpg,mitten,z,sounds/greatgatsby_english.wav,,,,,,,,,0,0,0,0,0,136,136,102,369.651976544,8.98016151041e-06,371.049275682,1.39730811864,,,,x,0,1.38390996947,2018_Nov_27_1533,59.9834168541,chinese_cond1,001,1059,
images/nailpolish02b.jpg,nail polish,z,sounds/greatgatsby_english.wav,,,,,,,,,0,0,0,0,0,137,137,94,372.158248577,9.30088572204e-06,373.0998118,0.941572524142,,,,z,1,0.917145397281,2018_Nov_27_1533,59.9834168541,chinese_cond1,001,1059,
images/toucan.jpg,toucan,z,sounds/greatgatsby_english.wav,,,,,,,,,0,0,0,0,0,138,138,81,374.200459402,9.30100213736e-06,375.116973619,0.916524159373,,,,x,0,0.900460171513,2018_Nov_27_1533,59.9834168541,chinese_cond1,001,1059,
images/peach01.jpg,peach,z,sounds/greatgatsby_english.wav,,,,,,,,,0,0,0,0,0,139,139,106,376.245448318,9.62160993367e-06,377.00077326,0.755335205467,,,,z,1,0.733741654782,2018_Nov_27_1533,59.9834168541,chinese_cond1,001,1059,
images/rubberglove02a.jpg,lady bug,x,sounds/greatgatsby_english.wav,,,,,,,,,0,0,0,0,0,140,140,192,378.10561109,8.98016151041e-06,379.48475706,1.37915527029,,,,x,1,1.36725457094,2018_Nov_27_1533,59.9834168541,chinese_cond1,001,1059,
images/fireextinguisher02.jpg,fire extinguisher,z,sounds/greatgatsby_english.wav,,,,,,,,,0,0,0,0,0,141,141,175,380.595481095,9.30088572204e-06,381.468423986,0.872952833422,,,,z,1,0.850287751528,2018_Nov_27_1533,59.9834168541,chinese_cond1,001,1059,
images/candy.jpg,candy,z,sounds/greatgatsby_english.wav,,,,,,,,,0,0,0,0,0,142,142,31,382.57073453,9.62160993367e-06,383.169012318,0.598288051668,,,,z,1,0.583706760313,2018_Nov_27_1533,59.9834168541,chinese_cond1,001,1059,
images/binder03b.jpg,dj mixer,x,sounds/greatgatsby_english.wav,,,,,,,,,0,0,0,0,0,143,143,167,384.281634706,8.98027792573e-06,385.769675956,1.48805087165,,,,z,0,1.46727451985,2018_Nov_27_1533,59.9834168541,chinese_cond1,001,1059,
images/sock03.jpg,sock,z,sounds/greatgatsby_english.wav,,,,,,,,,0,0,0,0,0,144,144,90,386.875514117,8.98027792573e-06,387.670162426,0.794658251805,,,,z,1,0.783774240175,2018_Nov_27_1533,59.9834168541,chinese_cond1,001,1059,
images/sunglasses03a.jpg,sun glasses,z,sounds/greatgatsby_english.wav,,,,,,,,,0,0,0,0,0,145,145,17,388.779070215,9.30088572204e-06,389.453934101,0.674873507349,,,,z,1,0.650393782067,2018_Nov_27_1533,59.9834168541,chinese_cond1,001,1059,
images/electricguitar02.jpg,electric guitar,z,sounds/greatgatsby_english.wav,,,,,,,,,0,0,0,0,0,146,146,100,390.556269019,9.30088572204e-06,391.371094892,0.814835495432,,,,z,1,0.800434449688,2018_Nov_27_1533,59.9834168541,chinese_cond1,001,1059,
images/blueberry02.jpg,blueberry,z,sounds/greatgatsby_english.wav,,,,,,,,,0,0,0,0,0,147,147,46,392.483741655,9.30100213736e-06,393.154882282,0.67115056992,,,,z,1,0.650405328139,2018_Nov_27_1533,59.9834168541,chinese_cond1,001,1059,
images/gluestick.jpg,squirrel,x,sounds/greatgatsby_english.wav,,,,,,,,,0,0,0,0,0,148,148,226,394.262590251,9.30100213736e-06,395.322095672,1.05951504316,,,,z,0,1.05049442465,2018_Nov_27_1533,59.9834168541,chinese_cond1,001,1059,
images/handfan01b.jpg,handfan,z,sounds/greatgatsby_english.wav,,,,,,,,,0,0,0,0,0,149,149,69,396.43660679,8.98016151041e-06,397.422618834,0.986021665391,,,,z,1,0.967139496002,2018_Nov_27_1533,59.9834168541,chinese_cond1,001,1059,
images/ruler02b.jpg,watermelon,x,sounds/greatgatsby_english.wav,,,,,,,,,0,0,0,0,0,150,150,238,398.525519184,8.65943729877e-06,399.439804065,0.914294181275,,,,x,1,0.900467548054,2018_Nov_27_1533,59.9834168541,chinese_cond1,001,1059,
images/bracelet02a.jpg,chess knight,x,sounds/greatgatsby_english.wav,,,,,,,,,0,0,0,0,0,151,151,152,400.548598639,9.30088572204e-06,401.573669454,1.02508075768,,,,x,1,1.01715925243,2018_Nov_27_1533,59.9834168541,chinese_cond1,001,1059,
images/eraser.jpg,eraser,z,sounds/greatgatsby_english.wav,,,,,,,,,0,0,0,0,0,152,152,110,402.680895699,9.30088572204e-06,403.557499307,0.876612909487,,,,z,1,0.867103511002,2018_Nov_27_1533,59.9834168541,chinese_cond1,001,1059,
images/mattress.jpg,cat,x,sounds/greatgatsby_english.wav,,,,,,,,,0,0,0,0,0,153,153,147,404.663067421,8.65943729877e-06,405.40798302,0.744924899773,,,,x,1,0.73376410536,2018_Nov_27_1533,59.9834168541,chinese_cond1,001,1059,
images/bowtie.jpg,bowtie,z,sounds/greatgatsby_english.wav,,,,,,,,,0,0,0,0,0,154,154,89,406.518697754,9.621726349e-06,407.658546848,1.13985903643,,,,x,0,1.11718850222,2018_Nov_27_1533,59.9834168541,chinese_cond1,001,1059,
images/radish01.jpg,raisin,x,sounds/greatgatsby_english.wav,,,,,,,,,0,0,0,0,0,155,155,214,408.769507897,8.98016151041e-06,409.609038964,0.839541008812,,,,x,1,0.8171017149,2018_Nov_27_1533,59.9834168541,chinese_cond1,001,1059,
images/elbow.jpg,elbow,z,sounds/greatgatsby_english.wav,,,,,,,,,0,0,0,0,0,156,156,105,410.720744408,9.30100213736e-06,412.243040339,1.5223061943,,,,x,0,1.50060969195,2018_Nov_27_1533,59.9834168541,chinese_cond1,001,1059,
images/scooter.jpg,pen,x,sounds/greatgatsby_english.wav,,,,,,,,,0,0,0,0,0,157,157,212,413.33581294,8.98016151041e-06,414.593630852,1.25782721315,,,,x,1,1.23387764092,2018_Nov_27_1533,59.9834168541,chinese_cond1,001,1059,
images/cactus.jpg,cactus,z,sounds/greatgatsby_english.wav,,,,,,,,,0,0,0,0,0,158,158,70,415.705356822,8.65943729877e-06,416.661070607,0.955723407096,,,,x,0,0.934051279561,2018_Nov_27_1533,59.9834168541,chinese_cond1,001,1059,
images/desktopcomputer.jpg,desktop computer,z,sounds/greatgatsby_english.wav,,,,,,,,,0,0,0,0,0,159,159,16,417.797557897,8.98016151041e-06,418.494620214,0.697072259849,,,,z,1,0.683713880368,2018_Nov_27_1533,59.9834168541,chinese_cond1,001,1059,
images/carrot02.jpg,corkscrew,x,sounds/greatgatsby_english.wav,,,,,,,,,0,0,0,0,0,160,160,161,419.596832296,9.62160993367e-06,420.411775233,0.814953200286,,,,x,1,0.800420337822,2018_Nov_27_1533,59.9834168541,chinese_cond1,001,1059,
images/globe.jpg,cloud,x,sounds/greatgatsby_english.wav,,,,,,,,,0,0,0,0,0,161,161,154,421.539787131,8.98027792573e-06,422.36226799,0.82249112241,,,,x,1,0.800437656813,2018_Nov_27_1533,59.9834168541,chinese_cond1,001,1059,
images/beermug01b.jpg,beer mug,z,sounds/greatgatsby_english.wav,,,,,,,,,0,0,0,0,0,162,162,111,423.479220762,9.30100213736e-06,424.396112789,0.916901328019,,,,x,0,0.900458888616,2018_Nov_27_1533,59.9834168541,chinese_cond1,001,1059,
images/bandaid01.jpg,door handle,x,sounds/greatgatsby_english.wav,,,,,,,,,0,0,0,0,0,163,163,170,425.503722296,8.98016151041e-06,426.146555064,0.642842389643,,,,z,0,0.6337284412,2018_Nov_27_1533,59.9834168541,chinese_cond1,001,1059,
images/ostrich.jpg,ostrich,z,sounds/greatgatsby_english.wav,,,,,,,,,0,0,0,0,0,164,164,76,427.246901828,8.98027792573e-06,427.94700587,0.700113663799,,,,x,0,0.683730878634,2018_Nov_27_1533,59.9834168541,chinese_cond1,001,1059,
images/hanger02a.jpg,hanger,z,sounds/greatgatsby_english.wav,,,,,,,,,0,0,0,0,0,165,165,88,429.040966745,9.30088572204e-06,430.180919753,1.13996295026,,,,z,1,1.11719203019,2018_Nov_27_1533,59.9834168541,chinese_cond1,001,1059,
images/grandpiano.jpg,tulip,x,sounds/greatgatsby_english.wav,,,,,,,,,0,0,0,0,0,166,166,236,431.295617851,9.30100213736e-06,431.948031859,0.652424271218,,,,x,1,0.633731648326,2018_Nov_27_1533,59.9834168541,chinese_cond1,001,1059,
images/bowlingball.jpg,bowling ball,z,sounds/greatgatsby_english.wav,,,,,,,,,0,0,0,0,0,167,167,20,433.080021347,8.98016151041e-06,434.448651814,1.36864008859,,,,z,1,1.35057126952,2018_Nov_27_1533,59.9834168541,chinese_cond1,001,1059,
images/shotglass.jpg,shot glass,z,sounds/greatgatsby_english.wav,,,,,,,,,0,0,0,0,0,168,168,86,435.557001226,9.30088572204e-06,436.882615857,1.32562393195,,,,z,1,1.31723994599,2018_Nov_27_1533,59.9834168541,chinese_cond1,001,1059,
images/parkingmeter.jpg,ear,x,sounds/greatgatsby_english.wav,,,,,,,,,0,0,0,0,0,169,169,171,437.986019741,8.98016151041e-06,439.066482722,1.08047260263,,,,x,1,1.067127052,2018_Nov_27_1533,59.9834168541,chinese_cond1,001,1059,
images/radio03a.jpg,radio,z,sounds/greatgatsby_english.wav,,,,,,,,,0,0,0,0,0,170,170,37,440.18057177,9.30088572204e-06,440.933631776,0.753069306607,,,,z,1,0.733749993611,2018_Nov_27_1533,59.9834168541,chinese_cond1,001,1059,
images/clothespin02a.jpg,clothes pin,z,sounds/greatgatsby_english.wav,,,,,,,,,0,0,0,0,0,171,171,79,442.038579613,8.98027792573e-06,443.434268087,1.39569809579,,,,z,1,1.38389842352,2018_Nov_27_1533,59.9834168541,chinese_cond1,001,1059,
images/thumbtack02a.jpg,thumb tack,z,sounds/greatgatsby_english.wav,,,,,,,,,0,0,0,0,0,172,172,60,444.546318307,8.98016151041e-06,445.601478912,1.05517279205,,,,z,1,1.0338271592,2018_Nov_27_1533,59.9834168541,chinese_cond1,001,1059,
images/beachumbrella01.jpg,beach umbrella,z,sounds/greatgatsby_english.wav,,,,,,,,,0,0,0,0,0,173,173,92,446.707660566,9.30088572204e-06,447.485305815,0.777655190788,,,,z,1,0.767102484708,2018_Nov_27_1533,59.9834168541,chinese_cond1,001,1059,
images/orange.jpg,bat,x,sounds/greatgatsby_english.wav,,,,,,,,,0,0,0,0,0,174,174,128,448.610756428,9.30088572204e-06,449.169051446,0.558304639417,,,,z,0,0.533706247224,2018_Nov_27_1533,59.9834168541,chinese_cond1,001,1059,
images/mailbox01.jpg,mail box,z,sounds/greatgatsby_english.wav,,,,,,,,,0,0,0,0,0,175,175,73,450.288326564,9.621726349e-06,451.069527654,0.781211032416,,,,z,1,0.76709350443,2018_Nov_27_1533,59.9834168541,chinese_cond1,001,1059,
images/computerkeyboard01a.jpg,computer keyboard,z,sounds/greatgatsby_english.wav,,,,,,,,,0,0,0,0,0,176,176,61,452.186619619,8.98016151041e-06,452.836642647,0.650032970239,,,,z,1,0.633726196014,2018_Nov_27_1533,59.9834168541,chinese_cond1,001,1059,
images/teapot.jpg,light switch,x,sounds/greatgatsby_english.wav,,,,,,,,,0,0,0,0,0,177,177,197,453.953958796,9.30088572204e-06,454.970517978,1.01656912453,,,,x,1,1.00048364839,2018_Nov_27_1533,59.9834168541,chinese_cond1,001,1059,
images/coffeepot03b.jpg,coffee pot,z,sounds/greatgatsby_english.wav,,,,,,,,,0,0,0,0,0,178,178,107,456.09235021,8.98027792573e-06,456.971032095,0.878691827529,,,,z,1,0.867128527258,2018_Nov_27_1533,59.9834168541,chinese_cond1,001,1059,
images/lollipop03b.jpg,lollipop,z,sounds/greatgatsby_english.wav,,,,,,,,,0,0,0,0,0,179,179,42,458.063948058,8.98027792573e-06,458.938303087,0.874364650343,,,,z,1,0.850564213586,2018_Nov_27_1533,59.9834168541,chinese_cond1,001,1059,
images/cheetah.jpg,cheetah,z,sounds/greatgatsby_english.wav,,,,,,,,,0,0,0,0,0,180,180,82,460.041125181,8.98027792573e-06,461.072078353,1.03096279374,,,,z,1,1.01717785432,2018_Nov_27_1533,59.9834168541,chinese_cond1,001,1059,
images/cherry01.jpg,highlighter,x,sounds/greatgatsby_english.wav,,,,,,,,,0,0,0,0,0,181,181,187,462.181112827,9.30100213736e-06,462.989222147,0.808118941612,,,,x,1,0.783777447417,2018_Nov_27_1533,59.9834168541,chinese_cond1,001,1059,
images/knife04.jpg,tooth brush,x,sounds/greatgatsby_english.wav,,,,,,,,,0,0,0,0,0,182,182,233,464.08635528,8.65943729877e-06,464.889701883,0.803355903598,,,,x,1,0.783774881507,2018_Nov_27_1533,59.9834168541,chinese_cond1,001,1059,
images/fryingpan01.jpg,frying pan,z,sounds/greatgatsby_english.wav,,,,,,,,,0,0,0,0,0,183,183,45,465.990589704,9.30088572204e-06,467.140259938,1.14967985556,,,,z,1,1.13384839101,2018_Nov_27_1533,59.9834168541,chinese_cond1,001,1059,
images/lipstick04.jpg,lipstick,z,sounds/greatgatsby_english.wav,,,,,,,,,0,0,0,0,0,184,184,56,468.240588742,9.94233414531e-06,468.957386349,0.716807869729,,,,z,1,0.700407765573,2018_Nov_27_1533,59.9834168541,chinese_cond1,001,1059,
images/swallow.jpg,mattress,x,sounds/greatgatsby_english.wav,,,,,,,,,0,0,0,0,0,185,185,202,470.05933127,8.98016151041e-06,471.058005406,0.99868375808,,,,x,1,0.98388501734,2018_Nov_27_1533,59.9834168541,chinese_cond1,001,1059,
images/8ball.jpg,nail clipper,x,sounds/greatgatsby_english.wav,,,,,,,,,0,0,0,0,0,186,186,206,472.176024257,8.65943729877e-06,473.075100514,0.899085878977,,,,x,1,0.883792906185,2018_Nov_27_1533,59.9834168541,chinese_cond1,001,1059,
images/corn01.jpg,corn,z,sounds/greatgatsby_english.wav,,,,,,,,,0,0,0,0,0,187,187,22,474.176684302,9.30100213736e-06,474.858882772,0.682207771228,,,,x,0,0.667069706949,2018_Nov_27_1533,59.9834168541,chinese_cond1,001,1059,
images/panda.jpg,panda,z,sounds/greatgatsby_english.wav,,,,,,,,,0,0,0,0,0,188,188,83,475.967919491,9.621726349e-06,476.575985065,0.608075515833,,,,z,1,0.583717344096,2018_Nov_27_1533,59.9834168541,chinese_cond1,001,1059,
images/djmixer01.jpg,light bulb,x,sounds/greatgatsby_english.wav,,,,,,,,,0,0,0,0,0,189,189,196,477.69752544,9.30088572204e-06,478.443122251,0.745606112643,,,,x,1,0.733725618687,2018_Nov_27_1533,59.9834168541,chinese_cond1,001,1059,
images/bench02.jpg,electric toothbrush,x,sounds/greatgatsby_english.wav,,,,,,,,,0,0,0,0,0,190,190,172,479.552353007,9.30100213736e-06,480.593679602,1.04133621638,,,,x,1,1.01716694969,2018_Nov_27_1533,59.9834168541,chinese_cond1,001,1059,
images/mushroom01.jpg,shower head,x,sounds/greatgatsby_english.wav,,,,,,,,,0,0,0,0,0,191,191,222,481.712579796,1.02631747723e-05,482.577518114,0.864948581904,,,,x,1,0.850413795095,2018_Nov_27_1533,59.9834168541,chinese_cond1,001,1059,
images/medal01.jpg,medal,z,sounds/greatgatsby_english.wav,,,,,,,,,0,0,0,0,0,192,192,115,483.678803631,1.02630583569e-05,484.694708541,1.01591517287,,,,z,1,1.0004919871,2018_Nov_27_1533,59.9834168541,chinese_cond1,001,1059,
images/drink.jpg,drink,z,sounds/greatgatsby_english.wav,,,,,,,,,0,0,0,0,0,193,193,117,485.794875701,9.62160993367e-06,486.645198732,0.850332973292,,,,z,1,0.833776357002,2018_Nov_27_1533,59.9834168541,chinese_cond1,001,1059,
images/kiwi03.jpg,backpack,x,sounds/greatgatsby_english.wav,,,,,,,,,0,0,0,0,0,194,194,125,487.773700051,9.62160993367e-06,488.595689885,0.821999776759,,,,x,1,0.800428355928,2018_Nov_27_1533,59.9834168541,chinese_cond1,001,1059,
images/graduationcap.jpg,graduation cap,z,sounds/greatgatsby_english.wav,,,,,,,,,0,0,0,0,0,195,195,35,489.698035066,8.98027792573e-06,490.762906483,1.0648807172,,,,x,0,1.05049987684,2018_Nov_27_1533,59.9834168541,chinese_cond1,001,1059,
images/pipe.jpg,icecube,x,sounds/greatgatsby_english.wav,,,,,,,,,0,0,0,0,0,196,196,188,491.872267451,8.98016151041e-06,493.730325648,1.85806813918,,,,x,1,1.83401529456,2018_Nov_27_1533,59.9834168541,chinese_cond1,001,1059,
images/computermouse02a.jpg,world map,x,sounds/greatgatsby_english.wav,,,,,,,,,0,0,0,0,0,197,197,239,494.832123357,8.98027792573e-06,495.49744481,0.665330753895,,,,x,1,0.650405007415,2018_Nov_27_1533,59.9834168541,chinese_cond1,001,1059,
images/lion.jpg,lion,z,sounds/greatgatsby_english.wav,,,,,,,,,0,0,0,0,0,198,198,44,496.610230445,8.98016151041e-06,497.381258243,0.771037739934,,,,z,1,0.750432653585,2018_Nov_27_1533,59.9834168541,chinese_cond1,001,1059,
images/safe.jpg,safe,z,sounds/greatgatsby_english.wav,,,,,,,,,0,0,0,0,0,199,199,78,498.492623722,9.62160993367e-06,499.648488054,1.15587427455,,,,z,1,1.13384839101,2018_Nov_27_1533,59.9834168541,chinese_cond1,001,1059,
images/acousticguitar02.jpg,acoustic guitar,z,sounds/greatgatsby_english.wav,,,,,,,,,0,0,0,0,0,200,200,97,500.763113669,8.98016151041e-06,502.015764754,1.2526603865,,,,z,1,1.23388309311,2018_Nov_27_1533,59.9834168541,chinese_cond1,001,1059,
images/feather03b.jpg,feather,z,sounds/greatgatsby_english.wav,,,,,,,,,0,0,0,0,0,201,201,114,503.116989334,9.30088572204e-06,503.949576134,0.832597063156,,,,z,1,0.817104601418,2018_Nov_27_1533,59.9834168541,chinese_cond1,001,1059,
images/cloud.jpg,ceiling fan,x,sounds/greatgatsby_english.wav,,,,,,,,,0,0,0,0,0,202,202,149,505.055348868,9.30088572204e-06,506.833640371,1.77830144507,,,,x,1,1.76732987631,2018_Nov_27_1533,59.9834168541,chinese_cond1,001,1059,
images/notebook02b.jpg,notebook,z,sounds/greatgatsby_english.wav,,,,,,,,,0,0,0,0,0,203,203,7,507.940252434,9.94233414531e-06,508.650768706,0.710526535171,,,,z,1,0.700397502515,2018_Nov_27_1533,59.9834168541,chinese_cond1,001,1059,
images/nailclipper03a.jpg,aquarium,x,sounds/greatgatsby_english.wav,,,,,,,,,0,0,0,0,0,204,204,123,509.752108424,9.62160993367e-06,510.834659304,1.08256114239,,,,x,1,1.06717195304,2018_Nov_27_1533,59.9834168541,chinese_cond1,001,1059,
images/doorhandle.jpg,doll,x,sounds/greatgatsby_english.wav,,,,,,,,,0,0,0,0,0,205,205,168,511.938215209,8.98016151041e-06,512.885191894,0.946986306459,,,,x,1,0.93382485013,2018_Nov_27_1533,59.9834168541,chinese_cond1,001,1059,
images/remotecontrol01c.jpg,remote control,z,sounds/greatgatsby_english.wav,,,,,,,,,0,0,0,0,0,206,206,85,513.996829025,9.30088572204e-06,514.919027392,0.922208630713,,,,z,1,0.900470434572,2018_Nov_27_1533,59.9834168541,chinese_cond1,001,1059,
images/paperclip04.jpg,eye drops,x,sounds/greatgatsby_english.wav,,,,,,,,,0,0,0,0,0,207,207,174,516.026270956,8.98027792573e-06,517.002880081,0.976618746645,,,,x,1,0.967145268922,2018_Nov_27_1533,59.9834168541,chinese_cond1,001,1059,
images/giraffe.jpg,lettuce,x,sounds/greatgatsby_english.wav,,,,,,,,,0,0,0,0,0,208,208,195,518.104147637,8.98027792573e-06,518.903380663,0.79924264783,,,,x,1,0.78378578613,2018_Nov_27_1533,59.9834168541,chinese_cond1,001,1059,
images/redfox.jpg,red fox,z,sounds/greatgatsby_english.wav,,,,,,,,,0,0,0,0,0,209,209,1,520.016747446,8.98016151041e-06,520.753831341,0.7370931966,,,,x,0,0.717082407442,2018_Nov_27_1533,59.9834168541,chinese_cond1,001,1059,
images/worldmap.jpg,scooter,x,sounds/greatgatsby_english.wav,,,,,,,,,0,0,0,0,0,210,210,220,521.885519672,9.621726349e-06,522.904382919,1.01887318923,,,,x,1,1.00048942131,2018_Nov_27_1533,59.9834168541,chinese_cond1,001,1059,
images/fork01.jpg,cooking pot,x,sounds/greatgatsby_english.wav,,,,,,,,,0,0,0,0,0,211,211,160,523.998986199,9.62160993367e-06,525.188279674,1.18930341816,,,,x,1,1.16717939381,2018_Nov_27_1533,59.9834168541,chinese_cond1,001,1059,
images/button07.jpg,radish,x,sounds/greatgatsby_english.wav,,,,,,,,,0,0,0,0,0,212,212,215,526.300184287,9.30088572204e-06,527.472199843,1.17202517798,,,,x,1,1.15051822213,2018_Nov_27_1533,59.9834168541,chinese_cond1,001,1059,
images/chameleon.jpg,50 dollar bill,x,sounds/greatgatsby_english.wav,,,,,,,,,0,0,0,0,0,213,213,120,528.584122095,8.65943729877e-06,529.456031941,0.871919147321,,,,x,1,0.850450678146,2018_Nov_27_1533,59.9834168541,chinese_cond1,001,1059,
images/table02.jpg,table,z,sounds/greatgatsby_english.wav,,,,,,,,,0,0,0,0,0,214,214,49,530.572450711,9.30088572204e-06,531.5232241,0.950783330598,,,,z,1,0.933807851747,2018_Nov_27_1533,59.9834168541,chinese_cond1,001,1059,
images/screwdriver02b.jpg,cola,x,sounds/greatgatsby_english.wav,,,,,,,,,0,0,0,0,0,215,215,158,532.619021427,8.65943729877e-06,533.307006358,0.687993911444,,,,x,1,0.66705174651,2018_Nov_27_1533,59.9834168541,chinese_cond1,001,1059,
images/broom02.jpg,broom,z,sounds/greatgatsby_english.wav,,,,,,,,,0,0,0,0,0,216,216,116,534.401997391,8.98027792573e-06,535.224160735,0.822173608001,,,,x,0,0.800402698223,2018_Nov_27_1533,59.9834168541,chinese_cond1,001,1059,
images/dice05a.jpg,band aid,x,sounds/greatgatsby_english.wav,,,,,,,,,0,0,0,0,0,217,217,126,536.338229257,9.30088572204e-06,537.274689477,0.936469841865,,,,x,1,0.917142831488,2018_Nov_27_1533,59.9834168541,chinese_cond1,001,1059,
images/cockroach02.jpg,belt,x,sounds/greatgatsby_english.wav,,,,,,,,,0,0,0,0,0,218,218,129,538.375254011,8.98016151041e-06,539.441889076,1.06664436578,,,,x,1,1.0504979525,2018_Nov_27_1533,59.9834168541,chinese_cond1,001,1059,
images/gorilla.jpg,gorilla,z,sounds/greatgatsby_english.wav,,,,,,,,,0,0,0,0,0,219,219,80,540.553597728,4.00901772082e-05,541.458899193,0.905326161068,,,,z,1,0.883617792046,2018_Nov_27_1533,59.9834168541,chinese_cond1,001,1059,
images/hammer02a.jpg,flower,x,sounds/greatgatsby_english.wav,,,,,,,,,0,0,0,0,0,220,220,176,542.55642072,9.62160993367e-06,543.176176279,0.619766463293,,,,x,1,0.60038685461,2018_Nov_27_1533,59.9834168541,chinese_cond1,001,1059,
images/saltshaker03c.jpg,salt shaker,z,sounds/greatgatsby_english.wav,,,,,,,,,0,0,0,0,0,221,221,63,544.289410283,8.98016151041e-06,545.3933982,1.10399721866,,,,z,1,1.08384434995,2018_Nov_27_1533,59.9834168541,chinese_cond1,001,1059,
images/pen03c.jpg,pepper,x,sounds/greatgatsby_english.wav,,,,,,,,,0,0,0,0,0,222,222,211,546.489250691,9.30088572204e-06,547.293885633,0.804644242628,,,,x,1,0.783766542794,2018_Nov_27_1533,59.9834168541,chinese_cond1,001,1059,
images/screw03c.jpg,screw,z,sounds/greatgatsby_english.wav,,,,,,,,,0,0,0,0,0,223,223,84,548.389353579,8.98016151041e-06,549.37774634,0.988402061863,,,,z,1,0.967149438336,2018_Nov_27_1533,59.9834168541,chinese_cond1,001,1059,
images/triangleruler02.jpg,bottle of red wine,x,sounds/greatgatsby_english.wav,,,,,,,,,0,0,0,0,0,224,224,134,550.489633312,9.30088572204e-06,551.378255967,0.888632596587,,,,x,1,0.8671317345,2018_Nov_27_1533,59.9834168541,chinese_cond1,001,1059,
images/flamingo.jpg,flamingo,z,sounds/greatgatsby_english.wav,,,,,,,,,0,0,0,0,0,225,225,52,552.477970588,9.94245056063e-06,553.245383211,0.767422565026,,,,z,1,0.750412127469,2018_Nov_27_1533,59.9834168541,chinese_cond1,001,1059,
images/paintbrush03a.jpg,paint brush,z,sounds/greatgatsby_english.wav,,,,,,,,,0,0,0,0,0,226,226,0,554.347761747,9.62160993367e-06,555.295907783,0.94815661991,,,,z,1,0.933786684182,2018_Nov_27_1533,59.9834168541,chinese_cond1,001,1059,
images/cookingpot.jpg,grasshopper,x,sounds/greatgatsby_english.wav,,,,,,,,,0,0,0,0,0,227,227,183,556.411203707,8.98027792573e-06,557.896569176,1.4853750905,,,,z,0,1.46727740637,2018_Nov_27_1533,59.9834168541,chinese_cond1,001,1059,
images/lamp04b.jpg,parking meter,x,sounds/greatgatsby_english.wav,,,,,,,,,0,0,0,0,0,228,228,209,559.018686208,9.30100213736e-06,560.013764092,0.995087505784,,,,x,1,0.983818948735,2018_Nov_27_1533,59.9834168541,chinese_cond1,001,1059,
images/tape01a.jpg,tie,x,sounds/greatgatsby_english.wav,,,,,,,,,0,0,0,0,0,229,229,232,561.141444684,9.30088572204e-06,562.147640066,1.0062053235,,,,z,0,0.983819269459,2018_Nov_27_1533,59.9834168541,chinese_cond1,001,1059,
,,,sounds/greatgatsby_english.wav,,,,,,,,,0,0,0,0,,,,,,,,,,,,,,,2018_Nov_27_1533,59.9834168541,chinese_cond1,001,1059,
images/panda.jpg,panda,z,sounds/animalfarm_chinese.wav,,,,,,,,,0,1,1,1,0,0,0,83,583.283652366,9.62160993367e-06,584.886730717,1.60308861407,,,573.150570179,z,1,1.58396590338,2018_Nov_27_1533,59.9834168541,chinese_cond1,001,1059,
images/sock03.jpg,sock,z,sounds/animalfarm_chinese.wav,,,,,,,,,0,1,1,1,0,1,1,90,585.99208106,9.30100213736e-06,586.903915306,0.911843546899,,,,z,1,0.900470113964,2018_Nov_27_1533,59.9834168541,chinese_cond1,001,1059,
images/hairband.jpg,hairband,z,sounds/animalfarm_chinese.wav,,,,,,,,,0,1,1,1,0,2,2,66,588.011325645,8.6595537141e-06,588.671024205,0.659707861021,,,,z,1,0.650391857722,2018_Nov_27_1533,59.9834168541,chinese_cond1,001,1059,
images/lychee02a.jpg,lychee,z,sounds/animalfarm_chinese.wav,,,,,,,,,0,1,1,1,0,3,3,62,589.794140607,8.98027792573e-06,590.354769196,0.560637889896,,,,z,1,0.550367098069,2018_Nov_27_1533,59.9834168541,chinese_cond1,001,1059,
images/bicycle.jpg,hand bag,x,sounds/animalfarm_chinese.wav,,,,,,,,,0,1,1,1,0,4,4,186,591.463265819,9.94245056063e-06,592.138557227,0.67530199152,,,,x,1,0.667052708683,2018_Nov_27_1533,59.9834168541,chinese_cond1,001,1059,
images/fireextinguisher02.jpg,fire extinguisher,z,sounds/animalfarm_chinese.wav,,,,,,,,,0,1,1,1,0,5,5,175,593.247406324,9.621726349e-06,594.055720264,0.808323882753,,,,z,1,0.78377231583,2018_Nov_27_1533,59.9834168541,chinese_cond1,001,1059,
images/candle08a.jpg,screw driver,x,sounds/animalfarm_chinese.wav,,,,,,,,,0,1,1,1,0,6,6,221,595.168697049,9.30100213736e-06,596.089573081,0.920885974541,,,,x,1,0.900470434572,2018_Nov_27_1533,59.9834168541,chinese_cond1,001,1059,
images/cloud.jpg,ceiling fan,x,sounds/animalfarm_chinese.wav,,,,,,,,,0,1,1,1,0,7,7,149,597.194702768,9.30100213736e-06,598.240115999,1.04542285239,,,,x,1,1.0338419124,2018_Nov_27_1533,59.9834168541,chinese_cond1,001,1059,
images/nailpolish02b.jpg,nail polish,z,sounds/animalfarm_chinese.wav,,,,,,,,,0,1,1,1,0,8,8,94,599.348963812,9.30088572204e-06,600.040557825,0.691603313433,,,,z,1,0.683741141693,2018_Nov_27_1533,59.9834168541,chinese_cond1,001,1059,
images/spoon02b.jpg,spoon,z,sounds/animalfarm_chinese.wav,,,,,,,,,0,1,1,1,0,9,9,38,601.130442327,9.62160993367e-06,601.791005552,0.660573488916,,,,z,1,0.650382556836,2018_Nov_27_1533,59.9834168541,chinese_cond1,001,1059,
images/bed.jpg,bed,z,sounds/animalfarm_chinese.wav,,,,,,,,,0,1,1,1,0,10,10,103,602.910375283,9.30088572204e-06,603.508094374,0.597729033791,,,,z,1,0.583709005383,2018_Nov_27_1533,59.9834168541,chinese_cond1,001,1059,
images/mattress.jpg,cat,x,sounds/animalfarm_chinese.wav,,,,,,,,,0,1,1,1,0,11,11,147,604.610538658,9.621726349e-06,605.358569106,0.748040390434,,,,x,1,0.733741334057,2018_Nov_27_1533,59.9834168541,chinese_cond1,001,1059,
images/cactus.jpg,cactus,z,sounds/animalfarm_chinese.wav,,,,,,,,,0,1,1,1,0,12,12,70,606.468343806,8.98016151041e-06,607.3589219,0.890603431384,,,,x,0,0.866959186154,2018_Nov_27_1533,59.9834168541,chinese_cond1,001,1059,
images/ear.jpg,bullet,x,sounds/animalfarm_chinese.wav,,,,,,,,,0,1,1,1,0,13,13,139,608.460518517,9.62160993367e-06,609.292892679,0.83238442475,,,,x,1,0.817096904153,2018_Nov_27_1533,59.9834168541,chinese_cond1,001,1059,
images/thumbtack02a.jpg,thumb tack,z,sounds/animalfarm_chinese.wav,,,,,,,,,0,1,1,1,0,14,14,60,610.4029525,9.30088572204e-06,612.360344943,1.95740238519,,,,x,0,1.93405641115,2018_Nov_27_1533,59.9834168541,chinese_cond1,001,1059,
images/microphone01.jpg,diaper,x,sounds/animalfarm_chinese.wav,,,,,,,,,0,1,1,1,0,15,15,164,613.460370664,9.30088572204e-06,614.460867142,1.00050609885,,,,x,1,0.983805478434,2018_Nov_27_1533,59.9834168541,chinese_cond1,001,1059,
images/apricot.jpg,apricot,z,sounds/animalfarm_chinese.wav,,,,,,,,,0,1,1,1,0,16,16,32,615.575954275,9.30088572204e-06,616.478061032,0.90211637842,,,,x,0,0.883792264736,2018_Nov_27_1533,59.9834168541,chinese_cond1,001,1059,
images/grandpiano.jpg,tulip,x,sounds/animalfarm_chinese.wav,,,,,,,,,0,1,1,1,0,17,17,236,617.592201074,8.98027792573e-06,618.361867409,0.769675955642,,,,x,1,0.750422390411,2018_Nov_27_1533,59.9834168541,chinese_cond1,001,1059,
images/leek.jpg,donut,x,sounds/animalfarm_chinese.wav,,,,,,,,,0,1,1,1,0,18,18,169,619.462243038,9.30088572204e-06,620.179013383,0.716779966955,,,,x,1,0.70042476384,2018_Nov_27_1533,59.9834168541,chinese_cond1,001,1059,
images/baseball01a.jpg,baseball,z,sounds/animalfarm_chinese.wav,,,,,,,,,0,1,1,1,0,19,19,74,621.311625713,8.98016151041e-06,622.096135368,0.784519276582,,,,z,1,0.76707778906,2018_Nov_27_1533,59.9834168541,chinese_cond1,001,1059,
images/razor04a.jpg,razor,z,sounds/animalfarm_chinese.wav,,,,,,,,,0,1,1,1,0,20,20,36,623.195037601,9.62160993367e-06,623.879931417,0.68490375788,,,,x,0,0.667072593351,2018_Nov_27_1533,59.9834168541,chinese_cond1,001,1059,
images/8ball.jpg,nail clipper,x,sounds/animalfarm_chinese.wav,,,,,,,,,0,1,1,1,0,21,21,206,624.995208097,9.30088572204e-06,625.813743438,0.818544962676,,,,x,1,0.800429959432,2018_Nov_27_1533,59.9834168541,chinese_cond1,001,1059,
images/camera01a.jpg,bull,x,sounds/animalfarm_chinese.wav,,,,,,,,,0,1,1,1,0,22,22,138,626.924147073,8.98016151041e-06,627.514174295,0.590036844485,,,,x,1,0.567038853536,2018_Nov_27_1533,59.9834168541,chinese_cond1,001,1059,
images/computermouse02a.jpg,world map,x,sounds/animalfarm_chinese.wav,,,,,,,,,0,1,1,1,0,23,23,239,628.615712541,9.30100213736e-06,629.181276716,0.565574117587,,,,x,1,0.55038217199,2018_Nov_27_1533,59.9834168541,chinese_cond1,001,1059,
images/eyedrops.jpg,bicycle,x,sounds/animalfarm_chinese.wav,,,,,,,,,0,1,1,1,0,24,24,131,630.281677362,9.30088572204e-06,631.015067185,0.73339976545,,,,x,1,0.717076634523,2018_Nov_27_1533,59.9834168541,chinese_cond1,001,1059,
images/toothbrush03a.jpg,parrot,x,sounds/animalfarm_chinese.wav,,,,,,,,,0,1,1,1,0,25,25,210,632.107293276,9.62160993367e-06,632.748830328,0.641546994681,,,,x,1,0.617040649639,2018_Nov_27_1533,59.9834168541,chinese_cond1,001,1059,
images/icecube02 (2).jpg,aloe,x,sounds/animalfarm_chinese.wav,,,,,,,,,0,1,1,1,0,26,26,122,633.859689387,9.30100213736e-06,634.565970209,0.706290443079,,,,x,1,0.683745631832,2018_Nov_27_1533,59.9834168541,chinese_cond1,001,1059,
images/ruler02b.jpg,watermelon,x,sounds/animalfarm_chinese.wav,,,,,,,,,0,1,1,1,0,27,27,238,635.66800878,8.98016151041e-06,636.28308084,0.615082002128,,,,x,1,0.600401607691,2018_Nov_27_1533,59.9834168541,chinese_cond1,001,1059,
images/cheetah.jpg,cheetah,z,sounds/animalfarm_chinese.wav,,,,,,,,,0,1,1,1,0,28,28,82,637.385650847,8.98016151041e-06,638.133546271,0.747905366472,,,,z,1,0.733763463912,2018_Nov_27_1533,59.9834168541,chinese_cond1,001,1059,
images/showerhead01.jpg,skateboard,x,sounds/animalfarm_chinese.wav,,,,,,,,,0,1,1,1,0,29,29,223,639.241438976,8.98016151041e-06,639.883972831,0.642543156282,,,,x,1,0.633722026716,2018_Nov_27_1533,59.9834168541,chinese_cond1,001,1059,
images/cherry01.jpg,highlighter,x,sounds/animalfarm_chinese.wav,,,,,,,,,0,1,1,1,0,30,30,187,640.993064072,8.6595537141e-06,641.617741426,0.62468665489,,,,x,1,0.600375949987,2018_Nov_27_1533,59.9834168541,chinese_cond1,001,1059,
images/bowlingball.jpg,bowling ball,z,sounds/animalfarm_chinese.wav,,,,,,,,,0,1,1,1,0,31,31,20,642.749765552,8.98016151041e-06,643.551574294,0.801819005166,,,,z,1,0.78376493929,2018_Nov_27_1533,59.9834168541,chinese_cond1,001,1059,
images/cocktailshrimp01.jpg,cocktail shrimp,z,sounds/animalfarm_chinese.wav,,,,,,,,,0,1,1,1,0,32,32,30,644.666454242,8.98027792573e-06,645.468566066,0.802121125045,,,,z,1,0.783605219796,2018_Nov_27_1533,59.9834168541,chinese_cond1,001,1059,
images/flamingo.jpg,flamingo,z,sounds/animalfarm_chinese.wav,,,,,,,,,0,1,1,1,0,33,33,52,646.567033722,9.94233414531e-06,647.11914715,0.552123690839,,,,z,1,0.533705605776,2018_Nov_27_1533,59.9834168541,chinese_cond1,001,1059,
images/wallet01.jpg,lamp,x,sounds/animalfarm_chinese.wav,,,,,,,,,0,1,1,1,0,34,34,193,648.224896471,8.98016151041e-06,649.002941018,0.778054168564,,,,x,1,0.767085486441,2018_Nov_27_1533,59.9834168541,chinese_cond1,001,1059,
images/swallow.jpg,mattress,x,sounds/animalfarm_chinese.wav,,,,,,,,,0,1,1,1,0,35,35,202,650.104867016,9.30088572204e-06,650.85342473,0.748567977571,,,,x,1,0.733755445806,2018_Nov_27_1533,59.9834168541,chinese_cond1,001,1059,
images/volleyball.jpg,volley ball,z,sounds/animalfarm_chinese.wav,,,,,,,,,0,1,1,1,0,36,36,2,651.986012685,9.30100213736e-06,652.637359652,0.651357230148,,,,z,1,0.633883991162,2018_Nov_27_1533,59.9834168541,chinese_cond1,001,1059,
images/mushroom01.jpg,shower head,x,sounds/animalfarm_chinese.wav,,,,,,,,,0,1,1,1,0,37,37,222,653.753933652,8.98027792573e-06,654.337656769,0.583732418017,,,,x,1,0.567060021101,2018_Nov_27_1533,59.9834168541,chinese_cond1,001,1059,
images/lollipop03b.jpg,lollipop,z,sounds/animalfarm_chinese.wav,,,,,,,,,0,1,1,1,0,38,38,42,655.430800444,9.30100213736e-06,656.07141029,0.640619467595,,,,z,1,0.617058930686,2018_Nov_27_1533,59.9834168541,chinese_cond1,001,1059,
images/lamp04b.jpg,parking meter,x,sounds/animalfarm_chinese.wav,,,,,,,,,0,1,1,1,0,39,39,209,657.191489778,9.62160993367e-06,657.988565951,0.797085794271,,,,x,1,0.783778730314,2018_Nov_27_1533,59.9834168541,chinese_cond1,001,1059,
images/coin01b.jpg,arrow,x,sounds/animalfarm_chinese.wav,,,,,,,,,0,1,1,1,0,40,40,124,659.091724161,9.30088572204e-06,659.705657659,0.613943760749,,,,x,1,0.600386213046,2018_Nov_27_1533,59.9834168541,chinese_cond1,001,1059,
images/ladder.jpg,ladder,z,sounds/animalfarm_chinese.wav,,,,,,,,,0,1,1,1,0,41,41,113,660.798749057,9.30088572204e-06,661.439426896,0.64068778127,,,,z,1,0.617055402719,2018_Nov_27_1533,59.9834168541,chinese_cond1,001,1059,
images/tank.jpg,wallet,x,sounds/animalfarm_chinese.wav,,,,,,,,,0,1,1,1,0,42,42,237,662.544328229,8.98016151041e-06,663.189874623,0.645556336618,,,,x,1,0.633692840929,2018_Nov_27_1533,59.9834168541,chinese_cond1,001,1059,
images/cola.jpg,comb,x,sounds/animalfarm_chinese.wav,,,,,,,,,0,1,1,1,0,43,43,157,664.311001588,9.30088572204e-06,664.95698673,0.645994763239,,,,x,1,0.633712405106,2018_Nov_27_1533,59.9834168541,chinese_cond1,001,1059,
images/calculator02b.jpg,dice,x,sounds/animalfarm_chinese.wav,,,,,,,,,0,1,1,1,0,44,44,165,666.058716767,8.98027792573e-06,666.740773478,0.682065691566,,,,x,1,0.667064254638,2018_Nov_27_1533,59.9834168541,chinese_cond1,001,1059,
images/tulip02.jpg,sport shorts,x,sounds/animalfarm_chinese.wav,,,,,,,,,0,1,1,1,0,45,45,225,667.837436112,9.30088572204e-06,668.524557019,0.687130528619,,,,x,1,0.667028013151,2018_Nov_27_1533,59.9834168541,chinese_cond1,001,1059,
images/dolphin01.jpg,dolphin,z,sounds/animalfarm_chinese.wav,,,,,,,,,0,1,1,1,0,46,46,99,669.624725462,9.621726349e-06,670.441712679,0.816997801187,,,,z,1,0.80043893971,2018_Nov_27_1533,59.9834168541,chinese_cond1,001,1059,
images/backpack01b.jpg,swallow,x,sounds/animalfarm_chinese.wav,,,,,,,,,0,1,1,1,0,47,47,228,671.573414159,9.62160993367e-06,672.442213005,0.868808788247,,,,x,1,0.850442660041,2018_Nov_27_1533,59.9834168541,chinese_cond1,001,1059,
images/screwdriver02b.jpg,cola,x,sounds/animalfarm_chinese.wav,,,,,,,,,0,1,1,1,0,48,48,158,673.536549766,8.65943729877e-06,674.125978843,0.589438377763,,,,x,1,0.567048795871,2018_Nov_27_1533,59.9834168541,chinese_cond1,001,1059,
images/remotecontrol01c.jpg,remote control,z,sounds/animalfarm_chinese.wav,,,,,,,,,0,1,1,1,0,49,49,85,675.236021986,9.30088572204e-06,676.026463389,0.790451024543,,,,z,1,0.767101843143,2018_Nov_27_1533,59.9834168541,chinese_cond1,001,1059,
images/scissors04a.jpg,leek,x,sounds/animalfarm_chinese.wav,,,,,,,,,0,1,1,1,0,50,50,194,677.120682444,8.98027792573e-06,677.660221978,0.539549155161,,,,x,1,0.517003381625,2018_Nov_27_1533,59.9834168541,chinese_cond1,001,1059,
images/headphones02b.jpg,headphones,z,sounds/animalfarm_chinese.wav,,,,,,,,,0,1,1,1,0,51,51,101,678.769600586,9.30088572204e-06,679.510671694,0.741081370972,,,,z,1,0.717079520924,2018_Nov_27_1533,59.9834168541,chinese_cond1,001,1059,
images/banana04a.jpg,banana,z,sounds/animalfarm_chinese.wav,,,,,,,,,0,1,1,1,0,52,52,118,680.616459823,9.621726349e-06,681.111073302,0.494623421459,,,,z,1,0.483682962833,2018_Nov_27_1533,59.9834168541,chinese_cond1,001,1059,
images/lily.jpg,kiwi,x,sounds/animalfarm_chinese.wav,,,,,,,,,0,1,1,1,0,53,53,190,682.210922626,9.62160993367e-06,682.861514615,0.650602251175,,,,x,1,0.633724592393,2018_Nov_27_1533,59.9834168541,chinese_cond1,001,1059,
images/doorhandle.jpg,doll,x,sounds/animalfarm_chinese.wav,,,,,,,,,0,1,1,1,0,54,54,168,683.964960833,9.94245056063e-06,684.678664759,0.71371515037,,,,x,1,0.700429574586,2018_Nov_27_1533,59.9834168541,chinese_cond1,001,1059,
images/envelope02a.jpg,grand piano,x,sounds/animalfarm_chinese.wav,,,,,,,,,0,1,1,1,0,55,55,182,685.801848512,9.30100213736e-06,686.612462027,0.810623457306,,,,x,1,0.800428997376,2018_Nov_27_1533,59.9834168541,chinese_cond1,001,1059,
images/aloe02.jpg,broad sword,x,sounds/animalfarm_chinese.wav,,,,,,,,,0,1,1,1,0,56,56,137,687.733080647,9.30088572204e-06,688.57963167,0.846560644568,,,,x,1,0.833768018172,2018_Nov_27_1533,59.9834168541,chinese_cond1,001,1059,
images/teapot.jpg,light switch,x,sounds/animalfarm_chinese.wav,,,,,,,,,0,1,1,1,0,57,57,197,689.696899391,9.30088572204e-06,690.363438624,0.666548854904,,,,x,1,0.650419760612,2018_Nov_27_1533,59.9834168541,chinese_cond1,001,1059,
images/seagull.jpg,seagull,z,sounds/animalfarm_chinese.wav,,,,,,,,,0,1,1,1,0,58,58,50,691.47132748,9.30088572204e-06,692.297238779,0.825920599629,,,,z,1,0.817101394176,2018_Nov_27_1533,59.9834168541,chinese_cond1,001,1059,
images/lock02a.jpg,lock,z,sounds/animalfarm_chinese.wav,,,,,,,,,0,1,1,1,0,59,59,65,693.408550376,9.30088572204e-06,694.031007053,0.622466298519,,,,z,1,0.600383647368,2018_Nov_27_1533,59.9834168541,chinese_cond1,001,1059,
images/lemon02.jpg,lemon,z,sounds/animalfarm_chinese.wav,,,,,,,,,0,1,1,1,0,60,60,14,695.143390503,9.62160993367e-06,695.748121854,0.60474161373,,,,z,1,0.583713495405,2018_Nov_27_1533,59.9834168541,chinese_cond1,001,1059,
images/candycane01a.jpg,lip,x,sounds/animalfarm_chinese.wav,,,,,,,,,0,1,1,1,0,61,61,200,696.842426863,9.30100213736e-06,697.531896415,0.689479494351,,,,x,1,0.66706746188,2018_Nov_27_1533,59.9834168541,chinese_cond1,001,1059,
images/tie01.jpg,bench,x,sounds/animalfarm_chinese.wav,,,,,,,,,0,1,1,1,0,62,62,130,698.630525073,8.98027792573e-06,699.465563469,0.835048018489,,,,x,1,0.816946485662,2018_Nov_27_1533,59.9834168541,chinese_cond1,001,1059,
images/carrot02.jpg,corkscrew,x,sounds/animalfarm_chinese.wav,,,,,,,,,0,1,1,1,0,63,63,161,700.568593712,8.98016151041e-06,701.349528282,0.780944512575,,,,x,1,0.767083562096,2018_Nov_27_1533,59.9834168541,chinese_cond1,001,1059,
images/feather03b.jpg,feather,z,sounds/animalfarm_chinese.wav,,,,,,,,,0,1,1,1,0,64,64,114,702.450619442,9.30088572204e-06,703.116660274,0.66605109477,,,,z,1,0.650389612652,2018_Nov_27_1533,59.9834168541,chinese_cond1,001,1059,
images/ostrich.jpg,ostrich,z,sounds/animalfarm_chinese.wav,,,,,,,,,0,1,1,1,0,65,65,76,704.217471443,9.30100213736e-06,704.884143776,0.666682275129,,,,x,0,0.650744010112,2018_Nov_27_1533,59.9834168541,chinese_cond1,001,1059,
images/djmixer01.jpg,light bulb,x,sounds/animalfarm_chinese.wav,,,,,,,,,0,1,1,1,0,66,66,196,706.005401595,8.98016151041e-06,706.684227997,0.678835703176,,,,x,1,0.667081252905,2018_Nov_27_1533,59.9834168541,chinese_cond1,001,1059,
images/highlighter03b.jpg,coin,x,sounds/animalfarm_chinese.wav,,,,,,,,,0,1,1,1,0,67,67,156,707.786868884,8.98027792573e-06,708.58470196,0.797842376865,,,,x,1,0.783764618449,2018_Nov_27_1533,59.9834168541,chinese_cond1,001,1059,
images/treadmill.jpg,lily,x,sounds/animalfarm_chinese.wav,,,,,,,,,0,1,1,1,0,68,68,199,709.690643073,9.62160993367e-06,710.251785778,0.561153289513,,,,x,1,0.550375116058,2018_Nov_27_1533,59.9834168541,chinese_cond1,001,1059,
images/ladybug03.jpg,giraffe,x,sounds/animalfarm_chinese.wav,,,,,,,,,0,1,1,1,0,69,69,178,711.355438542,8.98027792573e-06,711.93554488,0.580116280937,,,,x,1,0.567046230193,2018_Nov_27_1533,59.9834168541,chinese_cond1,001,1059,
images/safe.jpg,safe,z,sounds/animalfarm_chinese.wav,,,,,,,,,0,1,1,1,0,70,70,78,713.046972259,9.94233414531e-06,713.819360237,0.772398562171,,,,z,1,0.750432012137,2018_Nov_27_1533,59.9834168541,chinese_cond1,001,1059,
images/stapler03a.jpg,candy cane,x,sounds/animalfarm_chinese.wav,,,,,,,,,0,1,1,1,0,71,71,145,714.930707114,9.30088572204e-06,715.686489727,0.755792554584,,,,x,1,0.733745182748,2018_Nov_27_1533,59.9834168541,chinese_cond1,001,1059,
images/pictureframe04.jpg,picture frame,z,sounds/animalfarm_chinese.wav,,,,,,,,,0,1,1,1,0,72,72,41,716.808567952,9.30100213736e-06,717.620314897,0.811756887822,,,,z,1,0.800436694641,2018_Nov_27_1533,59.9834168541,chinese_cond1,001,1059,
images/umbrella01.jpg,umbrella,z,sounds/animalfarm_chinese.wav,,,,,,,,,0,1,1,1,0,73,73,53,718.733813176,9.621726349e-06,719.404103891,0.670300015947,,,,z,1,0.650396668585,2018_Nov_27_1533,59.9834168541,chinese_cond1,001,1059,
images/floorlamp.jpg,floor lamp,z,sounds/animalfarm_chinese.wav,,,,,,,,,0,1,1,1,0,74,74,26,720.497883878,9.30100213736e-06,721.204557904,0.706683968543,,,,z,1,0.683745311107,2018_Nov_27_1533,59.9834168541,chinese_cond1,001,1059,
images/comb02a.jpg,diploma,x,sounds/animalfarm_chinese.wav,,,,,,,,,0,1,1,1,0,75,75,166,722.30896276,8.98016151041e-06,722.888168192,0.579215373611,,,,x,1,0.566877530538,2018_Nov_27_1533,59.9834168541,chinese_cond1,001,1059,
images/glasses01b.jpg,calculator,x,sounds/animalfarm_chinese.wav,,,,,,,,,0,1,1,1,0,76,76,142,723.981327582,9.30088572204e-06,724.75546157,0.774143929593,,,,x,1,0.750434577931,2018_Nov_27_1533,59.9834168541,chinese_cond1,001,1059,
images/egg01b (1).jpg,egg,z,sounds/animalfarm_chinese.wav,,,,,,,,,0,1,1,1,0,77,77,19,725.868466257,8.6595537141e-06,726.455726293,0.587269657641,,,,z,1,0.566861494444,2018_Nov_27_1533,59.9834168541,chinese_cond1,001,1059,
images/bull.jpg,button,x,sounds/animalfarm_chinese.wav,,,,,,,,,0,1,1,1,0,78,78,141,727.562638231,9.62160993367e-06,728.33969271,0.777064421447,,,,x,1,0.767069450347,2018_Nov_27_1533,59.9834168541,chinese_cond1,001,1059,
images/magnifyingglass01b.jpg,magnifying glass,z,sounds/animalfarm_chinese.wav,,,,,,,,,0,1,1,1,0,79,79,64,729.44703217,9.30088572204e-06,730.20683567,0.759813121869,,,,z,1,0.750422711251,2018_Nov_27_1533,59.9834168541,chinese_cond1,001,1059,
images/licenseplate.jpg,license plate,z,sounds/animalfarm_chinese.wav,,,,,,,,,0,1,1,1,0,80,80,40,731.324595057,8.98027792573e-06,732.090663855,0.766078741057,,,,z,1,0.750445803162,2018_Nov_27_1533,59.9834168541,chinese_cond1,001,1059,
images/swan.jpg,swan,z,sounds/animalfarm_chinese.wav,,,,,,,,,0,1,1,1,0,81,81,54,733.183064098,9.30100213736e-06,733.807752677,0.624698521569,,,,z,1,0.600397759001,2018_Nov_27_1533,59.9834168541,chinese_cond1,001,1059,
images/cauliflower01.jpg,glue stick,x,sounds/animalfarm_chinese.wav,,,,,,,,,0,1,1,1,0,82,82,181,734.924885695,9.30100213736e-06,735.591552896,0.666676502093,,,,x,1,0.650421043392,2018_Nov_27_1533,59.9834168541,chinese_cond1,001,1059,
images/ceilingfan02.jpg,paper clip,x,sounds/animalfarm_chinese.wav,,,,,,,,,0,1,1,1,0,83,83,208,736.690070264,9.30088572204e-06,737.425342402,0.735282401904,,,,x,1,0.717100688722,2018_Nov_27_1533,59.9834168541,chinese_cond1,001,1059,
images/straw.jpg,straw,z,sounds/animalfarm_chinese.wav,,,,,,,,,0,1,1,1,0,84,84,109,738.516778876,9.94233414531e-06,739.159114526,0.642345591681,,,,z,1,0.633741911384,2018_Nov_27_1533,59.9834168541,chinese_cond1,001,1059,
images/tent.jpg,tent,z,sounds/animalfarm_chinese.wav,,,,,,,,,0,1,1,1,0,85,85,11,740.286592422,9.62160993367e-06,741.059592978,0.773010819918,,,,z,1,0.75043297431,2018_Nov_27_1533,59.9834168541,chinese_cond1,001,1059,
images/bullet (2).jpg,rubber glove,x,sounds/animalfarm_chinese.wav,,,,,,,,,0,1,1,1,0,86,86,217,742.16666239,9.30100213736e-06,742.843362087,0.676709318417,,,,x,1,0.667065858259,2018_Nov_27_1533,59.9834168541,chinese_cond1,001,1059,
images/sunglasses03a.jpg,sun glasses,z,sounds/animalfarm_chinese.wav,,,,,,,,,0,1,1,1,0,87,87,17,743.952138059,9.30100213736e-06,744.610479966,0.658351849765,,,,z,1,0.650402441504,2018_Nov_27_1533,59.9834168541,chinese_cond1,001,1059,
images/peach01.jpg,peach,z,sounds/animalfarm_chinese.wav,,,,,,,,,0,1,1,1,0,88,88,106,745.739820293,8.98027792573e-06,746.394258055,0.654447383713,,,,z,1,0.633677125676,2018_Nov_27_1533,59.9834168541,chinese_cond1,001,1059,
images/charcoalbarbecue.jpg,charcoal barbecue,z,sounds/animalfarm_chinese.wav,,,,,,,,,0,1,1,1,0,89,89,77,747.511988256,9.30088572204e-06,748.494803667,0.982825673651,,,,z,1,0.967153928359,2018_Nov_27_1533,59.9834168541,chinese_cond1,001,1059,
images/50dollarbill.jpg,cherry,x,sounds/animalfarm_chinese.wav,,,,,,,,,0,1,1,1,0,90,90,151,749.615282774,8.98027792573e-06,750.21190179,0.596628316911,,,,x,1,0.583721834235,2018_Nov_27_1533,59.9834168541,chinese_cond1,001,1059,
images/dragonfly02.jpg,dragon fly,z,sounds/animalfarm_chinese.wav,,,,,,,,,0,1,1,1,0,91,91,29,751.310314923,8.98016151041e-06,752.245744344,0.93543968373,,,,z,1,0.91712807829,2018_Nov_27_1533,59.9834168541,chinese_cond1,001,1059,
images/skateboard.jpg,key,x,sounds/animalfarm_chinese.wav,,,,,,,,,0,1,1,1,0,92,92,189,753.336752013,9.62160993367e-06,754.212907573,0.876165502705,,,,x,1,0.867120509152,2018_Nov_27_1533,59.9834168541,chinese_cond1,001,1059,
images/dryingmachine01.jpg,drying machine,z,sounds/animalfarm_chinese.wav,,,,,,,,,0,1,1,1,0,93,93,18,755.334527487,9.30088572204e-06,755.879993316,0.545475771301,,,,z,1,0.533700153464,2018_Nov_27_1533,59.9834168541,chinese_cond1,001,1059,
images/paintbrush03a.jpg,paint brush,z,sounds/animalfarm_chinese.wav,,,,,,,,,0,1,1,1,0,94,94,0,756.980687422,9.30088572204e-06,757.530423981,0.549746501492,,,,z,1,0.533709775074,2018_Nov_27_1533,59.9834168541,chinese_cond1,001,1059,
images/elbow.jpg,elbow,z,sounds/animalfarm_chinese.wav,,,,,,,,,0,1,1,1,0,95,95,105,758.64318011,8.6595537141e-06,759.380875942,0.737705133623,,,,z,1,0.71707567235,2018_Nov_27_1533,59.9834168541,chinese_cond1,001,1059,
images/acousticguitar02.jpg,acoustic guitar,z,sounds/animalfarm_chinese.wav,,,,,,,,,0,1,1,1,0,96,96,97,760.494004749,8.98016151041e-06,761.014635814,0.520640686504,,,,z,1,0.500370754278,2018_Nov_27_1533,59.9834168541,chinese_cond1,001,1059,
images/battery03b.jpg,battery,z,sounds/animalfarm_chinese.wav,,,,,,,,,0,1,1,1,0,97,97,34,762.124211025,9.30088572204e-06,762.831763828,0.70756242529,,,,z,1,0.683746914729,2018_Nov_27_1533,59.9834168541,chinese_cond1,001,1059,
images/apple06.jpg,apple,z,sounds/animalfarm_chinese.wav,,,,,,,,,0,1,1,1,0,98,98,13,763.959538712,9.62160993367e-06,764.432159984,0.472631213604,,,,z,1,0.450335603207,2018_Nov_27_1533,59.9834168541,chinese_cond1,001,1059,
images/orange.jpg,bat,x,sounds/animalfarm_chinese.wav,,,,,,,,,0,1,1,1,0,99,99,128,765.557084935,8.98016151041e-06,766.249290564,0.69221557118,,,,x,1,0.683731520083,2018_Nov_27_1533,59.9834168541,chinese_cond1,001,1059,
images/candy.jpg,candy,z,sounds/animalfarm_chinese.wav,,,,,,,,,0,1,1,1,0,100,100,31,767.3522557,9.30100213736e-06,767.933047741,0.580801663222,,,,z,1,0.567047192249,2018_Nov_27_1533,59.9834168541,chinese_cond1,001,1059,
images/nailclipper03a.jpg,aquarium,x,sounds/animalfarm_chinese.wav,,,,,,,,,0,1,1,1,0,101,101,123,769.032913744,9.621726349e-06,769.70024516,0.667341358261,,,,x,1,0.65044189035,2018_Nov_27_1533,59.9834168541,chinese_cond1,001,1059,
images/handfan01b.jpg,handfan,z,sounds/animalfarm_chinese.wav,,,,,,,,,0,1,1,1,0,102,102,69,770.815086621,8.98016151041e-06,771.600627396,0.785550396889,,,,z,1,0.767082599923,2018_Nov_27_1533,59.9834168541,chinese_cond1,001,1059,
images/drink.jpg,drink,z,sounds/animalfarm_chinese.wav,,,,,,,,,0,1,1,1,0,103,103,117,772.701035097,9.62160993367e-06,773.384429539,0.683404704556,,,,z,1,0.667075159261,2018_Nov_27_1533,59.9834168541,chinese_cond1,001,1059,
images/cat.jpg,black olive,x,sounds/animalfarm_chinese.wav,,,,,,,,,0,1,1,1,0,104,104,133,774.515761868,8.98016151041e-06,775.251583403,0.735830835998,,,,z,0,0.717094274238,2018_Nov_27_1533,59.9834168541,chinese_cond1,001,1059,
images/hairdryer03a.jpg,hairdryer,z,sounds/animalfarm_chinese.wav,,,,,,,,,0,1,1,1,0,105,105,119,776.352035043,8.98027792573e-06,777.018676587,0.666651485837,,,,z,1,0.650394423516,2018_Nov_27_1533,59.9834168541,chinese_cond1,001,1059,
images/grasshopper.jpg,cauliflower,x,sounds/animalfarm_chinese.wav,,,,,,,,,0,1,1,1,0,106,106,148,778.113177557,9.30088572204e-06,778.70244082,0.589272885351,,,,z,0,0.567050078767,2018_Nov_27_1533,59.9834168541,chinese_cond1,001,1059,
images/banjo.jpg,knife,x,sounds/animalfarm_chinese.wav,,,,,,,,,0,1,1,1,0,107,107,191,779.799971007,9.30100213736e-06,780.552915873,0.75295545056,,,,x,1,0.733758653165,2018_Nov_27_1533,59.9834168541,chinese_cond1,001,1059,
images/dresser02.jpg,dresser,z,sounds/animalfarm_chinese.wav,,,,,,,,,0,1,1,1,0,108,108,87,781.675600263,9.30088572204e-06,782.253388425,0.577798104379,,,,z,1,0.567095621256,2018_Nov_27_1533,59.9834168541,chinese_cond1,001,1059,
images/marker01a.jpg,marker,z,sounds/animalfarm_chinese.wav,,,,,,,,,0,1,1,1,0,109,109,95,783.352173274,9.30088572204e-06,783.953775343,0.601611690712,,,,z,1,0.58371413697,2018_Nov_27_1533,59.9834168541,chinese_cond1,001,1059,
images/ashtray02b.jpg,ashtray,z,sounds/animalfarm_chinese.wav,,,,,,,,,0,1,1,1,0,110,110,43,785.067123203,8.98016151041e-06,785.670871542,0.603757960256,,,,z,1,0.583715740475,2018_Nov_27_1533,59.9834168541,chinese_cond1,001,1059,
images/watermelon01.jpg,orange,x,sounds/animalfarm_chinese.wav,,,,,,,,,0,1,1,1,0,111,111,207,786.800955943,8.98027792573e-06,787.437984931,0.637038930552,,,,x,1,0.617060213583,2018_Nov_27_1533,59.9834168541,chinese_cond1,001,1059,
images/saltshaker03c.jpg,salt shaker,z,sounds/animalfarm_chinese.wav,,,,,,,,,0,1,1,1,0,112,112,63,788.549780498,9.621726349e-06,789.155087544,0.605316988542,,,,z,1,0.583720551338,2018_Nov_27_1533,59.9834168541,chinese_cond1,001,1059,
images/printer03a.jpg,printer,z,sounds/animalfarm_chinese.wav,,,,,,,,,0,1,1,1,0,113,113,72,790.264547295,9.30088572204e-06,790.855513912,0.590975917643,,,,z,1,0.56703660835,2018_Nov_27_1533,59.9834168541,chinese_cond1,001,1059,
images/handbag02a.jpg,candle,x,sounds/animalfarm_chinese.wav,,,,,,,,,0,1,1,1,0,114,114,144,791.973557137,9.30088572204e-06,792.489300083,0.515752567095,,,,z,0,0.500389356166,2018_Nov_27_1533,59.9834168541,chinese_cond1,001,1059,
images/triangleruler02.jpg,bottle of red wine,x,sounds/animalfarm_chinese.wav,,,,,,,,,0,1,1,1,0,115,115,134,793.600425662,8.98027792573e-06,794.156366262,0.555950542213,,,,x,1,0.533719396801,2018_Nov_27_1533,59.9834168541,chinese_cond1,001,1059,
images/rhinoceros01.jpg,envelope,x,sounds/animalfarm_chinese.wav,,,,,,,,,0,1,1,1,0,116,116,173,795.268916166,8.98016151041e-06,795.823449118,0.554541932419,,,,z,0,0.533713944489,2018_Nov_27_1533,59.9834168541,chinese_cond1,001,1059,
images/radish01.jpg,raisin,x,sounds/animalfarm_chinese.wav,,,,,,,,,0,1,1,1,0,117,117,214,796.93494481,8.65943729877e-06,797.623892548,0.688957680133,,,,x,1,0.667068424053,2018_Nov_27_1533,59.9834168541,chinese_cond1,001,1059,
images/redfox.jpg,red fox,z,sounds/animalfarm_chinese.wav,,,,,,,,,0,1,1,1,0,118,118,1,798.736874785,9.30100213736e-06,799.474356696,0.737491533044,,,,z,1,0.717068937141,2018_Nov_27_1533,59.9834168541,chinese_cond1,001,1059,
images/gorilla.jpg,gorilla,z,sounds/animalfarm_chinese.wav,,,,,,,,,0,1,1,1,0,119,119,80,800.585785358,8.98016151041e-06,801.208285011,0.622509275214,,,,z,1,0.600536631537,2018_Nov_27_1533,59.9834168541,chinese_cond1,001,1059,
images/bat.jpg,hand,x,sounds/animalfarm_chinese.wav,,,,,,,,,0,1,1,1,0,120,120,185,802.306792757,9.62160993367e-06,803.02526838,0.718485244201,,,,x,1,0.700418349355,2018_Nov_27_1533,59.9834168541,chinese_cond1,001,1059,
images/desktopcomputer.jpg,desktop computer,z,sounds/animalfarm_chinese.wav,,,,,,,,,0,1,1,1,0,121,121,16,804.161749575,8.98016151041e-06,804.892419037,0.730679724715,,,,z,1,0.717077917419,2018_Nov_27_1533,59.9834168541,chinese_cond1,001,1059,
images/aquarium.jpg,computer mouse,x,sounds/animalfarm_chinese.wav,,,,,,,,,0,1,1,1,0,122,122,159,806.028208756,9.30088572204e-06,806.876231251,0.848032115726,,,,x,1,0.833778922679,2018_Nov_27_1533,59.9834168541,chinese_cond1,001,1059,
images/mailbox01.jpg,mail box,z,sounds/animalfarm_chinese.wav,,,,,,,,,0,1,1,1,0,123,123,73,807.996155509,9.621726349e-06,808.543316352,0.547170464881,,,,z,1,0.533694059704,2018_Nov_27_1533,59.9834168541,chinese_cond1,001,1059,
images/button07.jpg,radish,x,sounds/animalfarm_chinese.wav,,,,,,,,,0,1,1,1,0,124,124,215,809.656140794,9.62160993367e-06,810.277237611,0.62112407817,,,,x,1,0.600460299873,2018_Nov_27_1533,59.9834168541,chinese_cond1,001,1059,
images/cupcake.jpg,scissors,x,sounds/animalfarm_chinese.wav,,,,,,,,,0,1,1,1,0,125,125,219,811.396776683,9.621726349e-06,812.310950593,0.914183532353,,,,x,1,0.900471396744,2018_Nov_27_1533,59.9834168541,chinese_cond1,001,1059,
images/highheelshoe02a.jpg,high heel shoe,z,sounds/animalfarm_chinese.wav,,,,,,,,,0,1,1,1,0,126,126,75,813.418063623,9.30088572204e-06,813.994543882,0.57648955984,,,,z,1,0.566866305191,2018_Nov_27_1533,59.9834168541,chinese_cond1,001,1059,
images/kiwi03.jpg,backpack,x,sounds/animalfarm_chinese.wav,,,,,,,,,0,1,1,1,0,127,127,125,815.123684079,9.30100213736e-06,815.945198924,0.821524787927,,,,x,1,0.80043893971,2018_Nov_27_1533,59.9834168541,chinese_cond1,001,1059,
images/donut.jpg,rhinoceros,x,sounds/animalfarm_chinese.wav,,,,,,,,,0,1,1,1,0,128,128,216,817.071793553,9.62160993367e-06,817.795660186,0.723877217504,,,,z,0,0.700402634102,2018_Nov_27_1533,59.9834168541,chinese_cond1,001,1059,
images/mitten01.jpg,mitten,z,sounds/animalfarm_chinese.wav,,,,,,,,,0,1,1,1,0,129,129,102,818.916606264,8.98016151041e-06,819.912872422,0.996275779558,,,,z,1,0.983821835252,2018_Nov_27_1533,59.9834168541,chinese_cond1,001,1059,
images/graduationcap.jpg,graduation cap,z,sounds/animalfarm_chinese.wav,,,,,,,,,0,1,1,1,0,130,130,35,821.015394962,9.62160993367e-06,822.130105569,1.11472054874,,,,z,1,1.10052123689,2018_Nov_27_1533,59.9834168541,chinese_cond1,001,1059,
images/pouch01b.jpg,pouch,z,sounds/animalfarm_chinese.wav,,,,,,,,,0,1,1,1,0,131,131,25,823.242689149,9.30100213736e-06,824.080594798,0.837915270473,,,,z,1,0.817113260855,2018_Nov_27_1533,59.9834168541,chinese_cond1,001,1059,
images/mirror02.jpg,8 ball,x,sounds/animalfarm_chinese.wav,,,,,,,,,0,1,1,1,0,132,132,121,825.182862364,8.98016151041e-06,826.031086272,0.848233849742,,,,x,1,0.833767697448,2018_Nov_27_1533,59.9834168541,chinese_cond1,001,1059,
images/parrot01.jpg,chameleon,x,sounds/animalfarm_chinese.wav,,,,,,,,,0,1,1,1,0,133,133,150,827.144894367,9.62160993367e-06,828.314998101,1.17011367658,,,,x,1,1.15052688157,2018_Nov_27_1533,59.9834168541,chinese_cond1,001,1059,
images/honeycomb.jpg,honey comb,z,sounds/animalfarm_chinese.wav,,,,,,,,,0,1,1,1,0,134,134,59,829.427952436,9.30088572204e-06,830.265488292,0.837545799091,,,,z,1,0.817112298682,2018_Nov_27_1533,59.9834168541,chinese_cond1,001,1059,
images/blackolive.jpg,tank,x,sounds/animalfarm_chinese.wav,,,,,,,,,0,1,1,1,0,135,135,229,831.381234188,8.98016151041e-06,832.09928293,0.718058684375,,,,x,1,0.700406161952,2018_Nov_27_1533,59.9834168541,chinese_cond1,001,1059,
images/dreamcatcher.jpg,dream catcher,z,sounds/animalfarm_chinese.wav,,,,,,,,,0,1,1,1,0,136,136,48,833.198093117,9.30100213736e-06,833.866397923,0.668314427952,,,,z,1,0.650391536998,2018_Nov_27_1533,59.9834168541,chinese_cond1,001,1059,
images/pineapple01a.jpg,pineapple,z,sounds/animalfarm_chinese.wav,,,,,,,,,0,1,1,1,0,137,137,51,834.980172664,8.98027792573e-06,835.616845009,0.63668132585,,,,z,1,0.617058289237,2018_Nov_27_1533,59.9834168541,chinese_cond1,001,1059,
images/snowman.jpg,globe,x,sounds/animalfarm_chinese.wav,,,,,,,,,0,1,1,1,0,138,138,180,836.728503628,9.621726349e-06,837.500645933,0.772151927231,,,,x,1,0.750413089641,2018_Nov_27_1533,59.9834168541,chinese_cond1,001,1059,
images/cookingpot.jpg,grasshopper,x,sounds/animalfarm_chinese.wav,,,,,,,,,0,1,1,1,0,139,139,183,838.6151346,8.98027792573e-06,839.284440379,0.669315400301,,,,z,0,0.650400196551,2018_Nov_27_1533,59.9834168541,chinese_cond1,001,1059,
images/fryingpan01.jpg,frying pan,z,sounds/animalfarm_chinese.wav,,,,,,,,,0,1,1,1,0,140,140,45,840.385753799,9.30088572204e-06,840.934853084,0.549108906765,,,,z,1,0.533701436361,2018_Nov_27_1533,59.9834168541,chinese_cond1,001,1059,
images/croissant02b.jpg,croissant,z,sounds/animalfarm_chinese.wav,,,,,,,,,0,1,1,1,0,141,141,39,842.046668535,9.30088572204e-06,842.585283107,0.53862451436,,,,z,1,0.517041868297,2018_Nov_27_1533,59.9834168541,chinese_cond1,001,1059,
images/tape01a.jpg,tie,x,sounds/animalfarm_chinese.wav,,,,,,,,,0,1,1,1,0,142,142,232,843.712203589,9.30088572204e-06,844.535775864,0.823582217563,,,,z,0,0.800441505504,2018_Nov_27_1533,59.9834168541,chinese_cond1,001,1059,
images/paperclip04.jpg,eye drops,x,sounds/animalfarm_chinese.wav,,,,,,,,,0,1,1,1,0,143,143,174,845.640707024,8.98016151041e-06,846.402903109,0.762205385021,,,,z,0,0.750418862561,2018_Nov_27_1533,59.9834168541,chinese_cond1,001,1059,
images/leaf01a.jpg,leaf,z,sounds/animalfarm_chinese.wav,,,,,,,,,0,1,1,1,0,144,144,68,847.506290956,8.65943729877e-06,848.019977434,0.513696099515,,,,z,1,0.500356963254,2018_Nov_27_1533,59.9834168541,chinese_cond1,001,1059,
images/radio03a.jpg,radio,z,sounds/animalfarm_chinese.wav,,,,,,,,,0,1,1,1,0,145,145,37,849.134101761,9.30088572204e-06,849.603706645,0.469614826026,,,,z,1,0.450340734795,2018_Nov_27_1533,59.9834168541,chinese_cond1,001,1059,
images/parkfountain.jpg,park fountain,z,sounds/animalfarm_chinese.wav,,,,,,,,,0,1,1,1,0,146,146,93,850.724196336,9.30088572204e-06,851.35416239,0.62997567642,,,,z,1,0.617061817087,2018_Nov_27_1533,59.9834168541,chinese_cond1,001,1059,
images/broadsword.jpg,teapot,x,sounds/animalfarm_chinese.wav,,,,,,,,,0,1,1,1,0,147,147,231,852.447641541,9.30088572204e-06,853.121272572,0.67364129459,,,,x,1,0.650343428832,2018_Nov_27_1533,59.9834168541,chinese_cond1,001,1059,
images/lighter02b.jpg,stapler,x,sounds/animalfarm_chinese.wav,,,,,,,,,0,1,1,1,0,148,148,227,854.223085035,9.30088572204e-06,855.188456071,0.965380978887,,,,x,1,0.950468702707,2018_Nov_27_1533,59.9834168541,chinese_cond1,001,1059,
images/beermug01b.jpg,beer mug,z,sounds/animalfarm_chinese.wav,,,,,,,,,0,1,1,1,0,149,149,111,856.305635914,9.30100213736e-06,857.038930162,0.733303869725,,,,z,1,0.717060598428,2018_Nov_27_1533,59.9834168541,chinese_cond1,001,1059,
images/atm.jpg,atm,z,sounds/animalfarm_chinese.wav,,,,,,,,,0,1,1,1,0,150,150,96,858.176395973,9.30088572204e-06,858.739351077,0.562964725657,,,,z,1,0.550367739517,2018_Nov_27_1533,59.9834168541,chinese_cond1,001,1059,
images/globe.jpg,cloud,x,sounds/animalfarm_chinese.wav,,,,,,,,,0,1,1,1,0,151,151,154,859.868065676,9.30100213736e-06,860.623173811,0.755118076922,,,,x,1,0.733754804474,2018_Nov_27_1533,59.9834168541,chinese_cond1,001,1059,
images/flipflop01b.jpg,flip flop,z,sounds/animalfarm_chinese.wav,,,,,,,,,0,1,1,1,0,152,152,27,861.74084564,8.98027792573e-06,862.340265519,0.599429500289,,,,z,1,0.583709967555,2018_Nov_27_1533,59.9834168541,chinese_cond1,001,1059,
images/toucan.jpg,toucan,z,sounds/animalfarm_chinese.wav,,,,,,,,,0,1,1,1,0,153,153,81,863.441510625,9.30100213736e-06,864.023872278,0.582371595898,,,,x,0,0.566882662009,2018_Nov_27_1533,59.9834168541,chinese_cond1,001,1059,
images/lightbulb03b.jpg,treadmill,x,sounds/animalfarm_chinese.wav,,,,,,,,,0,1,1,1,0,154,154,234,865.126992644,8.98016151041e-06,865.7411298,0.614146777662,,,,z,0,0.600382685196,2018_Nov_27_1533,59.9834168541,chinese_cond1,001,1059,
images/eraser.jpg,eraser,z,sounds/animalfarm_chinese.wav,,,,,,,,,0,1,1,1,0,155,155,110,866.848411209,8.98016151041e-06,867.408221316,0.559820049442,,,,z,1,0.550373512437,2018_Nov_27_1533,59.9834168541,chinese_cond1,001,1059,
images/cockroach02.jpg,belt,x,sounds/animalfarm_chinese.wav,,,,,,,,,0,1,1,1,0,156,156,129,868.507804121,9.30088572204e-06,869.158667119,0.650872940314,,,,x,1,0.633728441084,2018_Nov_27_1533,59.9834168541,chinese_cond1,001,1059,
images/bracelet02a.jpg,chess knight,x,sounds/animalfarm_chinese.wav,,,,,,,,,0,1,1,1,0,157,157,152,870.267939568,9.621726349e-06,871.192501976,0.924572349759,,,,x,1,0.900455040042,2018_Nov_27_1533,59.9834168541,chinese_cond1,001,1059,
images/chameleon.jpg,50 dollar bill,x,sounds/animalfarm_chinese.wav,,,,,,,,,0,1,1,1,0,158,158,120,872.302557948,9.30100213736e-06,873.109667578,0.807119893492,,,,x,1,0.783772636554,2018_Nov_27_1533,59.9834168541,chinese_cond1,001,1059,
images/plate01b.jpg,plate,z,sounds/animalfarm_chinese.wav,,,,,,,,,0,1,1,1,0,159,159,3,874.209469436,9.30100213736e-06,875.0601536,0.850693464512,,,,z,1,0.83377443254,2018_Nov_27_1533,59.9834168541,chinese_cond1,001,1059,
images/weight01.jpg,weight,z,sounds/animalfarm_chinese.wav,,,,,,,,,0,1,1,1,0,160,160,67,876.165855134,8.98027792573e-06,877.327402013,1.16155650094,,,,z,1,1.15052720229,2018_Nov_27_1533,59.9834168541,chinese_cond1,001,1059,
images/rubberglove02a.jpg,lady bug,x,sounds/animalfarm_chinese.wav,,,,,,,,,0,1,1,1,0,161,161,192,878.432313609,9.30088572204e-06,879.211203579,0.77889959095,,,,x,1,0.767069771071,2018_Nov_27_1533,59.9834168541,chinese_cond1,001,1059,
images/pepper05a.jpg,lighter,x,sounds/animalfarm_chinese.wav,,,,,,,,,0,1,1,1,0,162,162,198,880.332756462,9.94233414531e-06,881.178382844,0.845636645332,,,,x,1,0.83379014791,2018_Nov_27_1533,59.9834168541,chinese_cond1,001,1059,
images/gps.jpg,gps,z,sounds/animalfarm_chinese.wav,,,,,,,,,0,1,1,1,0,163,163,21,882.298890816,9.62160993367e-06,882.978837499,0.679956946289,,,,x,0,0.667060085223,2018_Nov_27_1533,59.9834168541,chinese_cond1,001,1059,
images/puzzle.jpg,puzzle,z,sounds/animalfarm_chinese.wav,,,,,,,,,0,1,1,1,0,164,164,57,884.099446178,9.94245056063e-06,884.712599039,0.613163124188,,,,z,1,0.600383005803,2018_Nov_27_1533,59.9834168541,chinese_cond1,001,1059,
images/broom02.jpg,broom,z,sounds/animalfarm_chinese.wav,,,,,,,,,0,1,1,1,0,165,165,116,885.807181793,9.30100213736e-06,886.529726732,0.722554881941,,,,x,0,0.700410010642,2018_Nov_27_1533,59.9834168541,chinese_cond1,001,1059,
images/bus.jpg,microphone,x,sounds/animalfarm_chinese.wav,,,,,,,,,0,1,1,1,0,166,166,203,887.64865098,8.98027792573e-06,888.213481023,0.564839664847,,,,z,0,0.550360683585,2018_Nov_27_1533,59.9834168541,chinese_cond1,001,1059,
images/lipstick04.jpg,lipstick,z,sounds/animalfarm_chinese.wav,,,,,,,,,0,1,1,1,0,167,167,56,889.31378417,8.98027792573e-06,889.947258278,0.633483730489,,,,z,1,0.617057327065,2018_Nov_27_1533,59.9834168541,chinese_cond1,001,1059,
images/giraffe.jpg,lettuce,x,sounds/animalfarm_chinese.wav,,,,,,,,,0,1,1,1,0,168,168,195,891.050134575,8.98027792573e-06,891.714369743,0.664245110936,,,,x,1,0.650396347861,2018_Nov_27_1533,59.9834168541,chinese_cond1,001,1059,
images/key03b.jpg,cigar,x,sounds/animalfarm_chinese.wav,,,,,,,,,0,1,1,1,0,169,169,153,892.816448405,9.621726349e-06,893.714873597,0.898435134673,,,,x,1,0.883786170976,2018_Nov_27_1533,59.9834168541,chinese_cond1,001,1059,
images/hanger02a.jpg,hanger,z,sounds/animalfarm_chinese.wav,,,,,,,,,0,1,1,1,0,170,170,88,894.808548709,8.98016151041e-06,895.448652776,0.640113047906,,,,z,1,0.617059572134,2018_Nov_27_1533,59.9834168541,chinese_cond1,001,1059,
images/pen03c.jpg,pepper,x,sounds/animalfarm_chinese.wav,,,,,,,,,0,1,1,1,0,171,171,211,896.543104676,9.30100213736e-06,897.299108265,0.756013211212,,,,x,1,0.73374101345,2018_Nov_27_1533,59.9834168541,chinese_cond1,001,1059,
images/fork01.jpg,cooking pot,x,sounds/animalfarm_chinese.wav,,,,,,,,,0,1,1,1,0,172,172,160,898.393750353,9.30088572204e-06,899.299620779,0.905880047474,,,,x,1,0.88379258546,2018_Nov_27_1533,59.9834168541,chinese_cond1,001,1059,
images/bandaid01.jpg,door handle,x,sounds/animalfarm_chinese.wav,,,,,,,,,0,1,1,1,0,173,173,170,900.40755229,9.62160993367e-06,901.150114113,0.74257208535,,,,x,1,0.733770519728,2018_Nov_27_1533,59.9834168541,chinese_cond1,001,1059,
images/table02.jpg,table,z,sounds/animalfarm_chinese.wav,,,,,,,,,0,1,1,1,0,174,174,49,902.265372512,9.30088572204e-06,903.10059372,0.8352311505,,,,z,1,0.817116468097,2018_Nov_27_1533,59.9834168541,chinese_cond1,001,1059,
images/tissuebox03.jpg,tissue box,z,sounds/animalfarm_chinese.wav,,,,,,,,,0,1,1,1,0,175,175,58,904.226830102,9.30088572204e-06,904.951058831,0.724238991505,,,,z,1,0.700411293539,2018_Nov_27_1533,59.9834168541,chinese_cond1,001,1059,
images/medal01.jpg,medal,z,sounds/animalfarm_chinese.wav,,,,,,,,,0,1,1,1,0,176,176,115,906.053069499,8.98016151041e-06,906.884873097,0.831813219353,,,,z,1,0.817099469947,2018_Nov_27_1533,59.9834168541,chinese_cond1,001,1059,
images/dice05a.jpg,band aid,x,sounds/animalfarm_chinese.wav,,,,,,,,,0,1,1,1,0,177,177,126,907.998027241,9.30088572204e-06,908.668673957,0.670656337636,,,,x,1,0.65041045961,2018_Nov_27_1533,59.9834168541,chinese_cond1,001,1059,
images/raisin.jpg,ruler,x,sounds/animalfarm_chinese.wav,,,,,,,,,0,1,1,1,0,178,178,218,909.774794674,9.30100213736e-06,910.519130408,0.744345997227,,,,x,1,0.733758332441,2018_Nov_27_1533,59.9834168541,chinese_cond1,001,1059,
images/diaper01a.jpg,camera,x,sounds/animalfarm_chinese.wav,,,,,,,,,0,1,1,1,0,179,179,143,911.640285917,8.98016151041e-06,912.352934988,0.712659013807,,,,x,1,0.7004068034,2018_Nov_27_1533,59.9834168541,chinese_cond1,001,1059,
images/gluestick.jpg,squirrel,x,sounds/animalfarm_chinese.wav,,,,,,,,,0,1,1,1,0,180,180,226,913.461014674,9.30088572204e-06,914.13672783,0.67572309915,,,,z,0,0.667074517813,2018_Nov_27_1533,59.9834168541,chinese_cond1,001,1059,
images/daisy.jpg,daisy,z,sounds/animalfarm_chinese.wav,,,,,,,,,0,1,1,1,0,181,181,6,915.239497326,8.98027792573e-06,915.937177354,0.697689328459,,,,z,1,0.683742745314,2018_Nov_27_1533,59.9834168541,chinese_cond1,001,1059,
images/basketball01.jpg,basket ball,z,sounds/animalfarm_chinese.wav,,,,,,,,,0,1,1,1,0,182,182,33,917.07717847,8.98016151041e-06,917.637594741,0.560425251257,,,,z,1,0.550370305311,2018_Nov_27_1533,59.9834168541,chinese_cond1,001,1059,
images/bench02.jpg,electric toothbrush,x,sounds/animalfarm_chinese.wav,,,,,,,,,0,1,1,1,0,183,183,172,918.74759138,9.30088572204e-06,919.63810533,0.890524213202,,,,x,1,0.867114094901,2018_Nov_27_1533,59.9834168541,chinese_cond1,001,1059,
images/bowl02b (1).jpg,bowl,z,sounds/animalfarm_chinese.wav,,,,,,,,,0,1,1,1,0,184,184,24,920.756516744,9.94233414531e-06,921.405219361,0.648712879629,,,,z,1,0.633711122093,2018_Nov_27_1533,59.9834168541,chinese_cond1,001,1059,
images/squirrel.jpg,binder,x,sounds/animalfarm_chinese.wav,,,,,,,,,0,1,1,1,0,185,185,132,922.509090857,8.98027792573e-06,923.122322295,0.613241059589,,,,x,1,0.600391986081,2018_Nov_27_1533,59.9834168541,chinese_cond1,001,1059,
images/masquerademask02b.jpg,mirror,x,sounds/animalfarm_chinese.wav,,,,,,,,,0,1,1,1,0,186,186,204,924.227880466,8.98027792573e-06,924.955958175,0.728087331285,,,,x,1,0.716921726009,2018_Nov_27_1533,59.9834168541,chinese_cond1,001,1059,
images/bottleofredwine02.jpg,pipe,x,sounds/animalfarm_chinese.wav,,,,,,,,,0,1,1,1,0,187,187,213,926.05559422,9.621726349e-06,926.773246871,0.717662272393,,,,x,1,0.700412576436,2018_Nov_27_1533,59.9834168541,chinese_cond1,001,1059,
images/sportshorts02.jpg,tape,x,sounds/animalfarm_chinese.wav,,,,,,,,,0,1,1,1,0,188,188,230,927.882262743,8.98027792573e-06,928.623705567,0.74145212525,,,,x,1,0.717082086834,2018_Nov_27_1533,59.9834168541,chinese_cond1,001,1059,
images/cigar.jpg,crocodile,x,sounds/animalfarm_chinese.wav,,,,,,,,,0,1,1,1,0,189,189,162,929.723185741,9.30088572204e-06,930.457518486,0.734342687298,,,,x,1,0.717043600162,2018_Nov_27_1533,59.9834168541,chinese_cond1,001,1059,
images/notebook02b.jpg,notebook,z,sounds/animalfarm_chinese.wav,,,,,,,,,0,1,1,1,0,190,190,7,931.564475004,9.62160993367e-06,932.124602305,0.560137563967,,,,x,0,0.550381851266,2018_Nov_27_1533,59.9834168541,chinese_cond1,001,1059,
images/scooter.jpg,pen,x,sounds/animalfarm_chinese.wav,,,,,,,,,0,1,1,1,0,191,191,212,933.21804361,9.30088572204e-06,933.925056639,0.707023292081,,,,x,1,0.683745311107,2018_Nov_27_1533,59.9834168541,chinese_cond1,001,1059,
images/crocodile.jpg,triangle ruler,x,sounds/animalfarm_chinese.wav,,,,,,,,,0,1,1,1,0,192,192,235,935.02360191,9.30088572204e-06,935.742198445,0.718606156297,,,,z,0,0.700424443115,2018_Nov_27_1533,59.9834168541,chinese_cond1,001,1059,
images/cake.jpg,cake,z,sounds/animalfarm_chinese.wav,,,,,,,,,0,1,1,1,0,193,193,23,936.856456192,9.62160993367e-06,937.492620514,0.636175868334,,,,z,1,0.617048346787,2018_Nov_27_1533,59.9834168541,chinese_cond1,001,1059,
images/lip.jpg,boxing glove,x,sounds/animalfarm_chinese.wav,,,,,,,,,0,1,1,1,0,194,194,136,938.596445185,8.65943729877e-06,939.159926272,0.563490388566,,,,x,1,0.550578132854,2018_Nov_27_1533,59.9834168541,chinese_cond1,001,1059,
images/diploma01.jpg,glasses,x,sounds/animalfarm_chinese.wav,,,,,,,,,0,1,1,1,0,195,195,179,940.291890423,9.94233414531e-06,941.026869102,0.734988620738,,,,x,1,0.717102292227,2018_Nov_27_1533,59.9834168541,chinese_cond1,001,1059,
images/parkingmeter.jpg,ear,x,sounds/animalfarm_chinese.wav,,,,,,,,,0,1,1,1,0,196,196,171,942.130085043,9.30088572204e-06,942.810634362,0.680559261702,,,,z,0,0.667068424053,2018_Nov_27_1533,59.9834168541,chinese_cond1,001,1059,
images/ant.jpg,ant,z,sounds/animalfarm_chinese.wav,,,,,,,,,0,1,1,1,0,197,197,98,943.905851183,1.02631747723e-05,944.611091903,0.705251304666,,,,z,1,0.683744669543,2018_Nov_27_1533,59.9834168541,chinese_cond1,001,1059,
images/birthdaycandle.jpg,birthday candle,z,sounds/animalfarm_chinese.wav,,,,,,,,,0,1,1,1,0,198,198,55,945.708043828,8.98027792573e-06,946.328189064,0.62015517801,,,,x,0,0.600381402182,2018_Nov_27_1533,59.9834168541,chinese_cond1,001,1059,
images/coffeepot03b.jpg,coffee pot,z,sounds/animalfarm_chinese.wav,,,,,,,,,0,1,1,1,0,199,199,107,947.451087375,8.98016151041e-06,948.445395527,0.994318094337,,,,z,1,0.983825683943,2018_Nov_27_1533,59.9834168541,chinese_cond1,001,1059,
images/nametag01a.jpg,name tag,z,sounds/animalfarm_chinese.wav,,,,,,,,,0,1,1,1,0,200,200,108,949.565687011,8.98016151041e-06,950.195841009,0.630163619295,,,,z,1,0.617063420825,2018_Nov_27_1533,59.9834168541,chinese_cond1,001,1059,
images/butterfly.jpg,butterfly,z,sounds/animalfarm_chinese.wav,,,,,,,,,0,1,1,1,0,201,201,91,951.305570487,8.98016151041e-06,951.912933038,0.607372173108,,,,z,1,0.583706439589,2018_Nov_27_1533,59.9834168541,chinese_cond1,001,1059,
images/axe01.jpg,axe,z,sounds/animalfarm_chinese.wav,,,,,,,,,0,1,1,1,0,202,202,104,953.015899778,9.30088572204e-06,953.830087095,0.81419725914,,,,z,1,0.800418092753,2018_Nov_27_1533,59.9834168541,chinese_cond1,001,1059,
images/screw03c.jpg,screw,z,sounds/animalfarm_chinese.wav,,,,,,,,,0,1,1,1,0,203,203,84,954.924954329,9.30088572204e-06,955.680557979,0.755613591871,,,,z,1,0.733753521577,2018_Nov_27_1533,59.9834168541,chinese_cond1,001,1059,
