images,name,corrAns,sounds,trials_3.thisRepN,trials_3.thisTrialN,trials_3.thisN,trials_3.thisIndex,trials_4.thisRepN,trials_4.thisTrialN,trials_4.thisN,trials_4.thisIndex,trials_2.thisRepN,trials_2.thisTrialN,trials_2.thisN,trials_2.thisIndex,trials.thisRepN,trials.thisTrialN,trials.thisN,trials.thisIndex,begin_global,begin_routine,end_global,end_routine,key_resp_2.keys,key_resp_2.corr,begin_book,key_resp_1.keys,key_resp_1.corr,key_resp_1.rt,date,frameRate,expName,session,participant,
images/volleyball.jpg,volley ball,z,,0,0,0,0,,,,,,,,,,,,,,,,,,,,,,,2018_Nov_28_1540,60.0059659657,chinese_cond2,001,1060,
images/puma.jpg,puma,z,,,,,,0,0,0,0,,,,,,,,,48.1792665655,1.05837825686e-05,51.0165459265,2.83729122742,None,0,,,,,2018_Nov_28_1540,60.0059659657,chinese_cond2,001,1060,
images/charcoalbarbecue.jpg,charcoal barbecue,z,sounds/animalfarm_english.wav,,,,,,,,,0,0,0,1,0,0,0,77,93.2124806126,9.62149351835e-06,95.2610388494,2.04856817913,,,83.0132351376,z,1,2.03410372348,2018_Nov_28_1540,60.0059659657,chinese_cond2,001,1060,
images/cigar.jpg,crocodile,x,sounds/animalfarm_english.wav,,,,,,,,,0,0,0,1,0,1,1,162,96.3674635694,9.62149351835e-06,99.3618718225,2.99441947811,,,,None,0,,2018_Nov_28_1540,60.0059659657,chinese_cond2,001,1060,
images/tape01a.jpg,tie,x,sounds/animalfarm_english.wav,,,,,,,,,0,0,0,1,0,2,2,232,100.490036523,9.30088572204e-06,101.729299151,1.23927256931,,,,z,0,1.21722213179,2018_Nov_28_1540,60.0059659657,chinese_cond2,001,1060,
images/aloe02.jpg,broad sword,x,sounds/animalfarm_english.wav,,,,,,,,,0,0,0,1,0,3,3,137,102.85119699,9.30088572204e-06,104.596656241,1.74546983512,,,,z,0,1.7339826196,2018_Nov_28_1540,60.0059659657,chinese_cond2,001,1060,
images/dice05a.jpg,band aid,x,sounds/animalfarm_english.wav,,,,,,,,,0,0,0,1,0,4,4,126,105.710998567,9.62149351835e-06,108.58099069,2.87000270677,,,,z,0,2.85097441054,2018_Nov_28_1540,60.0059659657,chinese_cond2,001,1060,
images/flower01.jpg,bus,x,sounds/animalfarm_english.wav,,,,,,,,,0,0,0,1,0,5,5,140,109.69716657,9.62149351835e-06,111.381918724,1.68476241734,,,,z,0,1.66758659761,2018_Nov_28_1540,60.0059659657,chinese_cond2,001,1060,
images/mushroom01.jpg,shower head,x,sounds/animalfarm_english.wav,,,,,,,,,0,0,0,1,0,6,6,222,112.500034317,9.30088572204e-06,114.299048296,1.79902456328,,,,x,1,1.78402867494,2018_Nov_28_1540,60.0059659657,chinese_cond2,001,1060,
images/flamingo.jpg,flamingo,z,sounds/animalfarm_english.wav,,,,,,,,,0,0,0,1,0,7,7,52,115.399037136,9.94210131466e-06,116.883021359,1.48399448604,,,,z,1,1.46728467196,2018_Nov_28_1540,60.0059659657,chinese_cond2,001,1060,
images/tie01.jpg,bench,x,sounds/animalfarm_english.wav,,,,,,,,,0,0,0,1,0,8,8,130,117.983040987,8.98027792573e-06,119.433653369,1.45062200376,,,,x,1,1.43394522369,2018_Nov_28_1540,60.0059659657,chinese_cond2,001,1060,
images/hat05.jpg,hat,z,sounds/animalfarm_english.wav,,,,,,,,,0,0,0,1,0,9,9,15,120.539080651,9.62149351835e-06,121.484158374,0.945087986067,,,,z,1,0.933812445728,2018_Nov_28_1540,60.0059659657,chinese_cond2,001,1060,
images/bench02.jpg,electric toothbrush,x,sounds/animalfarm_english.wav,,,,,,,,,0,0,0,1,0,10,10,172,122.594639877,9.30088572204e-06,125.235100648,2.64047103445,,,,x,1,2.61758512212,2018_Nov_28_1540,60.0059659657,chinese_cond2,001,1060,
images/pipe.jpg,icecube,x,sounds/animalfarm_english.wav,,,,,,,,,0,0,0,1,0,11,11,188,126.345304408,9.621726349e-06,128.119125218,1.77383043175,,,,x,1,1.75068537798,2018_Nov_28_1540,60.0059659657,chinese_cond2,001,1060,
images/crocodile.jpg,triangle ruler,x,sounds/animalfarm_english.wav,,,,,,,,,0,0,0,1,0,12,12,235,129.218136824,9.62149351835e-06,131.186565824,1.96843926283,,,,x,1,1.95074965013,2018_Nov_28_1540,60.0059659657,chinese_cond2,001,1060,
images/banjo.jpg,knife,x,sounds/animalfarm_english.wav,,,,,,,,,0,0,0,1,0,13,13,191,132.284704752,9.621726349e-06,134.08728321,1.80258872081,,,,x,1,1.78404695611,2018_Nov_28_1540,60.0059659657,chinese_cond2,001,1060,
images/graduationcap.jpg,graduation cap,z,sounds/animalfarm_english.wav,,,,,,,,,0,0,0,1,0,14,14,35,135.191477004,9.30088572204e-06,136.804600916,1.61313417507,,,,z,1,1.60064727627,2018_Nov_28_1540,60.0059659657,chinese_cond2,001,1060,
images/tank.jpg,wallet,x,sounds/animalfarm_english.wav,,,,,,,,,0,0,0,1,0,15,15,237,137.909822296,9.62149351835e-06,139.688656274,1.77884424175,,,,x,1,1.76736696856,2018_Nov_28_1540,60.0059659657,chinese_cond2,001,1060,
images/belt02a.jpg,snowman,x,sounds/animalfarm_english.wav,,,,,,,,,0,0,0,1,0,16,16,224,140.793466812,9.94233414531e-06,141.939232608,1.14577605808,,,,x,1,1.1339030168,2018_Nov_28_1540,60.0059659657,chinese_cond2,001,1060,
images/puzzle.jpg,puzzle,z,sounds/animalfarm_english.wav,,,,,,,,,0,0,0,1,0,17,17,57,143.061124674,1.02629419416e-05,144.473174368,1.41206059814,,,,z,1,1.40061090677,2018_Nov_28_1540,60.0059659657,chinese_cond2,001,1060,
images/bandaid01.jpg,door handle,x,sounds/animalfarm_english.wav,,,,,,,,,0,0,0,1,0,18,18,170,145.581784471,9.30088572204e-06,147.640611189,2.05883665988,,,,x,1,2.03409313969,2018_Nov_28_1540,60.0059659657,chinese_cond2,001,1060,
images/hairband.jpg,hairband,z,sounds/animalfarm_english.wav,,,,,,,,,0,0,0,1,0,19,19,66,148.751745998,9.30088572204e-06,151.424871744,2.67313665105,,,,x,0,2.65090244077,2018_Nov_28_1540,60.0059659657,chinese_cond2,001,1060,
images/candycane01a.jpg,lip,x,sounds/animalfarm_english.wav,,,,,,,,,0,0,0,1,0,20,20,200,152.521759224,8.65943729877e-06,153.592074119,1.0703251583,,,,x,1,1.05051270244,2018_Nov_28_1540,60.0059659657,chinese_cond2,001,1060,
images/scooter.jpg,pen,x,sounds/animalfarm_english.wav,,,,,,,,,0,0,0,1,0,21,21,212,154.685801228,9.94233414531e-06,155.759451608,1.07365968055,,,,x,1,1.05067915586,2018_Nov_28_1540,60.0059659657,chinese_cond2,001,1060,
images/binder03b.jpg,dj mixer,x,sounds/animalfarm_english.wav,,,,,,,,,0,0,0,1,0,22,22,167,156.873308364,9.30088572204e-06,159.126770533,2.25347243156,,,,x,1,2.23413816863,2018_Nov_28_1540,60.0059659657,chinese_cond2,001,1060,
images/cake.jpg,cake,z,sounds/animalfarm_english.wav,,,,,,,,,0,0,0,1,0,23,23,23,160.242351157,9.62149351835e-06,161.727419413,1.48507915996,,,,x,0,1.46728146472,2018_Nov_28_1540,60.0059659657,chinese_cond2,001,1060,
images/gps.jpg,gps,z,sounds/animalfarm_english.wav,,,,,,,,,0,0,0,1,0,24,24,21,162.849823027,9.62149351835e-06,164.211379582,1.36156681809,,,,z,1,1.35057768039,2018_Nov_28_1540,60.0059659657,chinese_cond2,001,1060,
images/skateboard.jpg,key,x,sounds/animalfarm_english.wav,,,,,,,,,0,0,0,1,0,25,25,189,165.303491547,9.62149351835e-06,166.211868038,0.908387395786,,,,x,1,0.883803593926,2018_Nov_28_1540,60.0059659657,chinese_cond2,001,1060,
images/safe.jpg,safe,z,sounds/animalfarm_english.wav,,,,,,,,,0,0,0,1,0,26,26,78,167.32411414,9.94233414531e-06,168.429076379,1.10497314297,,,,z,1,1.08386562113,2018_Nov_28_1540,60.0059659657,chinese_cond2,001,1060,
images/comb02a.jpg,diploma,x,sounds/animalfarm_english.wav,,,,,,,,,0,0,0,1,0,27,27,166,169.535199622,9.30088572204e-06,170.812992866,1.27780318586,,,,x,1,1.26723868074,2018_Nov_28_1540,60.0059659657,chinese_cond2,001,1060,
images/radio03a.jpg,radio,z,sounds/animalfarm_english.wav,,,,,,,,,0,0,0,1,0,28,28,37,171.928159762,9.62149351835e-06,173.146904671,1.21875517163,,,,z,1,1.2005588219,2018_Nov_28_1540,60.0059659657,chinese_cond2,001,1060,
images/50dollarbill.jpg,cherry,x,sounds/animalfarm_english.wav,,,,,,,,,0,0,0,1,0,29,29,151,174.268672939,9.30088572204e-06,175.480810061,1.21214674343,,,,x,1,1.20055433176,2018_Nov_28_1540,60.0059659657,chinese_cond2,001,1060,
images/toucan.jpg,toucan,z,sounds/animalfarm_english.wav,,,,,,,,,0,0,0,1,0,30,30,81,176.581949963,9.62149351835e-06,177.564666702,0.982727964176,,,,x,0,0.967123991577,2018_Nov_28_1540,60.0059659657,chinese_cond2,001,1060,
images/candle08a.jpg,screw driver,x,sounds/animalfarm_english.wav,,,,,,,,,0,0,0,1,0,31,31,221,178.679993316,9.30088572204e-06,179.915232195,1.2352494623,,,,x,1,1.2171858903,2018_Nov_28_1540,60.0059659657,chinese_cond2,001,1060,
images/gamecontroller01.jpg,game controller,z,sounds/animalfarm_english.wav,,,,,,,,,0,0,0,1,0,32,32,112,181.035756712,8.98004509509e-06,181.965750991,0.930004220689,,,,z,1,0.917156191776,2018_Nov_28_1540,60.0059659657,chinese_cond2,001,1060,
images/parkfountain.jpg,park fountain,z,sounds/animalfarm_english.wav,,,,,,,,,0,0,0,1,0,33,33,93,183.087334204,9.62149351835e-06,184.599738998,1.51241537812,,,,z,1,1.50064336369,2018_Nov_28_1540,60.0059659657,chinese_cond2,001,1060,
images/saltshaker03c.jpg,salt shaker,z,sounds/animalfarm_english.wav,,,,,,,,,0,0,0,1,0,34,34,63,185.712792994,9.62149351835e-06,186.950330149,1.23754709773,,,,z,1,1.21724297851,2018_Nov_28_1540,60.0059659657,chinese_cond2,001,1060,
images/handbag02a.jpg,candle,x,sounds/animalfarm_english.wav,,,,,,,,,0,0,0,1,0,35,35,144,188.067772872,9.30088572204e-06,189.700985379,1.6332221292,,,,x,1,1.61733111227,2018_Nov_28_1540,60.0059659657,chinese_cond2,001,1060,
images/licenseplate.jpg,license plate,z,sounds/animalfarm_english.wav,,,,,,,,,0,0,0,1,0,36,36,40,190.820243375,9.62149351835e-06,192.034906805,1.21467369329,,,,z,1,1.20057197148,2018_Nov_28_1540,60.0059659657,chinese_cond2,001,1060,
images/birthdaycandle.jpg,birthday candle,z,sounds/animalfarm_english.wav,,,,,,,,,0,0,0,1,0,37,37,55,193.133497307,9.30088572204e-06,194.285467102,1.1519803796,,,,z,1,1.13388762251,2018_Nov_28_1540,60.0059659657,chinese_cond2,001,1060,
images/floorlamp.jpg,floor lamp,z,sounds/animalfarm_english.wav,,,,,,,,,0,0,0,1,0,38,38,26,195.380042835,9.62149351835e-06,196.669373327,1.28934299923,,,,z,1,1.26724060532,2018_Nov_28_1540,60.0059659657,chinese_cond2,001,1060,
images/button07.jpg,radish,x,sounds/animalfarm_english.wav,,,,,,,,,0,0,0,1,0,39,39,215,197.783399744,9.30088572204e-06,198.803232405,1.01984260371,,,,x,1,1.00050962344,2018_Nov_28_1540,60.0059659657,chinese_cond2,001,1060,
images/aquarium.jpg,computer mouse,x,sounds/animalfarm_english.wav,,,,,,,,,0,0,0,1,0,40,40,159,199.939618433,9.62149351835e-06,201.437210791,1.49760229979,,,,x,1,1.48396209371,2018_Nov_28_1540,60.0059659657,chinese_cond2,001,1060,
images/handfan01b.jpg,handfan,z,sounds/animalfarm_english.wav,,,,,,,,,0,0,0,1,0,41,41,69,202.55298513,9.30088572204e-06,204.23792234,1.68494747253,,,,z,1,1.6673566415,2018_Nov_28_1540,60.0059659657,chinese_cond2,001,1060,
images/pictureframe04.jpg,picture frame,z,sounds/animalfarm_english.wav,,,,,,,,,0,0,0,1,0,42,42,41,205.361059119,9.621726349e-06,207.15530528,1.79425642453,,,,z,1,1.78404310718,2018_Nov_28_1540,60.0059659657,chinese_cond2,001,1060,
images/parkbench03.jpg,park bench,z,sounds/animalfarm_english.wav,,,,,,,,,0,0,0,1,0,43,43,71,208.262138918,9.62149351835e-06,209.422512851,1.16038419632,,,,z,1,1.15054163127,2018_Nov_28_1540,60.0059659657,chinese_cond2,001,1060,
images/watermelon01.jpg,orange,x,sounds/animalfarm_english.wav,,,,,,,,,0,0,0,1,0,44,44,207,210.551588075,9.30088572204e-06,211.423021513,0.871443700278,,,,x,1,0.850481785135,2018_Nov_28_1540,60.0059659657,chinese_cond2,001,1060,
images/microphone01.jpg,diaper,x,sounds/animalfarm_english.wav,,,,,,,,,0,0,0,1,0,45,45,164,212.523655319,9.62149351835e-06,213.973638128,1.4499927517,,,,z,0,1.43394362018,2018_Nov_28_1540,60.0059659657,chinese_cond2,001,1060,
images/parrot01.jpg,chameleon,x,sounds/animalfarm_english.wav,,,,,,,,,0,0,0,1,0,46,46,150,215.088194374,9.30088572204e-06,216.290876681,1.20269224886,,,,z,0,1.18388749403,2018_Nov_28_1540,60.0059659657,chinese_cond2,001,1060,
images/headphones02b.jpg,headphones,z,sounds/animalfarm_english.wav,,,,,,,,,0,0,0,1,0,47,47,101,217.400151316,9.30088572204e-06,218.458071359,1.05792998569,,,,z,1,1.03383496031,2018_Nov_28_1540,60.0059659657,chinese_cond2,001,1060,
images/medal01.jpg,medal,z,sounds/animalfarm_english.wav,,,,,,,,,0,0,0,1,0,48,48,115,219.560934487,9.62149351835e-06,220.54192383,0.980999606196,,,,x,0,0.967144517694,2018_Nov_28_1540,60.0059659657,chinese_cond2,001,1060,
images/envelope02a.jpg,grand piano,x,sounds/animalfarm_english.wav,,,,,,,,,0,0,0,1,0,49,49,182,221.667132458,9.30088572204e-06,223.225920369,1.55879785307,,,,x,1,1.55062848213,2018_Nov_28_1540,60.0059659657,chinese_cond2,001,1060,
images/dragonfly02.jpg,dragon fly,z,sounds/animalfarm_english.wav,,,,,,,,,0,0,0,1,0,50,50,29,224.326145578,9.30088572204e-06,225.659909211,1.33377357433,,,,z,1,1.3173036587,2018_Nov_28_1540,60.0059659657,chinese_cond2,001,1060,
images/lighter02b.jpg,stapler,x,sounds/animalfarm_english.wav,,,,,,,,,0,0,0,1,0,51,51,227,226.762970223,9.30088572204e-06,227.660359501,0.897399220383,,,,x,1,0.883820912568,2018_Nov_28_1540,60.0059659657,chinese_cond2,001,1060,
images/rhinoceros01.jpg,envelope,x,sounds/animalfarm_english.wav,,,,,,,,,0,0,0,1,0,52,52,173,228.774676169,9.621726349e-06,230.344549113,1.56988320686,,,,x,1,1.55078916298,2018_Nov_28_1540,60.0059659657,chinese_cond2,001,1060,
images/triangleruler02.jpg,bottle of red wine,x,sounds/animalfarm_english.wav,,,,,,,,,0,0,0,1,0,53,53,134,231.456977705,9.30088572204e-06,232.761603958,1.30463619484,,,,x,1,1.28390070773,2018_Nov_28_1540,60.0059659657,chinese_cond2,001,1060,
images/flashlight05.jpg,flash light,z,sounds/animalfarm_english.wav,,,,,,,,,0,0,0,1,0,54,54,8,233.865315389,9.62149351835e-06,234.662072785,0.796767338412,,,,z,1,0.783779154997,2018_Nov_28_1540,60.0059659657,chinese_cond2,001,1060,
images/printer03a.jpg,printer,z,sounds/animalfarm_english.wav,,,,,,,,,0,0,0,1,0,55,55,72,235.772866669,9.30088572204e-06,236.662569901,0.889712853357,,,,z,1,0.867137718247,2018_Nov_28_1540,60.0059659657,chinese_cond2,001,1060,
images/paintbrush03a.jpg,paint brush,z,sounds/animalfarm_english.wav,,,,,,,,,0,0,0,1,0,56,56,0,237.764252139,9.621726349e-06,238.929789659,1.16554746218,,,,z,1,1.15053585847,2018_Nov_28_1540,60.0059659657,chinese_cond2,001,1060,
images/showerhead01.jpg,skateboard,x,sounds/animalfarm_english.wav,,,,,,,,,0,0,0,1,0,57,57,223,240.039421576,9.621726349e-06,241.880539309,1.84112863825,,,,z,0,1.81737357564,2018_Nov_28_1540,60.0059659657,chinese_cond2,001,1060,
images/bed.jpg,bed,z,sounds/animalfarm_english.wav,,,,,,,,,0,0,0,1,0,58,58,103,243.002450619,9.30088572204e-06,243.680984661,0.678544304799,,,,z,1,0.667080181185,2018_Nov_28_1540,60.0059659657,chinese_cond2,001,1060,
images/hairpin.jpg,hair pin,z,sounds/animalfarm_english.wav,,,,,,,,,0,0,0,1,0,59,59,28,244.773948456,9.30088572204e-06,245.981530076,1.2075915623,,,,x,0,1.18387947604,2018_Nov_28_1540,60.0059659657,chinese_cond2,001,1060,
images/candy.jpg,candy,z,sounds/animalfarm_english.wav,,,,,,,,,0,0,0,1,0,60,60,31,247.085283843,9.94233414531e-06,247.832000636,0.746727376711,,,,z,1,0.733775755391,2018_Nov_28_1540,60.0059659657,chinese_cond2,001,1060,
images/magnifyingglass01b.jpg,magnifying glass,z,sounds/animalfarm_english.wav,,,,,,,,,0,0,0,1,0,61,61,64,248.940417988,9.30088572204e-06,250.082653621,1.14225231158,,,,z,1,1.13388441503,2018_Nov_28_1540,60.0059659657,chinese_cond2,001,1060,
images/carrot02.jpg,corkscrew,x,sounds/animalfarm_english.wav,,,,,,,,,0,0,0,1,0,62,62,161,251.185972492,1.02629419416e-05,252.166400256,0.98043898819,,,,z,0,0.967178513762,2018_Nov_28_1540,60.0059659657,chinese_cond2,001,1060,
images/dreamcatcher.jpg,dream catcher,z,sounds/animalfarm_english.wav,,,,,,,,,0,0,0,1,0,63,63,48,253.26771495,9.62149351835e-06,254.833708468,1.56600410258,,,,z,1,1.55061886064,2018_Nov_28_1540,60.0059659657,chinese_cond2,001,1060,
images/lantern03.jpg,lantern,z,sounds/animalfarm_english.wav,,,,,,,,,0,0,0,1,0,64,64,5,255.942529606,9.62149351835e-06,257.25099391,1.30847424688,,,,x,0,1.28392476169,2018_Nov_28_1540,60.0059659657,chinese_cond2,001,1060,
images/lollipop03b.jpg,lollipop,z,sounds/animalfarm_english.wav,,,,,,,,,0,0,0,1,0,65,65,42,258.345493312,9.62149351835e-06,259.684907383,1.33942401316,,,,z,1,1.31724432553,2018_Nov_28_1540,60.0059659657,chinese_cond2,001,1060,
images/bowl02b (1).jpg,bowl,z,sounds/animalfarm_english.wav,,,,,,,,,0,0,0,1,0,66,66,24,260.80438892,9.62149351835e-06,261.535364472,0.730985815171,,,,z,1,0.717095447471,2018_Nov_28_1540,60.0059659657,chinese_cond2,001,1060,
images/nametag01a.jpg,name tag,z,sounds/animalfarm_english.wav,,,,,,,,,0,0,0,1,0,67,67,108,262.656982965,9.62149351835e-06,263.735908541,1.07893583947,,,,z,1,1.06718499237,2018_Nov_28_1540,60.0059659657,chinese_cond2,001,1060,
images/apple06.jpg,apple,z,sounds/animalfarm_english.wav,,,,,,,,,0,0,0,1,0,68,68,13,264.864761186,8.98027792573e-06,265.469667298,0.604916054988,,,,z,1,0.583730918821,2018_Nov_28_1540,60.0059659657,chinese_cond2,001,1060,
images/mitten01.jpg,mitten,z,sounds/animalfarm_english.wav,,,,,,,,,0,0,0,1,0,69,69,102,266.590591112,9.94233414531e-06,267.803570764,1.212990236,,,,z,1,1.20054503111,2018_Nov_28_1540,60.0059659657,chinese_cond2,001,1060,
images/tent.jpg,tent,z,sounds/animalfarm_english.wav,,,,,,,,,0,0,0,1,0,70,70,11,268.930389405,9.94233414531e-06,269.770721375,0.840341912815,,,,z,1,0.817111547571,2018_Nov_28_1540,60.0059659657,chinese_cond2,001,1060,
images/icecube02 (2).jpg,aloe,x,sounds/animalfarm_english.wav,,,,,,,,,0,0,0,1,0,71,71,122,270.882943745,9.62149351835e-06,271.804562429,0.921629268443,,,,z,0,0.900476204464,2018_Nov_28_1540,60.0059659657,chinese_cond2,001,1060,
images/8ball.jpg,nail clipper,x,sounds/animalfarm_english.wav,,,,,,,,,0,0,0,1,0,72,72,206,272.922253068,1.02631747723e-05,274.021789051,1.09954688745,,,,x,1,1.08386497968,2018_Nov_28_1540,60.0059659657,chinese_cond2,001,1060,
images/sportshorts02.jpg,tape,x,sounds/animalfarm_english.wav,,,,,,,,,0,0,0,1,0,73,73,230,275.131674015,9.621726349e-06,276.955840112,1.82417603931,,,,x,1,1.80070032342,2018_Nov_28_1540,60.0059659657,chinese_cond2,001,1060,
images/mailbox01.jpg,mail box,z,sounds/animalfarm_english.wav,,,,,,,,,0,0,0,1,0,74,74,73,278.077503505,9.94233414531e-06,278.972998292,0.895505691413,,,,z,1,0.883798141498,2018_Nov_28_1540,60.0059659657,chinese_cond2,001,1060,
images/electrictoothbrush01a.jpg,banjo,x,sounds/animalfarm_english.wav,,,,,,,,,0,0,0,1,0,75,75,127,280.069935163,1.02629419416e-05,280.973497332,0.903572752606,,,,z,0,0.883800386684,2018_Nov_28_1540,60.0059659657,chinese_cond2,001,1060,
images/corn01.jpg,corn,z,sounds/animalfarm_english.wav,,,,,,,,,0,0,0,1,0,76,76,22,282.074408561,8.98027792573e-06,283.390763852,1.31636491232,,,,z,1,1.30056369677,2018_Nov_28_1540,60.0059659657,chinese_cond2,001,1060,
images/cookingpot.jpg,grasshopper,x,sounds/animalfarm_english.wav,,,,,,,,,0,0,0,1,0,77,77,183,284.50610105,9.3006528914e-06,286.041421263,1.53533047577,,,,z,0,1.51730218343,2018_Nov_28_1540,60.0059659657,chinese_cond2,001,1060,
images/mattress.jpg,cat,x,sounds/animalfarm_english.wav,,,,,,,,,0,0,0,1,0,78,78,147,287.147268367,1.02629419416e-05,288.208609526,1.06135206413,,,,x,1,1.05050500506,2018_Nov_28_1540,60.0059659657,chinese_cond2,001,1060,
images/snowman.jpg,globe,x,sounds/animalfarm_english.wav,,,,,,,,,0,0,0,1,0,79,79,180,289.321524329,9.30088572204e-06,290.409176046,1.08766230009,,,,z,0,1.06720648077,2018_Nov_28_1540,60.0059659657,chinese_cond2,001,1060,
images/broom02.jpg,broom,z,sounds/animalfarm_english.wav,,,,,,,,,0,0,0,1,0,80,80,116,291.504635361,8.98027792573e-06,292.176277138,0.671652039746,,,,z,1,0.650435473071,2018_Nov_28_1540,60.0059659657,chinese_cond2,001,1060,
images/computermouse02a.jpg,world map,x,sounds/animalfarm_english.wav,,,,,,,,,0,0,0,1,0,81,81,239,293.280026094,8.98004509509e-06,294.76025052,1.48023468978,,,,z,0,1.46730263229,2018_Nov_28_1540,60.0059659657,chinese_cond2,001,1060,
images/camera01a.jpg,bull,x,sounds/animalfarm_english.wav,,,,,,,,,0,0,0,1,0,82,82,138,295.874444674,9.94210131466e-06,296.844075731,0.969641319942,,,,x,1,0.950492433039,2018_Nov_28_1540,60.0059659657,chinese_cond2,001,1060,
images/cherry01.jpg,highlighter,x,sounds/animalfarm_english.wav,,,,,,,,,0,0,0,1,0,83,83,187,297.954829204,9.62149351835e-06,299.278021917,1.3232032964,,,,x,1,1.30058133625,2018_Nov_28_1540,60.0059659657,chinese_cond2,001,1060,
images/lock02a.jpg,lock,z,sounds/animalfarm_english.wav,,,,,,,,,0,0,0,1,0,84,84,65,300.390331842,9.621726349e-06,301.228488692,0.838167113019,,,,z,1,0.817122772569,2018_Nov_28_1540,60.0059659657,chinese_cond2,001,1060,
images/gorilla.jpg,gorilla,z,sounds/animalfarm_english.wav,,,,,,,,,0,0,0,1,0,85,85,80,302.341839673,9.30088572204e-06,303.512386193,1.17055678205,,,,z,1,1.15054098982,2018_Nov_28_1540,60.0059659657,chinese_cond2,001,1060,
images/eyedrops.jpg,bicycle,x,sounds/animalfarm_english.wav,,,,,,,,,0,0,0,1,0,86,86,131,304.615286524,9.621726349e-06,305.962993122,1.34771686117,,,,x,1,1.33383515268,2018_Nov_28_1540,60.0059659657,chinese_cond2,001,1060,
images/leek.jpg,donut,x,sounds/animalfarm_english.wav,,,,,,,,,0,0,0,1,0,87,87,169,307.065651311,9.30088572204e-06,307.880131033,0.814489985351,,,,x,1,0.800441823434,2018_Nov_28_1540,60.0059659657,chinese_cond2,001,1060,
images/rubberglove02a.jpg,lady bug,x,sounds/animalfarm_english.wav,,,,,,,,,0,0,0,1,0,88,88,192,308.986142346,9.62149351835e-06,310.714165032,1.72803230793,,,,x,1,1.71734464657,2018_Nov_28_1540,60.0059659657,chinese_cond2,001,1060,
images/desktopcomputer.jpg,desktop computer,z,sounds/animalfarm_english.wav,,,,,,,,,0,0,0,1,0,89,89,16,311.851506805,9.30088572204e-06,312.898040339,1.04654315533,,,,z,1,1.03384907194,2018_Nov_28_1540,60.0059659657,chinese_cond2,001,1060,
images/daisy.jpg,daisy,z,sounds/animalfarm_english.wav,,,,,,,,,0,0,0,1,0,90,90,6,314.001735093,9.30088572204e-06,314.898542907,0.896817113971,,,,x,0,0.88382411981,2018_Nov_28_1540,60.0059659657,chinese_cond2,001,1060,
images/treadmill.jpg,lily,x,sounds/animalfarm_english.wav,,,,,,,,,0,0,0,1,0,91,91,199,316.007011894,9.621726349e-06,317.215780176,1.20877822512,,,,x,1,1.20056170831,2018_Nov_28_1540,60.0059659657,chinese_cond2,001,1060,
images/key03b.jpg,cigar,x,sounds/animalfarm_english.wav,,,,,,,,,0,0,0,1,0,92,92,153,318.319597445,9.94233414531e-06,319.182941051,0.863354188623,,,,x,1,0.850486275274,2018_Nov_28_1540,60.0059659657,chinese_cond2,001,1060,
images/pepper05a.jpg,lighter,x,sounds/animalfarm_english.wav,,,,,,,,,0,0,0,1,0,93,93,198,320.305367115,9.30088572204e-06,321.816898269,1.51154173794,,,,x,1,1.50062508252,2018_Nov_28_1540,60.0059659657,chinese_cond2,001,1060,
images/hairdryer03a.jpg,hairdryer,z,sounds/animalfarm_english.wav,,,,,,,,,0,0,0,1,0,94,94,119,322.918111295,9.94233414531e-06,324.667623159,1.74952212768,,,,z,1,1.73403489683,2018_Nov_28_1540,60.0059659657,chinese_cond2,001,1060,
images/tissuebox03.jpg,tissue box,z,sounds/animalfarm_english.wav,,,,,,,,,0,0,0,1,0,95,95,58,325.793544106,9.3006528914e-06,326.901506997,1.10797539935,,,,z,1,1.08378223376,2018_Nov_28_1540,60.0059659657,chinese_cond2,001,1060,
images/bicycle.jpg,hand bag,x,sounds/animalfarm_english.wav,,,,,,,,,0,0,0,1,0,96,96,186,328.013869521,9.30088572204e-06,328.951998532,0.938139595091,,,,x,1,0.917153625982,2018_Nov_28_1540,60.0059659657,chinese_cond2,001,1060,
images/cat.jpg,black olive,x,sounds/animalfarm_english.wav,,,,,,,,,0,0,0,1,0,97,97,133,330.084295385,9.30088572204e-06,331.786030928,1.70174548449,,,,z,0,1.68400904676,2018_Nov_28_1540,60.0059659657,chinese_cond2,001,1060,
images/corkscrew02a.jpg,masquerade mask,x,sounds/animalfarm_english.wav,,,,,,,,,0,0,0,1,0,98,98,201,332.893108633,9.94233414531e-06,334.26997923,1.37688150187,,,,x,1,1.36726087471,2018_Nov_28_1540,60.0059659657,chinese_cond2,001,1060,
images/beachumbrella01.jpg,beach umbrella,z,sounds/animalfarm_english.wav,,,,,,,,,0,0,0,1,0,99,99,92,335.377758991,9.30088572204e-06,336.62056557,1.24281652155,,,,z,1,1.23387774429,2018_Nov_28_1540,60.0059659657,chinese_cond2,001,1060,
images/peach01.jpg,peach,z,sounds/animalfarm_english.wav,,,,,,,,,0,0,0,1,0,100,100,106,337.751552925,9.30088572204e-06,339.287915476,1.53637249419,,,,z,1,1.51733104815,2018_Nov_28_1540,60.0059659657,chinese_cond2,001,1060,
images/elbow.jpg,elbow,z,sounds/animalfarm_english.wav,,,,,,,,,0,0,0,1,0,101,101,105,340.401461134,1.02629419416e-05,341.588452874,1.18700232334,,,,x,0,1.16721969424,2018_Nov_28_1540,60.0059659657,chinese_cond2,001,1060,
images/djmixer01.jpg,light bulb,x,sounds/animalfarm_english.wav,,,,,,,,,0,0,0,1,0,102,102,196,342.711898827,8.98004509509e-06,344.4391489,1.72726001497,,,,x,1,1.71734625008,2018_Nov_28_1540,60.0059659657,chinese_cond2,001,1060,
images/straw.jpg,straw,z,sounds/animalfarm_english.wav,,,,,,,,,0,0,0,1,0,103,103,109,345.532049835,9.30088572204e-06,347.689956793,2.15791722108,,,,z,1,2.13412591699,2018_Nov_28_1540,60.0059659657,chinese_cond2,001,1060,
images/lettuce.jpg,mushroom,x,sounds/animalfarm_english.wav,,,,,,,,,0,0,0,1,0,104,104,205,348.815231168,1.02629419416e-05,350.007194704,1.19197411928,,,,x,1,1.16721744905,2018_Nov_28_1540,60.0059659657,chinese_cond2,001,1060,
images/blackolive.jpg,tank,x,sounds/animalfarm_english.wav,,,,,,,,,0,0,0,1,0,105,105,229,351.124209907,9.621726349e-06,352.374449164,1.25025016139,,,,x,1,1.23390436405,2018_Nov_28_1540,60.0059659657,chinese_cond2,001,1060,
images/paperclip04.jpg,eye drops,x,sounds/animalfarm_english.wav,,,,,,,,,0,0,0,1,0,106,106,174,353.481252333,9.30088572204e-06,355.625264433,2.14402236324,,,,z,0,2.13413682161,2018_Nov_28_1540,60.0059659657,chinese_cond2,001,1060,
images/pineapple01a.jpg,pineapple,z,sounds/animalfarm_english.wav,,,,,,,,,0,0,0,1,0,107,107,51,356.740290213,9.621726349e-06,357.642403691,0.902123420732,,,,z,1,0.883810970234,2018_Nov_28_1540,60.0059659657,chinese_cond2,001,1060,
images/masquerademask02b.jpg,mirror,x,sounds/animalfarm_english.wav,,,,,,,,,0,0,0,1,0,108,108,204,358.749277739,9.621726349e-06,361.25996059,2.51069311379,,,,x,1,2.50087556452,2018_Nov_28_1540,60.0059659657,chinese_cond2,001,1060,
images/pen03c.jpg,pepper,x,sounds/animalfarm_english.wav,,,,,,,,,0,0,0,1,0,109,109,211,362.356186746,9.30088572204e-06,364.410738592,2.05456210882,,,,x,1,2.03409281885,2018_Nov_28_1540,60.0059659657,chinese_cond2,001,1060,
images/lemon02.jpg,lemon,z,sounds/animalfarm_english.wav,,,,,,,,,0,0,0,1,0,110,110,14,365.524647305,9.94233414531e-06,366.577939363,1.05330232182,,,,z,1,1.03383977106,2018_Nov_28_1540,60.0059659657,chinese_cond2,001,1060,
images/bat.jpg,hand,x,sounds/animalfarm_english.wav,,,,,,,,,0,0,0,1,0,111,111,185,367.677875925,9.30088572204e-06,369.128582278,1.45071629528,,,,x,1,1.43395227962,2018_Nov_28_1540,60.0059659657,chinese_cond2,001,1060,
images/remotecontrol01c.jpg,remote control,z,sounds/animalfarm_english.wav,,,,,,,,,0,0,0,1,0,112,112,85,370.24037809,8.98004509509e-06,372.029290684,1.78892221511,,,,z,1,1.7673615166,2018_Nov_28_1540,60.0059659657,chinese_cond2,001,1060,
images/butterfly.jpg,butterfly,z,sounds/animalfarm_english.wav,,,,,,,,,0,0,0,1,0,113,113,91,373.138471027,8.98004509509e-06,373.963094149,0.824632743839,,,,z,1,0.800458821468,2018_Nov_28_1540,60.0059659657,chinese_cond2,001,1060,
images/cola.jpg,comb,x,sounds/animalfarm_english.wav,,,,,,,,,0,0,0,1,0,114,114,157,375.085797315,9.62149351835e-06,376.213655408,1.12786835618,,,,x,1,1.1172034659,2018_Nov_28_1540,60.0059659657,chinese_cond2,001,1060,
images/marker01a.jpg,marker,z,sounds/animalfarm_english.wav,,,,,,,,,0,0,0,1,0,115,115,95,377.314334115,8.98027792573e-06,378.197485686,0.883161833975,,,,z,1,0.86714477418,2018_Nov_28_1540,60.0059659657,chinese_cond2,001,1060,
images/notebook02b.jpg,notebook,z,sounds/animalfarm_english.wav,,,,,,,,,0,0,0,1,0,116,116,7,379.305318045,8.98027792573e-06,380.181298966,0.875990221975,,,,z,1,0.867127134465,2018_Nov_28_1540,60.0059659657,chinese_cond2,001,1060,
images/battery03b.jpg,battery,z,sounds/animalfarm_english.wav,,,,,,,,,0,0,0,1,0,117,117,34,381.291850385,9.30088572204e-06,382.048427383,0.756586940028,,,,z,1,0.733773189597,2018_Nov_28_1540,60.0059659657,chinese_cond2,001,1060,
images/lightswitch02a.jpg,fork,x,sounds/animalfarm_english.wav,,,,,,,,,0,0,0,1,0,118,118,177,383.162122818,1.02629419416e-05,384.032243549,0.870131636038,,,,x,1,0.850426300662,2018_Nov_28_1540,60.0059659657,chinese_cond2,001,1060,
images/fireextinguisher02.jpg,fire extinguisher,x,sounds/animalfarm_english.wav,,,,,,,,,0,0,0,1,0,119,119,175,385.144429998,9.30088572204e-06,386.182795123,1.03837570897,,,,z,0,1.0171931386,2018_Nov_28_1540,60.0059659657,chinese_cond2,001,1060,
images/diploma01.jpg,glasses,x,sounds/animalfarm_english.wav,,,,,,,,,0,0,0,1,0,120,120,179,387.316042589,9.621726349e-06,388.399989352,1.08395702625,,,,z,0,1.06717761583,2018_Nov_28_1540,60.0059659657,chinese_cond2,001,1060,
images/coffeepot03b.jpg,coffee pot,z,sounds/animalfarm_english.wav,,,,,,,,,0,0,0,1,0,121,121,107,389.586043307,9.30088572204e-06,390.400480374,0.81444732938,,,,z,1,0.800452086376,2018_Nov_28_1540,60.0059659657,chinese_cond2,001,1060,
images/axe01.jpg,axe,z,sounds/animalfarm_english.wav,,,,,,,,,0,0,0,1,0,122,122,104,391.504586612,1.02631747723e-05,392.767762416,1.26318638818,,,,z,1,1.25059044478,2018_Nov_28_1540,60.0059659657,chinese_cond2,001,1060,
images/cactus.jpg,cactus,z,sounds/animalfarm_english.wav,,,,,,,,,0,0,0,1,0,123,123,70,393.881456567,9.94233414531e-06,394.884924509,1.00347852521,,,,x,0,0.983833805658,2018_Nov_28_1540,60.0059659657,chinese_cond2,001,1060,
images/dryingmachine01.jpg,drying machine,z,sounds/animalfarm_english.wav,,,,,,,,,0,0,0,1,0,124,124,18,396.007978542,9.30088572204e-06,397.152144267,1.14417598769,,,,z,1,1.1338645306,2018_Nov_28_1540,60.0059659657,chinese_cond2,001,1060,
images/nailclipper03a.jpg,aquarium,x,sounds/animalfarm_english.wav,,,,,,,,,0,0,0,1,0,125,125,123,398.253949021,9.30088572204e-06,399.619435995,1.3654969167,,,,z,0,1.35060205497,2018_Nov_28_1540,60.0059659657,chinese_cond2,001,1060,
images/lip.jpg,boxing glove,x,sounds/animalfarm_english.wav,,,,,,,,,0,0,0,1,0,126,126,136,400.724447625,9.30088572204e-06,401.986675061,1.26223705802,,,,x,1,1.25055965595,2018_Nov_28_1540,60.0059659657,chinese_cond2,001,1060,
images/cheetah.jpg,cheetah,z,sounds/animalfarm_english.wav,,,,,,,,,0,0,0,1,0,127,127,82,403.091350576,9.62149351835e-06,404.153872946,1.06253263331,,,,x,0,1.0505082123,2018_Nov_28_1540,60.0059659657,chinese_cond2,001,1060,
images/donut.jpg,rhinoceros,x,sounds/animalfarm_english.wav,,,,,,,,,0,0,0,1,0,128,128,216,405.2811608,9.94233414531e-06,406.637820607,1.35667039128,,,,x,1,1.33391020098,2018_Nov_28_1540,60.0059659657,chinese_cond2,001,1060,
images/glasses01b.jpg,calculator,x,sounds/animalfarm_english.wav,,,,,,,,,0,0,0,1,0,129,129,142,407.732840858,9.30088572204e-06,409.155109,1.42227808456,,,,x,1,1.40060032299,2018_Nov_28_1540,60.0059659657,chinese_cond2,001,1060,
images/honeycomb.jpg,honey comb,z,sounds/animalfarm_english.wav,,,,,,,,,0,0,0,1,0,130,130,59,410.271160761,9.62149351835e-06,411.255637931,0.984487752896,,,,z,1,0.967158629093,2018_Nov_28_1540,60.0059659657,chinese_cond2,001,1060,
images/calculator02b.jpg,dice,x,sounds/animalfarm_english.wav,,,,,,,,,0,0,0,1,0,131,131,165,412.359162062,9.62149351835e-06,413.922956727,1.56380524882,,,,z,0,1.55061084265,2018_Nov_28_1540,60.0059659657,chinese_cond2,001,1060,
images/hanger02a.jpg,hanger,z,sounds/animalfarm_english.wav,,,,,,,,,0,0,0,1,0,132,132,88,415.017837785,9.30088572204e-06,416.540278218,1.5224500543,,,,z,1,1.50062027178,2018_Nov_28_1540,60.0059659657,chinese_cond2,001,1060,
images/computerkeyboard01a.jpg,computer keyboard,z,sounds/animalfarm_english.wav,,,,,,,,,0,0,0,1,0,133,133,61,417.659202986,9.62149351835e-06,418.807488034,1.14829499018,,,,z,1,1.13386773784,2018_Nov_28_1540,60.0059659657,chinese_cond2,001,1060,
images/leaf01a.jpg,leaf,z,sounds/animalfarm_english.wav,,,,,,,,,0,0,0,1,0,134,134,68,419.912841871,9.30088572204e-06,420.891496055,0.978705819231,,,,z,1,0.967227904825,2018_Nov_28_1540,60.0059659657,chinese_cond2,001,1060,
images/table02.jpg,table,z,sounds/animalfarm_english.wav,,,,,,,,,0,0,0,1,0,135,135,49,422.007641145,9.94233414531e-06,422.775155004,0.767525083618,,,,z,1,0.750458949711,2018_Nov_28_1540,60.0059659657,chinese_cond2,001,1060,
images/doll.jpg,carrot,x,sounds/animalfarm_english.wav,,,,,,,,,0,0,0,1,0,136,136,146,423.887863904,9.62149351835e-06,424.825659688,0.937806046568,,,,x,1,0.917170944856,2018_Nov_28_1540,60.0059659657,chinese_cond2,001,1060,
images/ceilingfan02.jpg,paper clip,x,sounds/animalfarm_english.wav,,,,,,,,,0,0,0,1,0,137,137,208,425.925263343,9.94233414531e-06,427.459629094,1.53437601426,,,,x,1,1.51730186259,2018_Nov_28_1540,60.0059659657,chinese_cond2,001,1060,
images/tulip02.jpg,sport shorts,x,sounds/animalfarm_english.wav,,,,,,,,,0,0,0,1,0,138,138,225,428.555623691,9.3006528914e-06,429.6434951,1.0878816722,,,,x,1,1.06718467176,2018_Nov_28_1540,60.0059659657,chinese_cond2,001,1060,
images/grasshopper.jpg,cauliflower,x,sounds/animalfarm_english.wav,,,,,,,,,0,0,0,1,0,139,139,148,430.73892074,9.94210131466e-06,431.777368611,1.03845877526,,,,x,1,1.01714086137,2018_Nov_28_1540,60.0059659657,chinese_cond2,001,1060,
images/screw03c.jpg,screw,z,sounds/animalfarm_english.wav,,,,,,,,,0,0,0,1,0,140,140,84,432.873677833,9.62149351835e-06,433.894571756,1.02090450632,,,,x,0,1.00052469736,2018_Nov_28_1540,60.0059659657,chinese_cond2,001,1060,
images/screwdriver02b.jpg,cola,x,sounds/animalfarm_english.wav,,,,,,,,,0,0,0,1,0,141,141,158,434.990200732,9.62149351835e-06,436.061750077,1.07155928761,,,,x,1,1.05052168248,2018_Nov_28_1540,60.0059659657,chinese_cond2,001,1060,
images/spoon02b.jpg,spoon,z,sounds/animalfarm_english.wav,,,,,,,,,0,0,0,1,0,142,142,38,437.155107075,9.62149351835e-06,438.028893633,0.873796499567,,,,z,1,0.850460938411,2018_Nov_28_1540,60.0059659657,chinese_cond2,001,1060,
images/toothbrush03a.jpg,parrot,x,sounds/animalfarm_english.wav,,,,,,,,,0,0,0,1,0,143,143,210,439.123214714,9.30088572204e-06,440.279453289,1.15624851664,,,,x,1,1.13387254858,2018_Nov_28_1540,60.0059659657,chinese_cond2,001,1060,
images/lychee02a.jpg,lychee,z,sounds/animalfarm_english.wav,,,,,,,,,0,0,0,1,0,144,144,62,441.405151014,9.621726349e-06,443.030157268,1.62501683785,,,,z,1,1.60066651949,2018_Nov_28_1540,60.0059659657,chinese_cond2,001,1060,
images/eraser.jpg,eraser,z,sounds/animalfarm_english.wav,,,,,,,,,0,0,0,1,0,145,145,110,444.139592263,9.62149351835e-06,445.063972023,0.924390343949,,,,z,1,0.900484863902,2018_Nov_28_1540,60.0059659657,chinese_cond2,001,1060,
images/bullet (2).jpg,rubber glove,x,sounds/animalfarm_english.wav,,,,,,,,,0,0,0,1,0,146,146,217,446.170625416,9.30088572204e-06,447.697973822,1.52735802694,,,,x,1,1.51730988058,2018_Nov_28_1540,60.0059659657,chinese_cond2,001,1060,
images/cauliflower01.jpg,glue stick,x,sounds/animalfarm_english.wav,,,,,,,,,0,0,0,1,0,147,147,181,448.814649062,9.62149351835e-06,450.115208269,1.30056946981,,,,x,1,1.28390263207,2018_Nov_28_1540,60.0059659657,chinese_cond2,001,1060,
images/ashtray02b.jpg,ashtray,z,sounds/animalfarm_english.wav,,,,,,,,,0,0,0,1,0,148,148,43,451.230314228,9.62149351835e-06,452.549454007,1.3191503624,,,,z,1,1.30088473717,2018_Nov_28_1540,60.0059659657,chinese_cond2,001,1060,
images/bowlingball.jpg,bowling ball,z,sounds/animalfarm_english.wav,,,,,,,,,0,0,0,1,0,149,149,20,453.684073512,8.98004509509e-06,454.666328094,0.982263882877,,,,z,1,0.967135858024,2018_Nov_28_1540,60.0059659657,chinese_cond2,001,1060,
images/volleyball.jpg,volley ball,z,sounds/animalfarm_english.wav,,,,,,,,,0,0,0,1,0,150,150,2,455.799407503,9.94233414531e-06,456.716859077,0.917461517034,,,,z,1,0.900495768292,2018_Nov_28_1540,60.0059659657,chinese_cond2,001,1060,
images/baseball01a.jpg,baseball,z,sounds/animalfarm_english.wav,,,,,,,,,0,0,0,1,0,151,151,74,457.851089228,8.98027792573e-06,458.35058666,0.499507374596,,,,z,1,0.483721553814,2018_Nov_28_1540,60.0059659657,chinese_cond2,001,1060,
images/boxingglove02a.jpg,bracelet,x,sounds/animalfarm_english.wav,,,,,,,,,0,0,0,1,0,152,152,135,459.463536101,9.62149351835e-06,460.584485251,1.12095973431,,,,z,0,1.1005494569,2018_Nov_28_1540,60.0059659657,chinese_cond2,001,1060,
images/dolphin01.jpg,dolphin,z,sounds/animalfarm_english.wav,,,,,,,,,0,0,0,1,0,153,153,99,461.686408671,9.30088572204e-06,462.60162034,0.915220969357,,,,z,1,0.900472355774,2018_Nov_28_1540,60.0059659657,chinese_cond2,001,1060,
images/ostrich.jpg,ostrich,z,sounds/animalfarm_english.wav,,,,,,,,,0,0,0,1,0,154,154,76,463.704171408,9.621726349e-06,465.102240612,1.39807914593,,,,z,1,1.383927071,2018_Nov_28_1540,60.0059659657,chinese_cond2,001,1060,
images/backpack01b.jpg,swallow,x,sounds/animalfarm_english.wav,,,,,,,,,0,0,0,1,0,155,155,228,466.234768383,9.62149351835e-06,468.23634921,2.00159076927,,,,z,0,1.98407466616,2018_Nov_28_1540,60.0059659657,chinese_cond2,001,1060,
images/cockroach02.jpg,belt,x,sounds/animalfarm_english.wav,,,,,,,,,0,0,0,1,0,156,156,129,469.338066086,9.30088572204e-06,470.586929456,1.24887331203,,,,x,1,1.23389378027,2018_Nov_28_1540,60.0059659657,chinese_cond2,001,1060,
images/redfox.jpg,red fox,z,sounds/animalfarm_english.wav,,,,,,,,,0,0,0,1,0,157,157,1,471.702159534,9.62149351835e-06,472.837315282,1.13516601082,,,,z,1,1.11703188089,2018_Nov_28_1540,60.0059659657,chinese_cond2,001,1060,
images/beermug01b.jpg,beer mug,z,sounds/animalfarm_english.wav,,,,,,,,,0,0,0,1,0,158,158,111,473.957520042,9.62149351835e-06,475.171388408,1.2138786295,,,,z,1,1.20055336971,2018_Nov_28_1540,60.0059659657,chinese_cond2,001,1060,
images/worldmap.jpg,scooter,x,sounds/animalfarm_english.wav,,,,,,,,,0,0,0,1,0,159,159,220,476.302915213,9.621726349e-06,477.305251335,1.0023460642,,,,x,1,0.983760360861,2018_Nov_28_1540,60.0059659657,chinese_cond2,001,1060,
images/diaper01a.jpg,camera,x,sounds/animalfarm_english.wav,,,,,,,,,0,0,0,1,0,160,160,143,478.428424676,9.62149351835e-06,479.739180844,1.31076643011,,,,x,1,1.30055150948,2018_Nov_28_1540,60.0059659657,chinese_cond2,001,1060,
images/bowtie.jpg,bowtie,z,sounds/animalfarm_english.wav,,,,,,,,,0,0,0,1,0,161,161,89,480.851906422,8.98004509509e-06,482.189794829,1.33789802901,,,,z,1,1.31725330558,2018_Nov_28_1540,60.0059659657,chinese_cond2,001,1060,
images/blueberry02.jpg,blueberry,z,sounds/animalfarm_english.wav,,,,,,,,,0,0,0,1,0,162,162,46,483.30525775,9.621726349e-06,484.190299321,0.885051514022,,,,z,1,0.867148943478,2018_Nov_28_1540,60.0059659657,chinese_cond2,001,1060,
images/bull.jpg,button,x,sounds/animalfarm_english.wav,,,,,,,,,0,0,0,1,0,163,163,141,485.297469714,9.30088572204e-06,486.474194898,1.17673544609,,,,x,1,1.16715651262,2018_Nov_28_1540,60.0059659657,chinese_cond2,001,1060,
images/drink.jpg,drink,z,sounds/animalfarm_english.wav,,,,,,,,,0,0,0,1,0,164,164,117,487.577185352,8.98004509509e-06,488.441346792,0.864171382273,,,,z,1,0.85047986079,2018_Nov_28_1540,60.0059659657,chinese_cond2,001,1060,
images/parkingmeter.jpg,ear,x,sounds/animalfarm_english.wav,,,,,,,,,0,0,0,1,0,165,165,171,489.546008195,9.94233414531e-06,490.775250899,1.22925296682,,,,x,1,1.21722918749,2018_Nov_28_1540,60.0059659657,chinese_cond2,001,1060,
images/nailpolish02b.jpg,nail polish,z,sounds/animalfarm_english.wav,,,,,,,,,0,0,0,1,0,166,166,94,491.88724235,9.621726349e-06,492.992452825,1.10522073857,,,,z,1,1.08385343384,2018_Nov_28_1540,60.0059659657,chinese_cond2,001,1060,
images/coin01b.jpg,arrow,x,sounds/animalfarm_english.wav,,,,,,,,,0,0,0,1,0,167,167,124,494.098203713,9.62149351835e-06,495.276361872,1.17816777993,,,,x,1,1.16722322209,2018_Nov_28_1540,60.0059659657,chinese_cond2,001,1060,
images/apricot.jpg,apricot,z,sounds/animalfarm_english.wav,,,,,,,,,0,0,0,1,0,168,168,32,496.396444438,9.30088572204e-06,497.426885543,1.03045104723,,,,x,0,1.01717614057,2018_Nov_28_1540,60.0059659657,chinese_cond2,001,1060,
images/shotglass.jpg,shot glass,z,sounds/animalfarm_english.wav,,,,,,,,,0,0,0,1,0,169,169,86,498.538282059,9.621726349e-06,500.227572396,1.6893002796,,,,z,1,1.66733547393,2018_Nov_28_1540,60.0059659657,chinese_cond2,001,1060,
images/arrow02.jpg,hammer,x,sounds/animalfarm_english.wav,,,,,,,,,0,0,0,1,0,170,170,184,501.32626649,9.94233414531e-06,503.711774708,2.38551944401,,,,x,1,2.3674966034,2018_Nov_28_1540,60.0059659657,chinese_cond2,001,1060,
images/atm.jpg,atm,z,sounds/animalfarm_english.wav,,,,,,,,,0,0,0,1,0,171,171,96,504.851370178,9.30088572204e-06,506.045918393,1.19455847819,,,,x,0,1.18412771309,2018_Nov_28_1540,60.0059659657,chinese_cond2,001,1060,
images/croissant02b.jpg,croissant,z,sounds/animalfarm_english.wav,,,,,,,,,0,0,0,1,0,172,172,39,507.160748855,9.94233414531e-06,509.363157908,2.20241963724,,,,x,0,2.18412739248,2018_Nov_28_1540,60.0059659657,chinese_cond2,001,1060,
images/ruler02b.jpg,watermelon,x,sounds/animalfarm_english.wav,,,,,,,,,0,0,0,1,0,173,173,238,510.467335346,8.98004509509e-06,512.180521862,1.71319645853,,,,x,1,1.70068294043,2018_Nov_28_1540,60.0059659657,chinese_cond2,001,1060,
images/teapot.jpg,light switch,x,sounds/animalfarm_english.wav,,,,,,,,,0,0,0,1,0,174,174,197,513.299390504,9.94233414531e-06,514.897855604,1.59847472166,,,,x,1,1.58397915587,2018_Nov_28_1540,60.0059659657,chinese_cond2,001,1060,
images/swan.jpg,swan,z,sounds/animalfarm_english.wav,,,,,,,,,0,0,0,1,0,175,175,54,515.99146084,9.30088572204e-06,517.781901021,1.7904501236,,,,x,0,1.76735895057,2018_Nov_28_1540,60.0059659657,chinese_cond2,001,1060,
images/squirrel.jpg,binder,x,sounds/animalfarm_english.wav,,,,,,,,,0,0,0,1,0,176,176,132,518.887124646,9.62149351835e-06,519.715720522,0.828606139636,,,,z,0,0.817134960089,2018_Nov_28_1540,60.0059659657,chinese_cond2,001,1060,
images/chameleon.jpg,50 dollar bill,x,sounds/animalfarm_english.wav,,,,,,,,,0,0,0,1,0,177,177,120,520.829481384,8.98004509509e-06,522.099635085,1.27016364387,,,,x,1,1.25056222151,2018_Nov_28_1540,60.0059659657,chinese_cond2,001,1060,
images/basketball01.jpg,basket ball,z,sounds/animalfarm_english.wav,,,,,,,,,0,0,0,1,0,178,178,33,523.241227356,1.02629419416e-05,523.783396536,0.542180085322,,,,x,0,0.533734254306,2018_Nov_28_1540,60.0059659657,chinese_cond2,001,1060,
images/acousticguitar02.jpg,acoustic guitar,z,sounds/animalfarm_english.wav,,,,,,,,,0,0,0,1,0,179,179,97,524.898474914,9.30088572204e-06,526.350696346,1.45223169564,,,,z,1,1.4339426579,2018_Nov_28_1540,60.0059659657,chinese_cond2,001,1060,
images/mirror02.jpg,8 ball,x,sounds/animalfarm_english.wav,,,,,,,,,0,0,0,1,0,180,180,121,527.455748707,9.621726349e-06,528.434573193,0.978835069342,,,,x,1,0.967203530017,2018_Nov_28_1540,60.0059659657,chinese_cond2,001,1060,
images/antelope.jpg,antelope,z,sounds/animalfarm_english.wav,,,,,,,,,0,0,0,1,0,181,181,12,529.540088031,9.30088572204e-06,530.318324188,0.778246741043,,,,x,0,0.767110392917,2018_Nov_28_1540,60.0059659657,chinese_cond2,001,1060,
images/fork01.jpg,cooking pot,x,sounds/animalfarm_english.wav,,,,,,,,,0,0,0,1,0,182,182,160,531.414518593,9.3006528914e-06,532.902295326,1.4877866751,,,,x,1,1.46728178556,2018_Nov_28_1540,60.0059659657,chinese_cond2,001,1060,
images/grandpiano.jpg,tulip,x,sounds/animalfarm_english.wav,,,,,,,,,0,0,0,1,0,183,183,236,534.019210144,9.621726349e-06,535.486270954,1.4670713935,,,,x,1,1.45061334432,2018_Nov_28_1540,60.0059659657,chinese_cond2,001,1060,
images/hammer02a.jpg,flower,x,sounds/animalfarm_english.wav,,,,,,,,,0,0,0,1,0,184,184,176,536.584477875,9.30088572204e-06,537.653476216,1.069008925,,,,x,1,1.05051526823,2018_Nov_28_1540,60.0059659657,chinese_cond2,001,1060,
images/kiwi03.jpg,backpack,x,sounds/animalfarm_english.wav,,,,,,,,,0,0,0,1,0,185,185,125,538.784308984,9.62149351835e-06,539.720644531,0.936345489463,,,,x,1,0.917127006222,2018_Nov_28_1540,60.0059659657,chinese_cond2,001,1060,
images/lion.jpg,lion,z,sounds/animalfarm_english.wav,,,,,,,,,0,0,0,1,0,186,186,44,540.834993913,9.62149351835e-06,541.504418234,0.669435225427,,,,z,1,0.650412702002,2018_Nov_28_1540,60.0059659657,chinese_cond2,001,1060,
images/banana04a.jpg,banana,z,sounds/animalfarm_english.wav,,,,,,,,,0,0,0,1,0,187,187,118,542.612186769,9.30088572204e-06,543.304697132,0.692521267105,,,,z,1,0.683586979983,2018_Nov_28_1540,60.0059659657,chinese_cond2,001,1060,
images/weight01.jpg,weight,z,sounds/animalfarm_english.wav,,,,,,,,,0,0,0,1,0,188,188,67,544.410322618,9.30088572204e-06,545.488768398,1.0784560428,,,,z,1,1.06721834722,2018_Nov_28_1540,60.0059659657,chinese_cond2,001,1060,
images/plant01.jpg,plant,z,sounds/animalfarm_english.wav,,,,,,,,,0,0,0,1,0,189,189,47,546.602368258,8.98004509509e-06,547.489234725,0.886876408709,,,,z,1,0.867136114743,2018_Nov_28_1540,60.0059659657,chinese_cond2,001,1060,
images/feather03b.jpg,feather,z,sounds/animalfarm_english.wav,,,,,,,,,0,0,0,1,0,190,190,114,548.59210972,9.62149351835e-06,549.556409454,0.964309997158,,,,x,0,0.950492112199,2018_Nov_28_1540,60.0059659657,chinese_cond2,001,1060,
images/panda.jpg,panda,z,sounds/animalfarm_english.wav,,,,,,,,,0,0,0,1,0,191,191,83,550.667899941,1.02629419416e-05,551.390191688,0.722302330891,,,,z,1,0.700428609736,2018_Nov_28_1540,60.0059659657,chinese_cond2,001,1060,
images/ant.jpg,ant,z,sounds/animalfarm_english.wav,,,,,,,,,0,0,0,1,0,192,192,98,552.486970765,9.30088572204e-06,553.257328444,0.770367621677,,,,z,1,0.750450931722,2018_Nov_28_1540,60.0059659657,chinese_cond2,001,1060,
images/lily.jpg,kiwi,x,sounds/animalfarm_english.wav,,,,,,,,,0,0,0,1,0,193,193,190,554.359046924,9.30088572204e-06,555.70792479,1.34888812923,,,,x,1,1.33392014331,2018_Nov_28_1540,60.0059659657,chinese_cond2,001,1060,
images/razor04a.jpg,razor,z,sounds/animalfarm_english.wav,,,,,,,,,0,0,0,1,0,194,194,36,556.809529414,9.621726349e-06,558.058523958,1.2490051277,,,,x,0,1.23391109915,2018_Nov_28_1540,60.0059659657,chinese_cond2,001,1060,
images/lipstick04.jpg,lipstick,z,sounds/animalfarm_english.wav,,,,,,,,,0,0,0,1,0,195,195,56,559.160420758,9.62149351835e-06,560.692504589,1.53209409397,,,,x,0,1.51731404988,2018_Nov_28_1540,60.0059659657,chinese_cond2,001,1060,
images/plate01b.jpg,plate,z,sounds/animalfarm_english.wav,,,,,,,,,0,0,0,1,0,196,196,3,561.792466809,9.621726349e-06,562.8263425,1.03388627549,,,,z,1,1.01717325393,2018_Nov_28_1540,60.0059659657,chinese_cond2,001,1060,
,,,sounds/animalfarm_english.wav,,,,,,,,,0,0,0,1,,,,,,,,,,,,,,,2018_Nov_28_1540,60.0059659657,chinese_cond2,001,1060,
images/carrot02.jpg,corkscrew,x,sounds/greatgatsby_chinese.wav,,,,,,,,,0,1,1,0,0,0,0,161,583.954247419,1.02631747723e-05,585.465293324,1.51105905487,,,573.829206527,z,0,1.50065779593,2018_Nov_28_1540,60.0059659657,chinese_cond2,001,1060,
images/cupcake.jpg,scissors,x,sounds/greatgatsby_chinese.wav,,,,,,,,,0,1,1,0,0,1,1,219,586.58586178,9.30088572204e-06,587.582466642,0.996614804026,,,,x,1,0.983854010934,2018_Nov_28_1540,60.0059659657,chinese_cond2,001,1060,
images/8ball.jpg,nail clipper,x,sounds/greatgatsby_chinese.wav,,,,,,,,,0,1,1,0,0,2,2,206,588.697223338,9.94233414531e-06,589.732991275,1.03577884194,,,,x,1,1.01718832785,2018_Nov_28_1540,60.0059659657,chinese_cond2,001,1060,
images/hand01a.jpg,cupcake,x,sounds/greatgatsby_chinese.wav,,,,,,,,,0,1,1,0,0,3,3,163,590.84408888,8.98004509509e-06,592.53370571,1.6896270928,,,,x,1,1.66736690444,2018_Nov_28_1540,60.0059659657,chinese_cond2,001,1060,
images/volleyball.jpg,volley ball,z,sounds/greatgatsby_chinese.wav,,,,,,,,,0,1,1,0,0,4,4,2,593.666519243,9.62149351835e-06,594.400815847,0.734307187842,,,,z,1,0.717113407562,2018_Nov_28_1540,60.0059659657,chinese_cond2,001,1060,
images/lighter02b.jpg,stapler,x,sounds/greatgatsby_chinese.wav,,,,,,,,,0,1,1,0,0,5,5,227,595.50341374,8.98027792573e-06,596.618022904,1.11461910699,,,,x,1,1.1005382319,2018_Nov_28_1540,60.0059659657,chinese_cond2,001,1060,
images/lip.jpg,boxing glove,x,sounds/greatgatsby_chinese.wav,,,,,,,,,0,1,1,0,0,6,6,136,597.720839208,9.30088572204e-06,598.801903022,1.08107407717,,,,x,1,1.06720583909,2018_Nov_28_1540,60.0059659657,chinese_cond2,001,1060,
images/chessknight02b (1).jpg,cockroach,x,sounds/greatgatsby_chinese.wav,,,,,,,,,0,1,1,0,0,7,7,155,599.911860469,9.62149351835e-06,601.15247974,1.24062985484,,,,x,1,1.21724105417,2018_Nov_28_1540,60.0059659657,chinese_cond2,001,1060,
images/rhinoceros01.jpg,envelope,x,sounds/greatgatsby_chinese.wav,,,,,,,,,0,1,1,0,0,8,8,173,602.26280858,9.30088572204e-06,604.236606106,1.97380778892,,,,z,0,1.95078300475,2018_Nov_28_1540,60.0059659657,chinese_cond2,001,1060,
images/cocktailshrimp01.jpg,cocktail shrimp,z,sounds/greatgatsby_chinese.wav,,,,,,,,,0,1,1,0,0,9,9,30,605.353465761,9.30088572204e-06,606.987241452,1.6337856336,,,,z,1,1.61731283134,2018_Nov_28_1540,60.0059659657,chinese_cond2,001,1060,
images/triangleruler02.jpg,bottle of red wine,x,sounds/greatgatsby_chinese.wav,,,,,,,,,0,1,1,0,0,10,10,134,608.096943927,9.62149351835e-06,609.987972693,1.8910393496,,,,x,1,1.86737793731,2018_Nov_28_1540,60.0059659657,chinese_cond2,001,1060,
images/hanger02a.jpg,hanger,z,sounds/greatgatsby_chinese.wav,,,,,,,,,0,1,1,0,0,11,11,88,611.081045533,9.621726349e-06,612.288791041,1.20775545016,,,,z,1,1.1841267508,2018_Nov_28_1540,60.0059659657,chinese_cond2,001,1060,
images/pepper05a.jpg,lighter,x,sounds/greatgatsby_chinese.wav,,,,,,,,,0,1,1,0,0,12,12,198,613.409629222,9.30088572204e-06,615.572699767,2.16308048647,,,,x,1,2.15079596196,2018_Nov_28_1540,60.0059659657,chinese_cond2,001,1060,
images/lamp04b.jpg,parking meter,x,sounds/greatgatsby_chinese.wav,,,,,,,,,0,1,1,0,0,13,13,209,616.69402897,9.30088572204e-06,618.806820616,2.112801268,,,,x,1,2.10077620577,2018_Nov_28_1540,60.0059659657,chinese_cond2,001,1060,
images/electricguitar02.jpg,electric guitar,z,sounds/greatgatsby_chinese.wav,,,,,,,,,0,1,1,0,0,14,14,100,619.908719661,9.30088572204e-06,621.757555834,1.84884643555,,,,z,1,1.83405131754,2018_Nov_28_1540,60.0059659657,chinese_cond2,001,1060,
images/lock02a.jpg,lock,z,sounds/greatgatsby_chinese.wav,,,,,,,,,0,1,1,0,0,15,15,65,622.867600517,9.62149351835e-06,623.908100673,1.04051041882,,,,z,1,1.01720019453,2018_Nov_28_1540,60.0059659657,chinese_cond2,001,1060,
images/gorilla.jpg,gorilla,z,sounds/greatgatsby_chinese.wav,,,,,,,,,0,1,1,0,0,16,16,80,625.019962874,9.62149351835e-06,626.55873403,1.53878141916,,,,z,1,1.51730250404,2018_Nov_28_1540,60.0059659657,chinese_cond2,001,1060,
images/printer03a.jpg,printer,z,sounds/greatgatsby_chinese.wav,,,,,,,,,0,1,1,0,0,17,17,72,627.669381986,9.30088572204e-06,628.759271043,1.08989931969,,,,z,1,1.06718755816,2018_Nov_28_1540,60.0059659657,chinese_cond2,001,1060,
images/flamingo.jpg,flamingo,z,sounds/greatgatsby_chinese.wav,,,,,,,,,0,1,1,0,0,18,18,52,629.855886232,9.30088572204e-06,631.259914086,1.40403779619,,,,x,0,1.38394984207,2018_Nov_28_1540,60.0059659657,chinese_cond2,001,1060,
images/banana04a.jpg,banana,z,sounds/greatgatsby_chinese.wav,,,,,,,,,0,1,1,0,0,19,19,118,632.365350348,9.62149351835e-06,633.160360463,0.795020378428,,,,z,1,0.783784928033,2018_Nov_28_1540,60.0059659657,chinese_cond2,001,1060,
images/barrel01.jpg,barrel,z,sounds/greatgatsby_chinese.wav,,,,,,,,,0,1,1,0,0,20,20,9,634.292801961,9.62149351835e-06,635.44425604,1.15146402107,,,,x,0,1.13386517204,2018_Nov_28_1540,60.0059659657,chinese_cond2,001,1060,
images/table02.jpg,table,z,sounds/greatgatsby_chinese.wav,,,,,,,,,0,1,1,0,0,21,21,49,636.558689771,9.62149351835e-06,637.944898762,1.386219254,,,,z,1,1.36727049621,2018_Nov_28_1540,60.0059659657,chinese_cond2,001,1060,
images/parkbench03.jpg,park bench,z,sounds/greatgatsby_chinese.wav,,,,,,,,,0,1,1,0,0,22,22,71,639.051143879,9.621726349e-06,640.345461881,1.29432794475,,,,z,1,1.28390166978,2018_Nov_28_1540,60.0059659657,chinese_cond2,001,1060,
images/peach01.jpg,peach,z,sounds/greatgatsby_chinese.wav,,,,,,,,,0,1,1,0,0,23,23,106,641.473896307,9.621726349e-06,642.479327374,1.00544100883,,,,z,1,0.983833164209,2018_Nov_28_1540,60.0059659657,chinese_cond2,001,1060,
images/feather03b.jpg,feather,z,sounds/greatgatsby_chinese.wav,,,,,,,,,0,1,1,0,0,24,24,114,643.579771635,9.94233414531e-06,645.263345144,1.68358377274,,,,z,1,1.66732938052,2018_Nov_28_1540,60.0059659657,chinese_cond2,001,1060,
images/beermug01b.jpg,beer mug,z,sounds/greatgatsby_chinese.wav,,,,,,,,,0,1,1,0,0,25,25,111,646.380194215,9.94233414531e-06,647.263834242,0.883650289848,,,,z,1,0.867112381617,2018_Nov_28_1540,60.0059659657,chinese_cond2,001,1060,
images/bull.jpg,button,x,sounds/greatgatsby_chinese.wav,,,,,,,,,0,1,1,0,0,26,26,141,648.369757036,9.30088572204e-06,649.497726739,1.12797996658,,,,z,0,1.11719705141,2018_Nov_28_1540,60.0059659657,chinese_cond2,001,1060,
images/lily.jpg,kiwi,x,sounds/greatgatsby_chinese.wav,,,,,,,,,0,1,1,0,0,27,27,190,650.596805055,9.30088572204e-06,651.581582097,0.984787305119,,,,x,1,0.967166967923,2018_Nov_28_1540,60.0059659657,chinese_cond2,001,1060,
images/magnifyingglass01b.jpg,magnifying glass,z,sounds/greatgatsby_chinese.wav,,,,,,,,,0,1,1,0,0,28,28,64,652.688432733,9.621726349e-06,653.915477224,1.2270544339,,,,z,1,1.21722373553,2018_Nov_28_1540,60.0059659657,chinese_cond2,001,1060,
images/tank.jpg,wallet,x,sounds/greatgatsby_chinese.wav,,,,,,,,,0,1,1,0,0,29,29,237,655.019481153,9.30088572204e-06,655.915978188,0.89650729904,,,,x,1,0.883819629671,2018_Nov_28_1540,60.0059659657,chinese_cond2,001,1060,
images/rubberglove02a.jpg,lady bug,x,sounds/greatgatsby_chinese.wav,,,,,,,,,0,1,1,0,0,30,30,192,657.020160437,9.3006528914e-06,658.299913277,1.27976374491,,,,x,1,1.2672582448,2018_Nov_28_1540,60.0059659657,chinese_cond2,001,1060,
images/razor04a.jpg,razor,z,sounds/greatgatsby_chinese.wav,,,,,,,,,0,1,1,0,0,31,31,36,659.399077225,9.30088572204e-06,660.667144646,1.26807800401,,,,x,0,1.2505660702,2018_Nov_28_1540,60.0059659657,chinese_cond2,001,1060,
images/puma.jpg,puma,z,sounds/greatgatsby_chinese.wav,,,,,,,,,0,1,1,0,0,32,32,4,661.765496211,9.621726349e-06,663.01772842,1.25224279263,,,,x,0,1.23390243948,2018_Nov_28_1540,60.0059659657,chinese_cond2,001,1060,
images/tape01a.jpg,tie,x,sounds/greatgatsby_chinese.wav,,,,,,,,,0,1,1,0,0,33,33,232,664.142001188,9.30088572204e-06,666.635367743,2.49340151413,,,,x,1,2.48421931057,2018_Nov_28_1540,60.0059659657,chinese_cond2,001,1060,
images/highheelshoe02a.jpg,high heel shoe,z,sounds/greatgatsby_chinese.wav,,,,,,,,,0,1,1,0,0,34,34,75,667.743580476,9.30088572204e-06,669.252591094,1.50902088149,,,,z,1,1.50061802682,2018_Nov_28_1540,60.0059659657,chinese_cond2,001,1060,
images/headphones02b.jpg,headphones,z,sounds/greatgatsby_chinese.wav,,,,,,,,,0,1,1,0,0,35,35,101,670.359911905,9.30088572204e-06,672.403370699,2.04346905765,,,,x,0,2.03408864932,2018_Nov_28_1540,60.0059659657,chinese_cond2,001,1060,
images/cloud.jpg,ceiling fan,x,sounds/greatgatsby_chinese.wav,,,,,,,,,0,1,1,0,0,36,36,149,673.509241857,9.30088572204e-06,675.304101555,1.79486964038,,,,x,1,1.78404567298,2018_Nov_28_1540,60.0059659657,chinese_cond2,001,1060,
images/hairdryer03a.jpg,hairdryer,z,sounds/greatgatsby_chinese.wav,,,,,,,,,0,1,1,0,0,37,37,119,676.402874867,9.62149351835e-06,678.938322405,2.53545844299,,,,z,1,2.51755298604,2018_Nov_28_1540,60.0059659657,chinese_cond2,001,1060,
images/electrictoothbrush01a.jpg,banjo,x,sounds/greatgatsby_chinese.wav,,,,,,,,,0,1,1,0,0,38,38,127,680.032557534,9.30088572204e-06,681.839074749,1.80652715778,,,,x,1,1.78405657737,2018_Nov_28_1540,60.0059659657,chinese_cond2,001,1060,
images/masquerademask02b.jpg,mirror,x,sounds/greatgatsby_chinese.wav,,,,,,,,,0,1,1,0,0,39,39,204,682.944688049,9.30088572204e-06,684.306302975,1.36162486835,,,,x,1,1.35058666044,2018_Nov_28_1540,60.0059659657,chinese_cond2,001,1060,
images/leek.jpg,donut,x,sounds/greatgatsby_chinese.wav,,,,,,,,,0,1,1,0,0,40,40,169,685.407208751,9.62149351835e-06,686.323475587,0.916277099168,,,,x,1,0.900474921567,2018_Nov_28_1540,60.0059659657,chinese_cond2,001,1060,
images/skateboard.jpg,key,x,sounds/greatgatsby_chinese.wav,,,,,,,,,0,1,1,0,0,41,41,189,687.414661314,9.62149351835e-06,689.040826328,1.62617559778,,,,x,1,1.61734137521,2018_Nov_28_1540,60.0059659657,chinese_cond2,001,1060,
images/bed.jpg,bed,z,sounds/greatgatsby_chinese.wav,,,,,,,,,0,1,1,0,0,42,42,103,690.160303696,9.30088572204e-06,691.558097722,1.39780396852,,,,z,1,1.38390109269,2018_Nov_28_1540,60.0059659657,chinese_cond2,001,1060,
images/bowl02b (1).jpg,bowl,z,sounds/greatgatsby_chinese.wav,,,,,,,,,0,1,1,0,0,43,43,24,692.675047499,9.30088572204e-06,693.708644485,1.03360756999,,,,z,1,1.01719602523,2018_Nov_28_1540,60.0059659657,chinese_cond2,001,1060,
images/lightbulb03b.jpg,treadmill,x,sounds/greatgatsby_chinese.wav,,,,,,,,,0,1,1,0,0,44,44,234,694.812336032,9.30088572204e-06,696.776052057,1.96372628747,,,,x,1,1.95073778345,2018_Nov_28_1540,60.0059659657,chinese_cond2,001,1060,
images/pingpongpaddle01c (1).jpg,ping pong paddle,z,sounds/greatgatsby_chinese.wav,,,,,,,,,0,1,1,0,0,45,45,10,697.888363906,9.62149351835e-06,699.493401835,1.60504754982,,,,z,1,1.58399807825,2018_Nov_28_1540,60.0059659657,chinese_cond2,001,1060,
images/beachumbrella01.jpg,beach umbrella,z,sounds/greatgatsby_chinese.wav,,,,,,,,,0,1,1,0,0,46,46,92,700.599415392,9.94233414531e-06,701.977334743,1.3779299343,,,,z,1,1.36726023327,2018_Nov_28_1540,60.0059659657,chinese_cond2,001,1060,
images/panda.jpg,panda,z,sounds/greatgatsby_chinese.wav,,,,,,,,,0,1,1,0,0,47,47,83,703.086936191,9.94210131466e-06,703.87780325,0.790877642808,,,,z,1,0.767120014643,2018_Nov_28_1540,60.0059659657,chinese_cond2,001,1060,
images/shotglass.jpg,shot glass,z,sounds/greatgatsby_chinese.wav,,,,,,,,,0,1,1,0,0,48,48,86,704.986326759,9.30088572204e-06,706.561793695,1.57547751931,,,,z,1,1.5506429146,2018_Nov_28_1540,60.0059659657,chinese_cond2,001,1060,
images/candy.jpg,candy,z,sounds/greatgatsby_chinese.wav,,,,,,,,,0,1,1,0,0,49,49,31,707.664571191,9.621726349e-06,708.779005885,1.11444495618,,,,z,1,1.10052379942,2018_Nov_28_1540,60.0059659657,chinese_cond2,001,1060,
images/antelope.jpg,antelope,z,sounds/greatgatsby_chinese.wav,,,,,,,,,0,1,1,0,0,50,50,12,709.882659908,8.98004509509e-06,711.329654251,1.44700460671,,,,x,0,1.43395837303,2018_Nov_28_1540,60.0059659657,chinese_cond2,001,1060,
images/computermouse02a.jpg,world map,x,sounds/greatgatsby_chinese.wav,,,,,,,,,0,1,1,0,0,51,51,239,712.431061313,9.62149351835e-06,714.046983504,1.61593213305,,,,x,1,1.60065882234,2018_Nov_28_1540,60.0059659657,chinese_cond2,001,1060,
images/lantern03.jpg,lantern,z,sounds/greatgatsby_chinese.wav,,,,,,,,,0,1,1,0,0,52,52,5,715.151789551,9.94233414531e-06,716.047468432,0.895689143101,,,,x,0,0.883806159487,2018_Nov_28_1540,60.0059659657,chinese_cond2,001,1060,
images/tie01.jpg,bench,x,sounds/greatgatsby_chinese.wav,,,,,,,,,0,1,1,0,0,53,53,130,717.14432865,9.621726349e-06,718.281365098,1.13704671082,,,,x,1,1.11720891809,2018_Nov_28_1540,60.0059659657,chinese_cond2,001,1060,
images/crocodile.jpg,triangle ruler,x,sounds/greatgatsby_chinese.wav,,,,,,,,,0,1,1,0,0,54,54,235,719.378391771,9.62149351835e-06,721.14873598,1.77035479294,,,,x,1,1.75069179223,2018_Nov_28_1540,60.0059659657,chinese_cond2,001,1060,
images/graduationcap.jpg,graduation cap,z,sounds/greatgatsby_chinese.wav,,,,,,,,,0,1,1,0,0,55,55,35,722.249358561,9.62149351835e-06,723.632675623,1.38332732511,,,,z,1,1.36726376112,2018_Nov_28_1540,60.0059659657,chinese_cond2,001,1060,
images/candle08a.jpg,screw driver,x,sounds/greatgatsby_chinese.wav,,,,,,,,,0,1,1,0,0,56,56,221,724.745030128,9.94233414531e-06,726.816794356,2.07177481125,,,,x,1,2.05076767458,2018_Nov_28_1540,60.0059659657,chinese_cond2,001,1060,
images/hat05.jpg,hat,z,sounds/greatgatsby_chinese.wav,,,,,,,,,0,1,1,0,0,57,57,15,727.918493913,8.98004509509e-06,729.450978323,1.53249403136,,,,z,1,1.51750295376,2018_Nov_28_1540,60.0059659657,chinese_cond2,001,1060,
images/elbow.jpg,elbow,z,sounds/greatgatsby_chinese.wav,,,,,,,,,0,1,1,0,0,58,58,105,730.563592932,9.94210131466e-06,732.268194105,1.70461175591,,,,z,1,1.68406292773,2018_Nov_28_1540,60.0059659657,chinese_cond2,001,1060,
images/scooter.jpg,pen,x,sounds/greatgatsby_chinese.wav,,,,,,,,,0,1,1,0,0,59,59,212,733.359465784,9.62149351835e-06,734.268629001,0.909173159162,,,,x,1,0.900473318063,2018_Nov_28_1540,60.0059659657,chinese_cond2,001,1060,
images/computerkeyboard01a.jpg,computer keyboard,z,sounds/greatgatsby_chinese.wav,,,,,,,,,0,1,1,0,0,60,60,61,735.383958502,9.30088572204e-06,736.885941832,1.50199327269,,,,z,1,1.48395535839,2018_Nov_28_1540,60.0059659657,chinese_cond2,001,1060,
images/paintbrush03a.jpg,paint brush,z,sounds/greatgatsby_chinese.wav,,,,,,,,,0,1,1,0,0,61,61,0,737.984908858,9.30088572204e-06,739.25318667,1.26828807569,,,,z,1,1.25055869366,2018_Nov_28_1540,60.0059659657,chinese_cond2,001,1060,
images/grandpiano.jpg,tulip,x,sounds/greatgatsby_chinese.wav,,,,,,,,,0,1,1,0,0,62,62,236,740.365783319,9.94233414531e-06,741.503750496,1.13797808066,,,,x,1,1.117202183,2018_Nov_28_1540,60.0059659657,chinese_cond2,001,1060,
images/bandaid01.jpg,door handle,x,sounds/greatgatsby_chinese.wav,,,,,,,,,0,1,1,0,0,63,63,170,742.609104974,9.30088572204e-06,743.72098706,1.11189170717,,,,x,1,1.10052219569,2018_Nov_28_1540,60.0059659657,chinese_cond2,001,1060,
images/swan.jpg,swan,z,sounds/greatgatsby_chinese.wav,,,,,,,,,0,1,1,0,0,64,64,54,744.811654824,9.94233414531e-06,746.404953772,1.59330921108,,,,z,1,1.58398043853,2018_Nov_28_1540,60.0059659657,chinese_cond2,001,1060,
images/screwdriver02b.jpg,cola,x,sounds/greatgatsby_chinese.wav,,,,,,,,,0,1,1,0,0,65,65,158,747.496692739,9.30088572204e-06,748.588828437,1.09214563994,,,,x,1,1.08386048954,2018_Nov_28_1540,60.0059659657,chinese_cond2,001,1060,
images/dryingmachine01.jpg,drying machine,z,sounds/greatgatsby_chinese.wav,,,,,,,,,0,1,1,0,0,66,66,18,749.708432489,9.30088572204e-06,750.889591942,1.18118703482,,,,z,1,1.16731238225,2018_Nov_28_1540,60.0059659657,chinese_cond2,001,1060,
images/flipflop01b.jpg,flip flop,z,sounds/greatgatsby_chinese.wav,,,,,,,,,0,1,1,0,0,67,67,27,752.007123504,9.94210131466e-06,753.773462245,1.76634932519,,,,x,0,1.75071071461,2018_Nov_28_1540,60.0059659657,chinese_cond2,001,1060,
images/cockroach02.jpg,belt,x,sounds/greatgatsby_chinese.wav,,,,,,,,,0,1,1,0,0,68,68,129,754.871031255,1.02631747723e-05,755.790601824,0.919581794413,,,,x,1,0.900472356007,2018_Nov_28_1540,60.0059659657,chinese_cond2,001,1060,
images/plant01.jpg,plant,z,sounds/greatgatsby_chinese.wav,,,,,,,,,0,1,1,0,0,69,69,47,756.900505711,9.94233414531e-06,757.824437746,0.923942298861,,,,z,1,0.900479090866,2018_Nov_28_1540,60.0059659657,chinese_cond2,001,1060,
images/apple06.jpg,apple,z,sounds/greatgatsby_chinese.wav,,,,,,,,,0,1,1,0,0,70,70,13,758.949793264,9.94233414531e-06,760.025172323,1.07538932166,,,,z,1,1.05070737912,2018_Nov_28_1540,60.0059659657,chinese_cond2,001,1060,
images/djmixer01.jpg,light bulb,x,sounds/greatgatsby_chinese.wav,,,,,,,,,0,1,1,0,0,71,71,196,761.144459504,9.62149351835e-06,762.875683614,1.73123405222,,,,x,1,1.71734111873,2018_Nov_28_1540,60.0059659657,chinese_cond2,001,1060,
images/corn01.jpg,corn,z,sounds/greatgatsby_chinese.wav,,,,,,,,,0,1,1,0,0,72,72,22,763.975346602,9.621726349e-06,764.876191955,0.900855615968,,,,z,1,0.883785954211,2018_Nov_28_1540,60.0059659657,chinese_cond2,001,1060,
images/chameleon.jpg,50 dollar bill,x,sounds/greatgatsby_chinese.wav,,,,,,,,,0,1,1,0,0,73,73,120,765.985173131,8.98004509509e-06,767.160075023,1.17491183407,,,,z,0,1.15051982249,2018_Nov_28_1540,60.0059659657,chinese_cond2,001,1060,
images/puzzle.jpg,puzzle,z,sounds/greatgatsby_chinese.wav,,,,,,,,,0,1,1,0,0,74,74,57,768.278438852,9.30088572204e-06,769.510653665,1.23222443438,,,,z,1,1.21722213156,2018_Nov_28_1540,60.0059659657,chinese_cond2,001,1060,
images/orange.jpg,bat,x,sounds/greatgatsby_chinese.wav,,,,,,,,,0,1,1,0,0,75,75,128,770.635207384,9.621726349e-06,771.594546227,0.959349426674,,,,x,1,0.950532843592,2018_Nov_28_1540,60.0059659657,chinese_cond2,001,1060,
images/baseball01a.jpg,baseball,z,sounds/greatgatsby_chinese.wav,,,,,,,,,0,1,1,0,0,76,76,74,772.725302984,9.30088572204e-06,774.011771694,1.28647833155,,,,z,1,1.2672341906,2018_Nov_28_1540,60.0059659657,chinese_cond2,001,1060,
images/cigar.jpg,crocodile,x,sounds/greatgatsby_chinese.wav,,,,,,,,,0,1,1,0,0,77,77,162,775.10832755,9.62149351835e-06,776.012253415,0.903936128132,,,,x,1,0.883787878556,2018_Nov_28_1540,60.0059659657,chinese_cond2,001,1060,
images/honeycomb.jpg,honey comb,z,sounds/greatgatsby_chinese.wav,,,,,,,,,0,1,1,0,0,78,78,59,777.123263463,9.621726349e-06,778.246143667,1.12289046659,,,,z,1,1.10052444064,2018_Nov_28_1540,60.0059659657,chinese_cond2,001,1060,
images/flower01.jpg,bus,x,sounds/greatgatsby_chinese.wav,,,,,,,,,0,1,1,0,0,79,79,140,779.359095673,9.62149351835e-06,781.797039629,2.4379545399,,,,x,1,2.4175391309,2018_Nov_28_1540,60.0059659657,chinese_cond2,001,1060,
images/worldmap.jpg,scooter,x,sounds/greatgatsby_chinese.wav,,,,,,,,,0,1,1,0,0,80,80,220,782.926589839,9.62149351835e-06,784.664401531,1.73782259575,,,,x,1,1.71722822543,2018_Nov_28_1540,60.0059659657,chinese_cond2,001,1060,
images/pipe.jpg,icecube,x,sounds/greatgatsby_chinese.wav,,,,,,,,,0,1,1,0,0,81,81,188,785.77168161,8.98027792573e-06,787.165027896,1.39335686993,,,,x,1,1.38394214492,2018_Nov_28_1540,60.0059659657,chinese_cond2,001,1060,
images/coffeepot03b.jpg,coffee pot,z,sounds/greatgatsby_chinese.wav,,,,,,,,,0,1,1,0,0,82,82,107,788.284817966,9.621726349e-06,789.148854004,0.864046943141,,,,z,1,0.850488519995,2018_Nov_28_1540,60.0059659657,chinese_cond2,001,1060,
images/wallet01.jpg,lamp,x,sounds/greatgatsby_chinese.wav,,,,,,,,,0,1,1,0,0,83,83,193,790.253792189,9.62149351835e-06,791.949543103,1.69576181821,,,,x,1,1.6840135369,2018_Nov_28_1540,60.0059659657,chinese_cond2,001,1060,
images/battery03b.jpg,battery,z,sounds/greatgatsby_chinese.wav,,,,,,,,,0,1,1,0,0,84,84,34,793.058827038,9.30088572204e-06,794.550162797,1.49134602188,,,,z,1,1.46728018182,2018_Nov_28_1540,60.0059659657,chinese_cond2,001,1060,
images/dresser02.jpg,dresser,z,sounds/greatgatsby_chinese.wav,,,,,,,,,0,1,1,0,0,85,85,87,795.672593352,9.62149351835e-06,796.51733201,0.844748600619,,,,x,0,0.833812060766,2018_Nov_28_1540,60.0059659657,chinese_cond2,001,1060,
images/envelope02a.jpg,grand piano,x,sounds/greatgatsby_chinese.wav,,,,,,,,,0,1,1,0,0,86,86,182,797.639676291,9.621726349e-06,799.134766715,1.49510004534,,,,x,1,1.48409711663,2018_Nov_28_1540,60.0059659657,chinese_cond2,001,1060,
images/nametag01a.jpg,name tag,z,sounds/greatgatsby_chinese.wav,,,,,,,,,0,1,1,0,0,87,87,108,800.254175128,1.02629419416e-05,801.318499943,1.06433539838,,,,z,1,1.05051847547,2018_Nov_28_1540,60.0059659657,chinese_cond2,001,1060,
images/globe.jpg,cloud,x,sounds/greatgatsby_chinese.wav,,,,,,,,,0,1,1,0,0,88,88,154,802.447703455,9.30088572204e-06,803.669090452,1.2213972602,,,,x,1,1.20056459494,2018_Nov_28_1540,60.0059659657,chinese_cond2,001,1060,
images/kiwi03.jpg,backpack,x,sounds/greatgatsby_chinese.wav,,,,,,,,,0,1,1,0,0,89,89,125,804.796726928,9.30088572204e-06,806.319729261,1.52301259665,,,,x,1,1.50062091323,2018_Nov_28_1540,60.0059659657,chinese_cond2,001,1060,
images/broadsword.jpg,teapot,x,sounds/greatgatsby_chinese.wav,,,,,,,,,0,1,1,0,0,90,90,231,807.413737,9.30088572204e-06,809.253820092,1.84009335493,,,,x,1,1.81738512148,2018_Nov_28_1540,60.0059659657,chinese_cond2,001,1060,
images/ceilingfan02.jpg,paper clip,x,sounds/greatgatsby_chinese.wav,,,,,,,,,0,1,1,0,0,91,91,208,810.352220085,9.30088572204e-06,812.404585906,2.05237672478,,,,x,1,2.03410693048,2018_Nov_28_1540,60.0059659657,chinese_cond2,001,1060,
images/highlighter03b.jpg,coin,x,sounds/greatgatsby_chinese.wav,,,,,,,,,0,1,1,0,0,92,92,156,813.507876233,9.621726349e-06,814.721830232,1.21396458242,,,,x,1,1.20057357498,2018_Nov_28_1540,60.0059659657,chinese_cond2,001,1060,
images/eraser.jpg,eraser,z,sounds/greatgatsby_chinese.wav,,,,,,,,,0,1,1,0,0,93,93,110,815.827963738,9.30088572204e-06,816.972379624,1.14442614908,,,,z,1,1.13388056657,2018_Nov_28_1540,60.0059659657,chinese_cond2,001,1060,
images/mirror02.jpg,8 ball,x,sounds/greatgatsby_chinese.wav,,,,,,,,,0,1,1,0,0,94,94,121,818.072703936,9.62149351835e-06,819.439646336,1.36695266305,,,,x,1,1.35059467843,2018_Nov_28_1540,60.0059659657,chinese_cond2,001,1060,
images/arrow02.jpg,hammer,x,sounds/greatgatsby_chinese.wav,,,,,,,,,0,1,1,0,0,95,95,184,820.535961652,9.94233414531e-06,822.373708302,1.83775723306,,,,x,1,1.81738415919,2018_Nov_28_1540,60.0059659657,chinese_cond2,001,1060,
images/tulip02.jpg,sport shorts,x,sounds/greatgatsby_chinese.wav,,,,,,,,,0,1,1,0,0,96,96,225,823.468240096,9.30088572204e-06,825.224403686,1.75617353246,,,,x,1,1.7340252751,2018_Nov_28_1540,60.0059659657,chinese_cond2,001,1060,
images/cat.jpg,black olive,x,sounds/greatgatsby_chinese.wav,,,,,,,,,0,1,1,0,0,97,97,133,826.354156911,9.30088572204e-06,827.691683226,1.33753657807,,,,z,0,1.31725907861,2018_Nov_28_1540,60.0059659657,chinese_cond2,001,1060,
images/acousticguitar02.jpg,acoustic guitar,z,sounds/greatgatsby_chinese.wav,,,,,,,,,0,1,1,0,0,98,98,97,828.80455377,9.30088572204e-06,829.992243716,1.18769956799,,,,z,1,1.16717767995,2018_Nov_28_1540,60.0059659657,chinese_cond2,001,1060,
images/spoon02b.jpg,spoon,z,sounds/greatgatsby_chinese.wav,,,,,,,,,0,1,1,0,0,99,99,38,831.083431367,9.62149351835e-06,832.142779254,1.05935847084,,,,z,1,1.05052777636,2018_Nov_28_1540,60.0059659657,chinese_cond2,001,1060,
images/eyedrops.jpg,bicycle,x,sounds/greatgatsby_chinese.wav,,,,,,,,,0,1,1,0,0,100,100,131,833.244058669,8.98027792573e-06,834.293301963,1.0492532365,,,,x,1,1.03384650615,2018_Nov_28_1540,60.0059659657,chinese_cond2,001,1060,
images/ear.jpg,bullet,x,sounds/greatgatsby_chinese.wav,,,,,,,,,0,1,1,0,0,101,101,139,835.397107365,9.621726349e-06,836.693997219,1.29692737758,,,,z,0,1.2839520229,2018_Nov_28_1540,60.0059659657,chinese_cond2,001,1060,
images/tissuebox03.jpg,tissue box,z,sounds/greatgatsby_chinese.wav,,,,,,,,,0,1,1,0,0,102,102,58,837.819427464,9.94233414531e-06,838.794428972,0.975014336174,,,,z,1,0.950487942901,2018_Nov_28_1540,60.0059659657,chinese_cond2,001,1060,
images/squirrel.jpg,binder,x,sounds/greatgatsby_chinese.wav,,,,,,,,,0,1,1,0,0,103,103,132,839.897449252,9.621726349e-06,840.911601007,1.01416233811,,,,x,1,1.00050737849,2018_Nov_28_1540,60.0059659657,chinese_cond2,001,1060,
images/cherry01.jpg,highlighter,x,sounds/greatgatsby_chinese.wav,,,,,,,,,0,1,1,0,0,104,104,187,842.020391996,9.30088572204e-06,842.97878215,0.958400096511,,,,x,1,0.933828160865,2018_Nov_28_1540,60.0059659657,chinese_cond2,001,1060,
images/gps.jpg,gps,z,sounds/greatgatsby_chinese.wav,,,,,,,,,0,1,1,0,0,105,105,21,844.097379785,1.02629419416e-05,845.079304988,0.981935786782,,,,z,1,0.967178513762,2018_Nov_28_1540,60.0059659657,chinese_cond2,001,1060,
images/butterfly.jpg,butterfly,z,sounds/greatgatsby_chinese.wav,,,,,,,,,0,1,1,0,0,106,106,91,846.18614087,9.30088572204e-06,846.913323271,0.727192664053,,,,z,1,0.71734304307,2018_Nov_28_1540,60.0059659657,chinese_cond2,001,1060,
images/lollipop03b.jpg,lollipop,z,sounds/greatgatsby_chinese.wav,,,,,,,,,0,1,1,0,0,107,107,42,848.005959933,9.621726349e-06,849.230334754,1.22438476351,,,,z,1,1.20056363288,2018_Nov_28_1540,60.0059659657,chinese_cond2,001,1060,
images/swallow.jpg,mattress,x,sounds/greatgatsby_chinese.wav,,,,,,,,,0,1,1,0,0,108,108,202,850.33353079,9.30088572204e-06,851.614245469,1.2807243003,,,,x,1,1.26724124677,2018_Nov_28_1540,60.0059659657,chinese_cond2,001,1060,
images/charcoalbarbecue.jpg,charcoal barbecue,z,sounds/greatgatsby_chinese.wav,,,,,,,,,0,1,1,0,0,109,109,77,852.731569204,9.30088572204e-06,854.71500179,1.98344252771,,,,z,1,1.96740718698,2018_Nov_28_1540,60.0059659657,chinese_cond2,001,1060,
images/licenseplate.jpg,license plate,z,sounds/greatgatsby_chinese.wav,,,,,,,,,0,1,1,0,0,110,110,40,855.832953174,9.30088572204e-06,856.915552273,1.08260904159,,,,z,1,1.06718691648,2018_Nov_28_1540,60.0059659657,chinese_cond2,001,1060,
images/donut.jpg,rhinoceros,x,sounds/greatgatsby_chinese.wav,,,,,,,,,0,1,1,0,0,111,111,216,858.040104388,9.94233414531e-06,859.232954713,1.19286058843,,,,x,1,1.18404785381,2018_Nov_28_1540,60.0059659657,chinese_cond2,001,1060,
images/doll.jpg,carrot,x,sounds/greatgatsby_chinese.wav,,,,,,,,,0,1,1,0,0,112,112,146,860.343898052,9.30088572204e-06,862.216873189,1.87298507872,,,,z,0,1.85073451232,2018_Nov_28_1540,60.0059659657,chinese_cond2,001,1060,
images/leaf01a.jpg,leaf,z,sounds/greatgatsby_chinese.wav,,,,,,,,,0,1,1,0,0,113,113,68,863.320568264,9.62149351835e-06,864.417394166,1.09683648543,,,,z,1,1.083853113,2018_Nov_28_1540,60.0059659657,chinese_cond2,001,1060,
images/drink.jpg,drink,z,sounds/greatgatsby_chinese.wav,,,,,,,,,0,1,1,0,0,114,114,117,865.516527004,9.621726349e-06,866.951372488,1.43485606741,,,,z,1,1.41727614077,2018_Nov_28_1540,60.0059659657,chinese_cond2,001,1060,
images/mitten01.jpg,mitten,z,sounds/greatgatsby_chinese.wav,,,,,,,,,0,1,1,0,0,115,115,102,868.072615097,9.30088572204e-06,869.26859308,1.19598824624,,,,x,0,1.18384515913,2018_Nov_28_1540,60.0059659657,chinese_cond2,001,1060,
images/key03b.jpg,cigar,x,sounds/greatgatsby_chinese.wav,,,,,,,,,0,1,1,0,0,116,116,153,870.371313488,9.62149351835e-06,871.469138752,1.09783584788,,,,x,1,1.083853113,2018_Nov_28_1540,60.0059659657,chinese_cond2,001,1060,
images/sunglasses03a.jpg,sun glasses,z,sounds/greatgatsby_chinese.wav,,,,,,,,,0,1,1,0,0,117,117,17,872.579638536,9.62149351835e-06,873.50297243,0.923343835864,,,,z,1,0.900476204464,2018_Nov_28_1540,60.0059659657,chinese_cond2,001,1060,
images/showerhead01.jpg,skateboard,x,sounds/greatgatsby_chinese.wav,,,,,,,,,0,1,1,0,0,118,118,223,874.610341028,9.30088572204e-06,876.170295716,1.55996463122,,,,x,1,1.55063842447,2018_Nov_28_1540,60.0059659657,chinese_cond2,001,1060,
images/lemon02.jpg,lemon,z,sounds/greatgatsby_chinese.wav,,,,,,,,,0,1,1,0,0,119,119,14,877.281682931,9.62149351835e-06,878.104109124,0.822436455637,,,,z,1,0.800460425206,2018_Nov_28_1540,60.0059659657,chinese_cond2,001,1060,
images/basketball01.jpg,basket ball,z,sounds/greatgatsby_chinese.wav,,,,,,,,,0,1,1,0,0,120,120,33,879.242604526,9.621726349e-06,880.454695464,1.21210120129,,,,z,1,1.20056523615,2018_Nov_28_1540,60.0059659657,chinese_cond2,001,1060,
images/fryingpan01.jpg,frying pan,z,sounds/greatgatsby_chinese.wav,,,,,,,,,0,1,1,0,0,121,121,45,881.556782771,9.30088572204e-06,883.288732349,1.73195951991,,,,z,1,1.71733855293,2018_Nov_28_1540,60.0059659657,chinese_cond2,001,1060,
images/lightswitch02a.jpg,fork,x,sounds/greatgatsby_chinese.wav,,,,,,,,,0,1,1,0,0,122,122,177,884.400934192,9.94233414531e-06,885.722481613,1.32155736326,,,,z,0,1.30040141288,2018_Nov_28_1540,60.0059659657,chinese_cond2,001,1060,
images/nailpolish02b.jpg,nail polish,z,sounds/greatgatsby_chinese.wav,,,,,,,,,0,1,1,0,0,123,123,94,886.831985563,9.30088572204e-06,887.889887325,1.05791202537,,,,z,1,1.03388082306,2018_Nov_28_1540,60.0059659657,chinese_cond2,001,1060,
images/diaper01a.jpg,camera,x,sounds/greatgatsby_chinese.wav,,,,,,,,,0,1,1,0,0,124,124,143,889.01119953,9.94233414531e-06,890.290450765,1.27926149801,,,,x,1,1.26724317088,2018_Nov_28_1540,60.0059659657,chinese_cond2,001,1060,
images/cheetah.jpg,cheetah,z,sounds/greatgatsby_chinese.wav,,,,,,,,,0,1,1,0,0,125,125,82,891.393280218,9.62149351835e-06,892.374295539,0.981025584508,,,,z,1,0.967165043578,2018_Nov_28_1540,60.0059659657,chinese_cond2,001,1060,
images/thumbtack02a.jpg,thumb tack,z,sounds/greatgatsby_chinese.wav,,,,,,,,,0,1,1,0,0,126,126,60,893.487016948,9.94210131466e-06,895.525078993,2.03807262867,,,,x,0,2.01742790546,2018_Nov_28_1540,60.0059659657,chinese_cond2,001,1060,
images/binder03b.jpg,dj mixer,x,sounds/greatgatsby_chinese.wav,,,,,,,,,0,1,1,0,0,127,127,167,896.638243637,9.621726349e-06,898.159053851,1.52082015714,,,,x,1,1.50063438364,2018_Nov_28_1540,60.0059659657,chinese_cond2,001,1060,
images/fork01.jpg,cooking pot,x,sounds/greatgatsby_chinese.wav,,,,,,,,,0,1,1,0,0,128,128,160,899.2538326,9.30088572204e-06,901.543239102,2.2894170857,,,,z,0,2.26750359521,2018_Nov_28_1540,60.0059659657,chinese_cond2,001,1060,
images/giraffe.jpg,lettuce,x,sounds/greatgatsby_chinese.wav,,,,,,,,,0,1,1,0,0,129,129,195,902.646144244,9.62149351835e-06,903.893811009,1.24767702748,,,,x,1,1.23387229186,2018_Nov_28_1540,60.0059659657,chinese_cond2,001,1060,
images/banjo.jpg,knife,x,sounds/greatgatsby_chinese.wav,,,,,,,,,0,1,1,0,0,130,130,191,904.990065068,9.30088572204e-06,906.527792602,1.53773843893,,,,x,1,1.51730282465,2018_Nov_28_1540,60.0059659657,chinese_cond2,001,1060,
images/ostrich.jpg,ostrich,z,sounds/greatgatsby_chinese.wav,,,,,,,,,0,1,1,0,0,131,131,76,907.628745524,9.621726349e-06,909.144931603,1.51619698363,,,,z,1,1.50045766681,2018_Nov_28_1540,60.0059659657,chinese_cond2,001,1060,
images/parkingmeter.jpg,ear,x,sounds/greatgatsby_chinese.wav,,,,,,,,,0,1,1,0,0,132,132,171,910.247032702,9.62149351835e-06,912.079167078,1.83214463945,,,,x,1,1.81738383858,2018_Nov_28_1540,60.0059659657,chinese_cond2,001,1060,
images/toucan.jpg,toucan,z,sounds/greatgatsby_chinese.wav,,,,,,,,,0,1,1,0,0,133,133,81,913.180035972,9.30088572204e-06,914.096340653,0.916314623319,,,,x,0,0.900495768525,2018_Nov_28_1540,60.0059659657,chinese_cond2,001,1060,
images/handfan01b.jpg,handfan,z,sounds/greatgatsby_chinese.wav,,,,,,,,,0,1,1,0,0,134,134,69,915.210351355,9.94233414531e-06,916.730293702,1.51995261037,,,,x,0,1.50061930972,2018_Nov_28_1540,60.0059659657,chinese_cond2,001,1060,
images/mattress.jpg,cat,x,sounds/greatgatsby_chinese.wav,,,,,,,,,0,1,1,0,0,135,135,147,917.835303087,9.94233414531e-06,918.764134115,0.928840970621,,,,x,1,0.917146570049,2018_Nov_28_1540,60.0059659657,chinese_cond2,001,1060,
images/bat.jpg,hand,x,sounds/greatgatsby_chinese.wav,,,,,,,,,0,1,1,0,0,136,136,185,919.862322113,9.621726349e-06,921.081372667,1.21906113811,,,,x,1,1.20055112476,2018_Nov_28_1540,60.0059659657,chinese_cond2,001,1060,
images/radio03a.jpg,radio,z,sounds/greatgatsby_chinese.wav,,,,,,,,,0,1,1,0,0,137,137,37,922.195590875,9.621726349e-06,923.165231233,0.969650941668,,,,z,1,0.95049980958,2018_Nov_28_1540,60.0059659657,chinese_cond2,001,1060,
images/flashlight05.jpg,flash light,z,sounds/greatgatsby_chinese.wav,,,,,,,,,0,1,1,0,0,138,138,8,924.266768827,9.30088572204e-06,925.499141113,1.23238158715,,,,z,1,1.21723014978,2018_Nov_28_1540,60.0059659657,chinese_cond2,001,1060,
images/gluestick.jpg,squirrel,x,sounds/greatgatsby_chinese.wav,,,,,,,,,0,1,1,0,0,139,139,226,926.608830117,9.30088572204e-06,928.949978319,2.34115878586,,,,x,1,2.31749256235,2018_Nov_28_1540,60.0059659657,chinese_cond2,001,1060,
images/knife04.jpg,tooth brush,x,sounds/greatgatsby_chinese.wav,,,,,,,,,0,1,1,0,0,140,140,233,930.048544125,9.621726349e-06,931.283905518,1.23537133564,,,,x,1,1.21723784693,2018_Nov_28_1540,60.0059659657,chinese_cond2,001,1060,
images/lion.jpg,lion,z,sounds/greatgatsby_chinese.wav,,,,,,,,,0,1,1,0,0,141,141,44,932.396167015,9.30088572204e-06,933.467838875,1.07168372674,,,,z,1,1.05051687174,2018_Nov_28_1540,60.0059659657,chinese_cond2,001,1060,
images/screw03c.jpg,screw,z,sounds/greatgatsby_chinese.wav,,,,,,,,,0,1,1,0,0,142,142,84,934.562144883,9.621726349e-06,937.551940867,2.98980656755,,,,None,0,,2018_Nov_28_1540,60.0059659657,chinese_cond2,001,1060,
images/teapot.jpg,light switch,x,sounds/greatgatsby_chinese.wav,,,,,,,,,0,1,1,0,0,143,143,197,938.669446451,9.62149351835e-06,939.735969798,1.06653361069,,,,x,1,1.05051462678,2018_Nov_28_1540,60.0059659657,chinese_cond2,001,1060,
images/comb02a.jpg,diploma,x,sounds/greatgatsby_chinese.wav,,,,,,,,,0,1,1,0,0,144,144,166,940.840684441,9.62149351835e-06,942.186591802,1.34591826517,,,,x,1,1.33393265144,2018_Nov_28_1540,60.0059659657,chinese_cond2,001,1060,
images/snowman.jpg,globe,x,sounds/greatgatsby_chinese.wav,,,,,,,,,0,1,1,0,0,145,145,180,943.298515902,9.62149351835e-06,944.303766403,1.00526012294,,,,x,1,0.983834767947,2018_Nov_28_1540,60.0059659657,chinese_cond2,001,1060,
images/mushroom01.jpg,shower head,x,sounds/greatgatsby_chinese.wav,,,,,,,,,0,1,1,0,0,146,146,222,945.421016053,9.62149351835e-06,946.937777823,1.5167726751,,,,x,1,1.50061963033,2018_Nov_28_1540,60.0059659657,chinese_cond2,001,1060,
images/paperclip04.jpg,eye drops,x,sounds/greatgatsby_chinese.wav,,,,,,,,,0,1,1,0,0,147,147,174,948.04297098,9.62149351835e-06,949.67175018,1.62878914224,,,,x,1,1.6173112276,2018_Nov_28_1540,60.0059659657,chinese_cond2,001,1060,
images/camera01a.jpg,bull,x,sounds/greatgatsby_chinese.wav,,,,,,,,,0,1,1,0,0,148,148,138,950.782692557,9.30088572204e-06,952.605821446,1.82313915249,,,,x,1,1.80070866225,2018_Nov_28_1540,60.0059659657,chinese_cond2,001,1060,
images/radish01.jpg,raisin,x,sounds/greatgatsby_chinese.wav,,,,,,,,,0,1,1,0,0,149,149,214,953.718752285,9.621726349e-06,954.673005797,0.954264095984,,,,x,1,0.933831368107,2018_Nov_28_1540,60.0059659657,chinese_cond2,001,1060,
images/weight01.jpg,weight,z,sounds/greatgatsby_chinese.wav,,,,,,,,,0,1,1,0,0,150,150,67,955.778314734,9.621726349e-06,957.056943131,1.27863866067,,,,z,1,1.26726465905,2018_Nov_28_1540,60.0059659657,chinese_cond2,001,1060,
images/daisy.jpg,daisy,z,sounds/greatgatsby_chinese.wav,,,,,,,,,0,1,1,0,0,151,151,6,958.159315559,8.98004509509e-06,960.17437046,2.01506452239,,,,x,0,2.00076844427,2018_Nov_28_1540,60.0059659657,chinese_cond2,001,1060,
images/umbrella01.jpg,umbrella,z,sounds/greatgatsby_chinese.wav,,,,,,,,,0,1,1,0,0,152,152,53,961.287979941,9.30088572204e-06,962.208186497,0.920216498664,,,,z,1,0.900488712592,2018_Nov_28_1540,60.0059659657,chinese_cond2,001,1060,
images/watermelon01.jpg,orange,x,sounds/greatgatsby_chinese.wav,,,,,,,,,0,1,1,0,0,153,153,207,963.337681543,9.62149351835e-06,964.208672388,0.87100142776,,,,x,1,0.850462541915,2018_Nov_28_1540,60.0059659657,chinese_cond2,001,1060,
images/sportshorts02.jpg,tape,x,sounds/greatgatsby_chinese.wav,,,,,,,,,0,1,1,0,0,154,154,230,965.31664458,1.02629419416e-05,966.876043141,1.55940914457,,,,x,1,1.55066857208,2018_Nov_28_1540,60.0059659657,chinese_cond2,001,1060,
images/treadmill.jpg,lily,x,sounds/greatgatsby_chinese.wav,,,,,,,,,0,1,1,0,0,155,155,199,967.982233094,9.94233414531e-06,969.126558216,1.14433538564,,,,x,1,1.13386709639,2018_Nov_28_1540,60.0059659657,chinese_cond2,001,1060,
images/pouch01b.jpg,pouch,z,sounds/greatgatsby_chinese.wav,,,,,,,,,0,1,1,0,0,156,156,25,970.240113496,9.62149351835e-06,972.344013511,2.10390995722,,,,x,0,2.08410102921,2018_Nov_28_1540,60.0059659657,chinese_cond2,001,1060,
images/bottleofredwine02.jpg,pipe,x,sounds/greatgatsby_chinese.wav,,,,,,,,,0,1,1,0,0,157,157,213,973.444211139,9.94233414531e-06,974.327846675,0.883645799709,,,,x,1,0.867145736469,2018_Nov_28_1540,60.0059659657,chinese_cond2,001,1060,
images/doorhandle.jpg,doll,x,sounds/greatgatsby_chinese.wav,,,,,,,,,0,1,1,0,0,158,158,168,975.432382998,9.94233414531e-06,977.078518904,1.64614584786,,,,z,0,1.63398095174,2018_Nov_28_1540,60.0059659657,chinese_cond2,001,1060,
images/notebook02b.jpg,notebook,z,sounds/greatgatsby_chinese.wav,,,,,,,,,0,1,1,0,0,159,159,7,978.185752479,9.3006528914e-06,979.062338598,0.876595740439,,,,z,1,0.867117192131,2018_Nov_28_1540,60.0059659657,chinese_cond2,001,1060,
images/egg01b (1).jpg,egg,z,sounds/greatgatsby_chinese.wav,,,,,,,,,0,1,1,0,0,160,160,19,980.176154943,9.30088572204e-06,981.42960717,1.25346313068,,,,z,1,1.23391238204,2018_Nov_28_1540,60.0059659657,chinese_cond2,001,1060,
images/gamecontroller01.jpg,game controller,z,sounds/greatgatsby_chinese.wav,,,,,,,,,0,1,1,0,0,161,161,112,982.549877678,9.30088572204e-06,983.580130841,1.03026310564,,,,z,1,1.01718576229,2018_Nov_28_1540,60.0059659657,chinese_cond2,001,1060,
images/axe01.jpg,axe,z,sounds/greatgatsby_chinese.wav,,,,,,,,,0,1,1,0,0,162,162,104,984.683334573,1.02629419416e-05,985.880678822,1.1973551535,,,,z,1,1.18386472296,2018_Nov_28_1540,60.0059659657,chinese_cond2,001,1060,
images/candycane01a.jpg,lip,x,sounds/greatgatsby_chinese.wav,,,,,,,,,0,1,1,0,0,163,163,200,986.974484507,9.30088572204e-06,989.614947203,2.64047231735,,,,x,1,2.61757421773,2018_Nov_28_1540,60.0059659657,chinese_cond2,001,1060,
images/pictureframe04.jpg,picture frame,z,sounds/greatgatsby_chinese.wav,,,,,,,,,0,1,1,0,0,164,164,41,990.737366853,9.62149351835e-06,992.248923344,1.51156707457,,,,x,0,1.50063053472,2018_Nov_28_1540,60.0059659657,chinese_cond2,001,1060,
images/dolphin01.jpg,dolphin,z,sounds/greatgatsby_chinese.wav,,,,,,,,,0,1,1,0,0,165,165,99,993.3477701,9.94233414531e-06,994.232760357,0.885000840295,,,,z,1,0.867150226375,2018_Nov_28_1540,60.0059659657,chinese_cond2,001,1060,
images/diploma01.jpg,glasses,x,sounds/greatgatsby_chinese.wav,,,,,,,,,0,1,1,0,0,166,166,179,995.364982803,1.12252309918e-05,996.666686017,1.30171508039,,,,z,0,1.28391321586,2018_Nov_28_1540,60.0059659657,chinese_cond2,001,1060,
images/pen03c.jpg,pepper,x,sounds/greatgatsby_chinese.wav,,,,,,,,,0,1,1,0,0,167,167,211,997.760890998,9.62149351835e-06,1000.1675417,2.40666096192,,,,x,1,2.38416279992,2018_Nov_28_1540,60.0059659657,chinese_cond2,001,1060,
images/bullet (2).jpg,rubber glove,x,sounds/greatgatsby_chinese.wav,,,,,,,,,0,1,1,0,0,168,168,217,1001.27128873,9.94233414531e-06,1002.63483663,1.36355848727,,,,x,1,1.35060397908,2018_Nov_28_1540,60.0059659657,chinese_cond2,001,1060,
images/dreamcatcher.jpg,dream catcher,z,sounds/greatgatsby_chinese.wav,,,,,,,,,0,1,1,0,0,169,169,48,1003.73411796,9.621726349e-06,1005.6022188,1.86811142322,,,,x,0,1.85070981667,2018_Nov_28_1540,60.0059659657,chinese_cond2,001,1060,
images/icecube02 (2).jpg,aloe,x,sounds/greatgatsby_chinese.wav,,,,,,,,,0,1,1,0,0,170,170,122,1006.71377119,9.62149351835e-06,1007.8694578,1.15569719952,,,,x,1,1.13388088718,2018_Nov_28_1540,60.0059659657,chinese_cond2,001,1060,
images/stapler03a.jpg,candy cane,x,sounds/greatgatsby_chinese.wav,,,,,,,,,0,1,1,0,0,171,171,145,1008.98273117,9.30088572204e-06,1010.42006833,1.43734709686,,,,x,1,1.41725272825,2018_Nov_28_1540,60.0059659657,chinese_cond2,001,1060,
images/floorlamp.jpg,floor lamp,z,sounds/greatgatsby_chinese.wav,,,,,,,,,0,1,1,0,0,172,172,26,1011.51336054,9.30088572204e-06,1012.88736486,1.37401426816,,,,z,1,1.35060526198,2018_Nov_28_1540,60.0059659657,chinese_cond2,001,1060,
images/hairband.jpg,hairband,z,sounds/greatgatsby_chinese.wav,,,,,,,,,0,1,1,0,0,173,173,66,1013.99683001,9.621726349e-06,1015.30460733,1.30778758624,,,,x,0,1.28390487703,2018_Nov_28_1540,60.0059659657,chinese_cond2,001,1060,
images/50dollarbill.jpg,cherry,x,sounds/greatgatsby_chinese.wav,,,,,,,,,0,1,1,0,0,174,174,151,1016.42512191,9.30088572204e-06,1018.50541182,2.0802998601,,,,x,1,2.06744637876,2018_Nov_28_1540,60.0059659657,chinese_cond2,001,1060,
images/ruler02b.jpg,watermelon,x,sounds/greatgatsby_chinese.wav,,,,,,,,,0,1,1,0,0,175,175,238,1019.60777367,9.621726349e-06,1021.58949136,1.98172860197,,,,z,0,1.96731963032,2018_Nov_28_1540,60.0059659657,chinese_cond2,001,1060,
images/sock03.jpg,sock,z,sounds/greatgatsby_chinese.wav,,,,,,,,,0,1,1,0,0,176,176,90,1022.69703572,9.30088572204e-06,1023.79005403,1.09302826063,,,,x,0,1.08387363912,2018_Nov_28_1540,60.0059659657,chinese_cond2,001,1060,
images/cake.jpg,cake,z,sounds/greatgatsby_chinese.wav,,,,,,,,,0,1,1,0,0,177,177,23,1024.90428539,9.62149351835e-06,1025.69050651,0.786231377395,,,,z,1,0.76711744885,2018_Nov_28_1540,60.0059659657,chinese_cond2,001,1060,
images/calculator02b.jpg,dice,x,sounds/greatgatsby_chinese.wav,,,,,,,,,0,1,1,0,0,178,178,165,1026.79292704,9.30088572204e-06,1028.1244466,1.33153014071,,,,x,1,1.31725009833,2018_Nov_28_1540,60.0059659657,chinese_cond2,001,1060,
images/handbag02a.jpg,candle,x,sounds/greatgatsby_chinese.wav,,,,,,,,,0,1,1,0,0,179,179,144,1029.24050798,8.98004509509e-06,1030.50837976,1.26788236527,,,,x,1,1.25058467197,2018_Nov_28_1540,60.0059659657,chinese_cond2,001,1060,
images/atm.jpg,atm,z,sounds/greatgatsby_chinese.wav,,,,,,,,,0,1,1,0,0,180,180,96,1031.64635816,9.30088572204e-06,1032.64222313,0.995874904096,,,,z,1,0.983835409163,2018_Nov_28_1540,60.0059659657,chinese_cond2,001,1060,
images/lettuce.jpg,mushroom,x,sounds/greatgatsby_chinese.wav,,,,,,,,,0,1,1,0,0,181,181,205,1033.76626754,9.62149351835e-06,1034.67605744,0.909800166031,,,,x,1,0.900478449417,2018_Nov_28_1540,60.0059659657,chinese_cond2,001,1060,
images/hammer02a.jpg,flower,x,sounds/greatgatsby_chinese.wav,,,,,,,,,0,1,1,0,0,182,182,176,1035.77116204,9.30088572204e-06,1037.02663769,1.25548590953,,,,x,1,1.23389762873,2018_Nov_28_1540,60.0059659657,chinese_cond2,001,1060,
images/blueberry02.jpg,blueberry,z,sounds/greatgatsby_chinese.wav,,,,,,,,,0,1,1,0,0,183,183,46,1038.1409983,9.30088572204e-06,1038.96045014,0.819462422747,,,,z,1,0.80045497301,2018_Nov_28_1540,60.0059659657,chinese_cond2,001,1060,
images/plate01b.jpg,plate,z,sounds/greatgatsby_chinese.wav,,,,,,,,,0,1,1,0,0,184,184,3,1040.06047842,9.62149351835e-06,1041.69447253,1.63400468486,,,,z,1,1.61734009255,2018_Nov_28_1540,60.0059659657,chinese_cond2,001,1060,
images/grasshopper.jpg,cauliflower,x,sounds/greatgatsby_chinese.wav,,,,,,,,,0,1,1,0,0,185,185,148,1042.78771374,9.621726349e-06,1043.86166849,1.07396500558,,,,x,1,1.05052136187,2018_Nov_28_1540,60.0059659657,chinese_cond2,001,1060,
images/fireextinguisher02.jpg,fire extinguisher,x,sounds/greatgatsby_chinese.wav,,,,,,,,,0,1,1,0,0,186,186,175,1044.97102138,9.94210131466e-06,1046.14555925,1.17454910022,,,,z,0,1.15054804576,2018_Nov_28_1540,60.0059659657,chinese_cond2,001,1060,
images/lychee02a.jpg,lychee,z,sounds/greatgatsby_chinese.wav,,,,,,,,,0,1,1,0,0,187,187,62,1047.26960046,9.94233414531e-06,1048.31275778,1.04316726048,,,,z,1,1.03384971339,2018_Nov_28_1540,60.0059659657,chinese_cond2,001,1060,
images/medal01.jpg,medal,z,sounds/greatgatsby_chinese.wav,,,,,,,,,0,1,1,0,0,188,188,115,1049.41416773,9.62149351835e-06,1050.52998344,1.11582629546,,,,x,0,1.10052444087,2018_Nov_28_1540,60.0059659657,chinese_cond2,001,1060,
images/glasses01b.jpg,calculator,x,sounds/greatgatsby_chinese.wav,,,,,,,,,0,1,1,0,0,189,189,142,1051.62349663,9.30088572204e-06,1052.780537,1.1570506366,,,,x,1,1.13388473587,2018_Nov_28_1540,60.0059659657,chinese_cond2,001,1060,
images/mailbox01.jpg,mail box,z,sounds/greatgatsby_chinese.wav,,,,,,,,,0,1,1,0,0,190,190,73,1053.90047139,9.62149351835e-06,1054.83103559,0.930575101636,,,,z,1,0.917155229719,2018_Nov_28_1540,60.0059659657,chinese_cond2,001,1060,
,,,sounds/greatgatsby_chinese.wav,,,,,,,,,0,1,1,0,,,,,,,,,,,,,,,2018_Nov_28_1540,60.0059659657,chinese_cond2,001,1060,
