images,name,corrAns,sounds,trials_3.thisRepN,trials_3.thisTrialN,trials_3.thisN,trials_3.thisIndex,trials_4.thisRepN,trials_4.thisTrialN,trials_4.thisN,trials_4.thisIndex,trials_2.thisRepN,trials_2.thisTrialN,trials_2.thisN,trials_2.thisIndex,trials.thisRepN,trials.thisTrialN,trials.thisN,trials.thisIndex,begin_global,begin_routine,end_global,end_routine,key_resp_2.keys,key_resp_2.corr,key_resp_2.rt,begin_book,key_resp_1.keys,key_resp_1.corr,key_resp_1.rt,date,frameRate,expName,session,participant
images/volleyball.jpg,volley ball,z,,0,0,0,0,,,,,,,,,,,,,,,,,,,,,,,,2018_Dec_04_1105,59.9848401862,chinese_cond1,1,1069
images/puma.jpg,puma,z,,,,,,0,0,0,0,,,,,,,,,48.1698656315,1.05837825686E-05,50.1754551334,2.005601048,x,0,1.98409358854,,,,,2018_Dec_04_1105,59.9848401862,chinese_cond1,1,1069
images/tent.jpg,tent,z,sounds/animalfarm_chinese.wav,,,,,,,,,0,0,0,1,0,0,0,11,92.4461906205,9.62149351835E-06,94.1029606273,1.65678059054,,,,82.171633438,x,0,1.63399859122,2018_Dec_04_1105,59.9848401862,chinese_cond1,1,1069
images/barrel01.jpg,barrel,z,sounds/animalfarm_chinese.wav,,,,,,,,,0,0,0,1,0,1,1,9,95.2405288282,9.30088572204E-06,96.8369326631,1.59641377698,,,,,z,1,1.58393553807,2018_Dec_04_1105,59.9848401862,chinese_cond1,1,1069
images/feather03b.jpg,feather,z,sounds/animalfarm_chinese.wav,,,,,,,,,0,0,0,1,0,2,2,114,97.9383208018,9.62149351835E-06,99.4540912281,1.51578036859,,,,,x,0,1.50045189378,2018_Dec_04_1105,59.9848401862,chinese_cond1,1,1069
images/globe.jpg,cloud,x,sounds/animalfarm_chinese.wav,,,,,,,,,0,0,0,1,0,3,3,154,100.582276776,9.3006528914E-06,101.838013167,1.25574633363,,,,,x,1,1.23372283671,2018_Dec_04_1105,59.9848401862,chinese_cond1,1,1069
images/pictureframe04.jpg,picture frame,z,sounds/animalfarm_chinese.wav,,,,,,,,,0,0,0,1,0,4,4,41,102.960392086,8.98027792573E-06,104.655545179,1.69516367605,,,,,z,1,1.68400102877,2018_Dec_04_1105,59.9848401862,chinese_cond1,1,1069
images/clothespin02a.jpg,clothes pin,z,sounds/animalfarm_chinese.wav,,,,,,,,,0,0,0,1,0,5,5,79,105.761353155,9.30088572204E-06,107.322867824,1.56152493204,,,,,z,1,1.55063778325,2018_Dec_04_1105,59.9848401862,chinese_cond1,1,1069
images/plate01b.jpg,plate,z,sounds/animalfarm_chinese.wav,,,,,,,,,0,0,0,1,0,6,6,3,108.424369818,9.30088572204E-06,110.273591496,1.84923129925,,,,,x,0,1.83404073399,2018_Dec_04_1105,59.9848401862,chinese_cond1,1,1069
images/remotecontrol01c.jpg,remote control,z,sounds/animalfarm_chinese.wav,,,,,,,,,0,0,0,1,0,7,7,85,111.385273452,9.30088572204E-06,112.690864109,1.30560091953,,,,,z,1,1.28390519787,2018_Dec_04_1105,59.9848401862,chinese_cond1,1,1069
images/bracelet02a.jpg,chess knight,x,sounds/animalfarm_chinese.wav,,,,,,,,,0,0,0,1,0,8,8,152,113.799884413,9.621726349E-06,116.325078865,2.52520535677,,,,,x,1,2.50086979149,2018_Dec_04_1105,59.9848401862,chinese_cond1,1,1069
images/cookingpot.jpg,grasshopper,x,sounds/animalfarm_chinese.wav,,,,,,,,,0,0,0,1,0,9,9,183,117.440960966,9.30088572204E-06,120.44261171,3.00166325201,,,,,None,0,,2018_Dec_04_1105,59.9848401862,chinese_cond1,1,1069
images/magnifyingglass01b.jpg,magnifying glass,z,sounds/animalfarm_chinese.wav,,,,,,,,,0,0,0,1,0,10,10,64,121.549890506,8.98027792573E-06,123.343495549,1.79361466435,,,,,z,1,1.78404342802,2018_Dec_04_1105,59.9848401862,chinese_cond1,1,1069
images/parkbench03.jpg,park bench,z,sounds/animalfarm_chinese.wav,,,,,,,,,0,0,0,1,0,11,11,71,124.449450736,9.30088572204E-06,125.76073577,1.31129497616,,,,,z,1,1.30052809697,2018_Dec_04_1105,59.9848401862,chinese_cond1,1,1069
images/eyedrops.jpg,bicycle,x,sounds/animalfarm_chinese.wav,,,,,,,,,0,0,0,1,0,12,12,131,126.861577723,9.30088572204E-06,128.127997285,1.26642950508,,,,,x,1,1.25055933511,2018_Dec_04_1105,59.9848401862,chinese_cond1,1,1069
images/ladybug03.jpg,giraffe,x,sounds/animalfarm_chinese.wav,,,,,,,,,0,0,0,1,0,13,13,178,129.231063429,9.621726349E-06,130.445235838,1.21418235102,,,,,z,0,1.20054631378,2018_Dec_04_1105,59.9848401862,chinese_cond1,1,1069
images/bus.jpg,microphone,x,sounds/animalfarm_chinese.wav,,,,,,,,,0,0,0,1,0,14,14,203,131.563198127,9.62149351835E-06,133.179243153,1.61605561012,,,,,x,1,1.60065112496,2018_Dec_04_1105,59.9848401862,chinese_cond1,1,1069
images/electrictoothbrush01a.jpg,banjo,x,sounds/animalfarm_chinese.wav,,,,,,,,,0,0,0,1,0,15,15,127,134.273775589,9.30088572204E-06,136.096626735,1.82286108867,,,,,x,1,1.80069262604,2018_Dec_04_1105,59.9848401862,chinese_cond1,1,1069
images/hand01a.jpg,cupcake,x,sounds/animalfarm_chinese.wav,,,,,,,,,0,0,0,1,0,16,16,163,137.210379258,8.98027792573E-06,138.380554063,1.17018506816,,,,,x,1,1.1505595916,2018_Dec_04_1105,59.9848401862,chinese_cond1,1,1069
images/nametag01a.jpg,name tag,z,sounds/animalfarm_chinese.wav,,,,,,,,,0,0,0,1,0,17,17,108,139.501262994,9.30088572204E-06,141.564633347,2.06338061602,,,,,z,1,2.05074939365,2018_Dec_04_1105,59.9848401862,chinese_cond1,1,1069
images/swan.jpg,swan,z,sounds/animalfarm_chinese.wav,,,,,,,,,0,0,0,1,0,18,18,54,142.656622155,9.3006528914E-06,143.931878186,1.27526565199,,,,,x,0,1.25054843072,2018_Dec_04_1105,59.9848401862,chinese_cond1,1,1069
images/beermug01b.jpg,beer mug,z,sounds/animalfarm_chinese.wav,,,,,,,,,0,0,0,1,0,19,19,111,145.049432519,9.30088572204E-06,146.232453428,1.18303053128,,,,,z,1,1.16716805822,2018_Dec_04_1105,59.9848401862,chinese_cond1,1,1069
images/arrow02.jpg,hammer,x,sounds/animalfarm_chinese.wav,,,,,,,,,0,0,0,1,0,20,20,184,147.330593639,9.30088572204E-06,148.433250866,1.10266716871,,,,,z,0,1.08409525617,2018_Dec_04_1105,59.9848401862,chinese_cond1,1,1069
images/hairdryer03a.jpg,hairdryer,z,sounds/animalfarm_chinese.wav,,,,,,,,,0,0,0,1,0,21,21,119,149.532037327,9.30088572204E-06,150.683556832,1.15152912703,,,,,z,1,1.13386100251,2018_Dec_04_1105,59.9848401862,chinese_cond1,1,1069
images/doll.jpg,carrot,x,sounds/animalfarm_chinese.wav,,,,,,,,,0,0,0,1,0,22,22,146,151.794425444,9.62149351835E-06,152.767411869,0.972996368073,,,,,x,1,0.950497243786,2018_Dec_04_1105,59.9848401862,chinese_cond1,1,1069
images/pineapple01a.jpg,pineapple,z,sounds/animalfarm_chinese.wav,,,,,,,,,0,0,0,1,0,23,23,51,153.880300694,8.98004509509E-06,155.184673899,1.30438314704,,,,,z,1,1.28390872572,2018_Dec_04_1105,59.9848401862,chinese_cond1,1,1069
images/eraser.jpg,eraser,z,sounds/animalfarm_chinese.wav,,,,,,,,,0,0,0,1,0,24,24,110,156.293114983,9.94233414531E-06,157.451887564,1.15878316388,,,,,z,1,1.15053521679,2018_Dec_04_1105,59.9848401862,chinese_cond1,1,1069
images/parkfountain.jpg,park fountain,z,sounds/animalfarm_chinese.wav,,,,,,,,,0,0,0,1,0,25,25,93,158.571837352,9.62149351835E-06,161.219497638,2.64767022827,,,,,z,1,2.6342413763,2018_Dec_04_1105,59.9848401862,chinese_cond1,1,1069
images/cherry01.jpg,highlighter,x,sounds/animalfarm_chinese.wav,,,,,,,,,0,0,0,1,0,26,26,187,162.330059641,9.30088572204E-06,163.253326504,0.923276805552,,,,,x,1,0.900473638671,2018_Dec_04_1105,59.9848401862,chinese_cond1,1,1069
images/banana04a.jpg,banana,z,sounds/animalfarm_chinese.wav,,,,,,,,,0,0,0,1,0,27,27,118,164.359700551,9.30088572204E-06,165.103798668,0.744108059444,,,,,z,1,0.733785697492,2018_Dec_04_1105,59.9848401862,chinese_cond1,1,1069
images/handfan01b.jpg,handfan,z,sounds/animalfarm_chinese.wav,,,,,,,,,0,0,0,1,0,28,28,69,166.218022969,9.94233414531E-06,167.904467561,1.68645549635,,,,,z,1,1.66732649389,2018_Dec_04_1105,59.9848401862,chinese_cond1,1,1069
images/lightswitch02a.jpg,fork,x,sounds/animalfarm_chinese.wav,,,,,,,,,0,0,0,1,0,29,29,177,169.015832646,8.98027792573E-06,170.288400725,1.27257866296,,,,,x,1,1.25056703249,2018_Dec_04_1105,59.9848401862,chinese_cond1,1,1069
images/lipstick04.jpg,lipstick,z,sounds/animalfarm_chinese.wav,,,,,,,,,0,0,0,1,0,30,30,56,171.387981929,9.30088572204E-06,172.98906763,1.60109596304,,,,,z,1,1.58398043877,2018_Dec_04_1105,59.9848401862,chinese_cond1,1,1069
images/radio03a.jpg,radio,z,sounds/animalfarm_chinese.wav,,,,,,,,,0,0,0,1,0,31,31,37,174.102991737,9.62149351835E-06,175.206282064,1.10330091068,,,,,z,1,1.08386594173,2018_Dec_04_1105,59.9848401862,chinese_cond1,1,1069
images/spoon02b.jpg,spoon,z,sounds/animalfarm_chinese.wav,,,,,,,,,0,0,0,1,0,32,32,38,176.297575231,9.30088572204E-06,177.340136332,1.04257104266,,,,,z,1,1.03384137456,2018_Dec_04_1105,59.9848401862,chinese_cond1,1,1069
images/volleyball.jpg,volley ball,z,sounds/animalfarm_chinese.wav,,,,,,,,,0,0,0,1,0,33,33,2,178.47113876,9.621726349E-06,179.707378284,1.23624914535,,,,,z,1,1.21721603815,2018_Dec_04_1105,59.9848401862,chinese_cond1,1,1069
images/toothbrush03a.jpg,parrot,x,sounds/animalfarm_chinese.wav,,,,,,,,,0,0,0,1,0,34,34,210,180.799748107,9.30088572204E-06,182.074623764,1.2748855995,,,,,x,1,1.25055067567,2018_Dec_04_1105,59.9848401862,chinese_cond1,1,1069
images/candycane01a.jpg,lip,x,sounds/animalfarm_chinese.wav,,,,,,,,,0,0,0,1,0,35,35,200,183.168557095,8.98027792573E-06,184.425215235,1.25666808221,,,,,x,1,1.23389185593,2018_Dec_04_1105,59.9848401862,chinese_cond1,1,1069
images/hanger02a.jpg,hanger,z,sounds/animalfarm_chinese.wav,,,,,,,,,0,0,0,1,0,36,36,88,185.518863126,9.621726349E-06,186.675765269,1.1569120856,,,,,z,1,1.13380070752,2018_Dec_04_1105,59.9848401862,chinese_cond1,1,1069
images/notebook02b.jpg,notebook,z,sounds/animalfarm_chinese.wav,,,,,,,,,0,0,0,1,0,37,37,7,187.783441117,9.30088572204E-06,188.592917612,0.809486117447,,,,,z,1,0.800431239652,2018_Dec_04_1105,59.9848401862,chinese_cond1,1,1069
images/tulip02.jpg,sport shorts,x,sounds/animalfarm_chinese.wav,,,,,,,,,0,0,0,1,0,38,38,225,189.687153062,9.94233414531E-06,190.710093817,1.0229510183,,,,,x,1,1.0004939083,2018_Dec_04_1105,59.9848401862,chinese_cond1,1,1069
images/electricguitar02.jpg,electric guitar,z,sounds/animalfarm_chinese.wav,,,,,,,,,0,0,0,1,0,39,39,100,191.811795299,4.16934490204E-05,193.010660721,1.19888306176,,,,,z,1,1.18387658964,2018_Dec_04_1105,59.9848401862,chinese_cond1,1,1069
images/cocktailshrimp01.jpg,cocktail shrimp,z,sounds/animalfarm_chinese.wav,,,,,,,,,0,0,0,1,0,40,40,30,194.125271169,9.621726349E-06,195.244554822,1.1192939165,,,,,x,0,1.10052796849,2018_Dec_04_1105,59.9848401862,chinese_cond1,1,1069
images/ostrich.jpg,ostrich,z,sounds/animalfarm_chinese.wav,,,,,,,,,0,0,0,1,0,41,41,76,196.346552649,9.30088572204E-06,197.378396581,1.0318532337,,,,,z,1,1.01713861641,2018_Dec_04_1105,59.9848401862,chinese_cond1,1,1069
images/leek.jpg,donut,x,sounds/animalfarm_chinese.wav,,,,,,,,,0,0,0,1,0,42,42,169,198.479212556,9.62149351835E-06,199.728978752,1.24977645837,,,,,x,1,1.23383252276,2018_Dec_04_1105,59.9848401862,chinese_cond1,1,1069
images/seagull.jpg,seagull,z,sounds/animalfarm_chinese.wav,,,,,,,,,0,0,0,1,0,43,43,50,200.921049087,9.62149351835E-06,201.779503,0.85846385546,,,,,z,1,0.83379891119,2018_Dec_04_1105,59.9848401862,chinese_cond1,1,1069
images/printer03a.jpg,printer,z,sounds/animalfarm_chinese.wav,,,,,,,,,0,0,0,1,0,44,44,72,202.89035301,9.621726349E-06,204.013373368,1.1230309417,,,,,z,1,1.10051995073,2018_Dec_04_1105,59.9848401862,chinese_cond1,1,1069
images/panda.jpg,panda,z,sounds/animalfarm_chinese.wav,,,,,,,,,0,0,0,1,0,45,45,83,205.122510734,9.94233414531E-06,205.78062616,0.658131782431,,,,,z,1,0.633863568306,2018_Dec_04_1105,59.9848401862,chinese_cond1,1,1069
images/dreamcatcher.jpg,dream catcher,z,sounds/animalfarm_chinese.wav,,,,,,,,,0,0,0,1,0,46,46,48,206.879163422,8.98004509509E-06,207.880990883,1.00183676137,,,,,z,1,0.983822259819,2018_Dec_04_1105,59.9848401862,chinese_cond1,1,1069
images/lollipop03b.jpg,lollipop,z,sounds/animalfarm_chinese.wav,,,,,,,,,0,0,0,1,0,47,47,42,208.975351092,9.62149351835E-06,210.231581712,1.25624056277,,,,,z,1,1.23389185593,2018_Dec_04_1105,59.9848401862,chinese_cond1,1,1069
images/lip.jpg,boxing glove,x,sounds/animalfarm_chinese.wav,,,,,,,,,0,0,0,1,0,48,48,136,211.334741506,9.94233414531E-06,212.6988465,1.36411525635,,,,,x,1,1.35057703871,2018_Dec_04_1105,59.9848401862,chinese_cond1,1,1069
images/comb02a.jpg,diploma,x,sounds/animalfarm_chinese.wav,,,,,,,,,0,0,0,1,0,49,49,166,213.804680775,9.94233414531E-06,215.032758946,1.22808843409,,,,,x,1,1.21721315151,2018_Dec_04_1105,59.9848401862,chinese_cond1,1,1069
images/puma.jpg,puma,z,sounds/animalfarm_chinese.wav,,,,,,,,,0,0,0,1,0,50,50,4,216.13194791,9.62149351835E-06,217.366687749,1.23474978097,,,,,x,0,1.21723399847,2018_Dec_04_1105,59.9848401862,chinese_cond1,1,1069
images/mirror02.jpg,8 ball,x,sounds/animalfarm_chinese.wav,,,,,,,,,0,0,0,1,0,51,51,121,218.470040295,9.30088572204E-06,219.900629188,1.43059851439,,,,,x,1,1.41726395348,2018_Dec_04_1105,59.9848401862,chinese_cond1,1,1069
images/puzzle.jpg,puzzle,z,sounds/animalfarm_chinese.wav,,,,,,,,,0,0,0,1,0,52,52,57,221.021428562,9.30088572204E-06,222.167863379,1.14644540008,,,,,z,1,1.13387094508,2018_Dec_04_1105,59.9848401862,chinese_cond1,1,1069
images/flower01.jpg,bus,x,sounds/animalfarm_chinese.wav,,,,,,,,,0,0,0,1,0,53,53,140,223.28386158,9.621726349E-06,224.168338044,0.884487047559,,,,,x,1,0.867122965166,2018_Dec_04_1105,59.9848401862,chinese_cond1,1,1069
images/triangleruler02.jpg,bottle of red wine,x,sounds/animalfarm_chinese.wav,,,,,,,,,0,0,0,1,0,54,54,134,225.281054321,9.30088572204E-06,226.585602318,1.30455858074,,,,,x,1,1.28389814217,2018_Dec_04_1105,59.9848401862,chinese_cond1,1,1069
images/cola.jpg,comb,x,sounds/animalfarm_chinese.wav,,,,,,,,,0,0,0,1,0,55,55,157,227.706424143,9.30088572204E-06,229.18625665,1.47984277061,,,,,x,1,1.4672821064,2018_Dec_04_1105,59.9848401862,chinese_cond1,1,1069
images/gamecontroller01.jpg,game controller,z,sounds/animalfarm_chinese.wav,,,,,,,,,0,0,0,1,0,56,56,112,230.307617284,3.2392796129E-05,232.953842991,2.64624238457,,,,,z,1,2.63421828439,2018_Dec_04_1105,59.9848401862,chinese_cond1,1,1069
images/tie01.jpg,bench,x,sounds/animalfarm_chinese.wav,,,,,,,,,0,0,0,1,0,57,57,130,234.052417456,8.65943729877E-06,235.554483212,1.50207537692,,,,,x,1,1.48394381255,2018_Dec_04_1105,59.9848401862,chinese_cond1,1,1069
images/raisin.jpg,ruler,x,sounds/animalfarm_chinese.wav,,,,,,,,,0,0,0,1,0,58,58,218,236.659747568,9.94233414531E-06,237.721703868,1.0619662425,,,,,x,1,1.05052168248,2018_Dec_04_1105,59.9848401862,chinese_cond1,1,1069
images/bowtie.jpg,bowtie,z,sounds/animalfarm_chinese.wav,,,,,,,,,0,0,0,1,0,59,59,89,238.832563499,9.30088572204E-06,240.172312722,1.33975916519,,,,,z,1,1.31725298497,2018_Dec_04_1105,59.9848401862,chinese_cond1,1,1069
images/table02.jpg,table,z,sounds/animalfarm_chinese.wav,,,,,,,,,0,0,0,1,0,60,60,49,241.286757358,8.98004509509E-06,242.139443128,0.852695712587,,,,,z,1,0.833786082454,2018_Dec_04_1105,59.9848401862,chinese_cond1,1,1069
images/nailpolish02b.jpg,nail polish,z,sounds/animalfarm_chinese.wav,,,,,,,,,0,0,0,1,0,61,61,94,243.247979146,3.72035428882E-05,245.040159552,1.79220702569,,,,,z,1,1.76735766791,2018_Dec_04_1105,59.9848401862,chinese_cond1,1,1069
images/acousticguitar02.jpg,acoustic guitar,z,sounds/animalfarm_chinese.wav,,,,,,,,,0,0,0,1,0,62,62,97,246.15432484,9.94233414531E-06,247.757509651,1.60319539392,,,,,z,1,1.58398557012,2018_Dec_04_1105,59.9848401862,chinese_cond1,1,1069
images/fryingpan01.jpg,frying pan,z,sounds/animalfarm_chinese.wav,,,,,,,,,0,0,0,1,0,63,63,45,248.860056549,9.62149351835E-06,249.841347369,0.981300761923,,,,,z,1,0.967159270775,2018_Dec_04_1105,59.9848401862,chinese_cond1,1,1069
images/ceilingfan02.jpg,paper clip,x,sounds/animalfarm_chinese.wav,,,,,,,,,0,0,0,1,0,64,64,208,250.941357055,9.62149351835E-06,252.508681239,1.56733444775,,,,,x,1,1.55059127859,2018_Dec_04_1105,59.9848401862,chinese_cond1,1,1069
images/snowman.jpg,globe,x,sounds/animalfarm_chinese.wav,,,,,,,,,0,0,0,1,0,65,65,180,253.620071341,9.30088572204E-06,255.326036855,1.70597545593,,,,,x,1,1.68399846298,2018_Dec_04_1105,59.9848401862,chinese_cond1,1,1069
images/bandaid01.jpg,door handle,x,sounds/animalfarm_chinese.wav,,,,,,,,,0,0,0,1,0,66,66,170,256.43336857,9.30088572204E-06,258.693539873,2.26018156577,,,,,x,1,2.25081430725,2018_Dec_04_1105,59.9848401862,chinese_cond1,1,1069
images/lightbulb03b.jpg,treadmill,x,sounds/animalfarm_chinese.wav,,,,,,,,,0,0,0,1,0,67,67,234,259.796183308,9.62149351835E-06,262.277754116,2.48158042924,,,,,z,0,2.46753483335,2018_Dec_04_1105,59.9848401862,chinese_cond1,1,1069
images/cat.jpg,black olive,x,sounds/animalfarm_chinese.wav,,,,,,,,,0,0,0,1,0,68,68,133,263.408943524,9.62149351835E-06,264.494965984,1.08603240293,,,,,x,1,1.06719012395,2018_Dec_04_1105,59.9848401862,chinese_cond1,1,1069
images/glasses01b.jpg,calculator,x,sounds/animalfarm_chinese.wav,,,,,,,,,0,0,0,1,0,69,69,142,265.588364355,9.62149351835E-06,266.945557841,1.35720342724,,,,,x,1,1.33390955976,2018_Dec_04_1105,59.9848401862,chinese_cond1,1,1069
images/sunglasses03a.jpg,sun glasses,z,sounds/animalfarm_chinese.wav,,,,,,,,,0,0,0,1,0,70,70,17,268.054186546,9.62149351835E-06,269.246137573,1.19196193176,,,,,z,1,1.18388011772,2018_Dec_04_1105,59.9848401862,chinese_cond1,1,1069
images/gluestick.jpg,squirrel,x,sounds/animalfarm_chinese.wav,,,,,,,,,0,0,0,1,0,71,71,226,270.355279751,9.621726349E-06,271.946651495,1.59138232749,,,,,z,0,1.5671240557,2018_Dec_04_1105,59.9848401862,chinese_cond1,1,1069
images/mushroom01.jpg,shower head,x,sounds/animalfarm_chinese.wav,,,,,,,,,0,0,0,1,0,72,72,222,273.064508908,8.98004509509E-06,274.264041106,1.19954181998,,,,,x,1,1.18388524908,2018_Dec_04_1105,59.9848401862,chinese_cond1,1,1069
images/masquerademask02b.jpg,mirror,x,sounds/animalfarm_chinese.wav,,,,,,,,,0,0,0,1,0,73,73,204,275.369470312,8.98027792573E-06,276.597946176,1.22848516423,,,,,x,1,1.2172198866,2018_Dec_04_1105,59.9848401862,chinese_cond1,1,1069
images/basketball01.jpg,basket ball,z,sounds/animalfarm_chinese.wav,,,,,,,,,0,0,0,1,0,74,74,33,277.737178591,9.30088572204E-06,278.881835017,1.14466668898,,,,,z,1,1.13385426765,2018_Dec_04_1105,59.9848401862,chinese_cond1,1,1069
images/djmixer01.jpg,light bulb,x,sounds/animalfarm_chinese.wav,,,,,,,,,0,0,0,1,0,75,75,196,280.003113867,9.30088572204E-06,282.666105835,2.66300223093,,,,,x,1,2.65089666797,2018_Dec_04_1105,59.9848401862,chinese_cond1,1,1069
images/banjo.jpg,knife,x,sounds/animalfarm_chinese.wav,,,,,,,,,0,0,0,1,0,76,76,191,283.762976638,9.30088572204E-06,285.500139192,1.73717281804,,,,,x,1,1.71733983583,2018_Dec_04_1105,59.9848401862,chinese_cond1,1,1069
images/skateboard.jpg,key,x,sounds/animalfarm_chinese.wav,,,,,,,,,0,0,0,1,0,77,77,189,286.591510936,9.62149351835E-06,287.400605455,0.809104140149,,,,,x,1,0.800444068387,2018_Dec_04_1105,59.9848401862,chinese_cond1,1,1069
images/kiwi03.jpg,backpack,x,sounds/animalfarm_chinese.wav,,,,,,,,,0,0,0,1,0,78,78,125,288.529118137,9.621726349E-06,289.91790411,1.38879591599,,,,,x,1,1.36725830869,2018_Dec_04_1105,59.9848401862,chinese_cond1,1,1069
images/mattress.jpg,cat,x,sounds/animalfarm_chinese.wav,,,,,,,,,0,0,0,1,0,79,79,147,291.02207802,8.98027792573E-06,291.968396286,0.946327888407,,,,,x,1,0.933685761644,2018_Dec_04_1105,59.9848401862,chinese_cond1,1,1069
images/computerkeyboard01a.jpg,computer keyboard,z,sounds/animalfarm_chinese.wav,,,,,,,,,0,0,0,1,0,80,80,61,293.085584358,9.30088572204E-06,294.635733364,1.5501586278,,,,,z,1,1.53396998323,2018_Dec_04_1105,59.9848401862,chinese_cond1,1,1069
images/peach01.jpg,peach,z,sounds/animalfarm_chinese.wav,,,,,,,,,0,0,0,1,0,81,81,106,295.765798008,9.94233414531E-06,297.136336959,1.37054921314,,,,,z,1,1.3505792839,2018_Dec_04_1105,59.9848401862,chinese_cond1,1,1069
images/bed.jpg,bed,z,sounds/animalfarm_chinese.wav,,,,,,,,,0,0,0,1,0,82,82,103,298.256528569,9.30088572204E-06,299.120172047,0.863653740846,,,,,z,1,0.850466390606,2018_Dec_04_1105,59.9848401862,chinese_cond1,1,1069
images/gorilla.jpg,gorilla,z,sounds/animalfarm_chinese.wav,,,,,,,,,0,0,0,1,0,83,83,80,300.232252337,9.30088572204E-06,301.604299311,1.37205691612,,,,,z,1,1.35077139479,2018_Dec_04_1105,59.9848401862,chinese_cond1,1,1069
images/bull.jpg,button,x,sounds/animalfarm_chinese.wav,,,,,,,,,0,0,0,1,0,84,84,141,302.711741674,9.62149351835E-06,303.604605278,0.892873545177,,,,,x,1,0.883801990189,2018_Dec_04_1105,59.9848401862,chinese_cond1,1,1069
images/doorhandle.jpg,doll,x,sounds/animalfarm_chinese.wav,,,,,,,,,0,0,0,1,0,85,85,168,304.708492785,9.62149351835E-06,306.021861213,1.31337901228,,,,,x,1,1.30056465906,2018_Dec_04_1105,59.9848401862,chinese_cond1,1,1069
images/broom02.jpg,broom,z,sounds/animalfarm_chinese.wav,,,,,,,,,0,0,0,1,0,86,86,116,307.115619111,9.62149351835E-06,308.355772376,1.24016352859,,,,,z,1,1.21721218945,2018_Dec_04_1105,59.9848401862,chinese_cond1,1,1069
images/saltshaker03c.jpg,salt shaker,z,sounds/animalfarm_chinese.wav,,,,,,,,,0,0,0,1,0,87,87,63,309.467728869,9.30088572204E-06,310.806380589,1.33866166277,,,,,z,1,1.31724175974,2018_Dec_04_1105,59.9848401862,chinese_cond1,1,1069
images/computermouse02a.jpg,world map,x,sounds/animalfarm_chinese.wav,,,,,,,,,0,0,0,1,0,88,88,239,311.908122482,9.621726349E-06,313.14029528,1.23218338238,,,,,x,1,1.21721283067,2018_Dec_04_1105,59.9848401862,chinese_cond1,1,1069
images/flipflop01b.jpg,flip flop,z,sounds/animalfarm_chinese.wav,,,,,,,,,0,0,0,1,0,89,89,27,314.257596566,9.30088572204E-06,316.441110421,2.18352411874,,,,,z,1,2.16742687928,2018_Dec_04_1105,59.9848401862,chinese_cond1,1,1069
images/highlighter03b.jpg,coin,x,sounds/animalfarm_chinese.wav,,,,,,,,,0,0,0,1,0,90,90,156,317.543226594,9.30088572204E-06,318.474933836,0.931717184372,,,,,x,1,0.917137910612,2018_Dec_04_1105,59.9848401862,chinese_cond1,1,1069
images/knife04.jpg,tooth brush,x,sounds/animalfarm_chinese.wav,,,,,,,,,0,0,0,1,0,91,91,233,319.57168084,9.621726349E-06,321.025562959,1.45389206125,,,,,x,1,1.43392790481,2018_Dec_04_1105,59.9848401862,chinese_cond1,1,1069
images/bowl02b (1).jpg,bowl,z,sounds/animalfarm_chinese.wav,,,,,,,,,0,0,0,1,0,92,92,24,322.14336136,8.98027792573E-06,323.159433263,1.01608184515,,,,,z,1,1.00050385064,2018_Dec_04_1105,59.9848401862,chinese_cond1,1,1069
images/pipe.jpg,icecube,x,sounds/animalfarm_chinese.wav,,,,,,,,,0,0,0,1,0,93,93,188,324.268599174,9.621726349E-06,326.060138782,1.79154987144,,,,,x,1,1.76734932908,2018_Dec_04_1105,59.9848401862,chinese_cond1,1,1069
images/crocodile.jpg,triangle ruler,x,sounds/animalfarm_chinese.wav,,,,,,,,,0,0,0,1,0,94,94,235,327.157425558,9.94233414531E-06,329.611027368,2.45361175225,,,,,x,1,2.43415625719,2018_Dec_04_1105,59.9848401862,chinese_cond1,1,1069
images/dolphin01.jpg,dolphin,z,sounds/animalfarm_chinese.wav,,,,,,,,,0,0,0,1,0,95,95,99,330.711359056,1.02629419416E-05,332.494908897,1.78356074495,,,,,z,1,1.76718961052,2018_Dec_04_1105,59.9848401862,chinese_cond1,1,1069
images/rubberglove02a.jpg,lady bug,x,sounds/animalfarm_chinese.wav,,,,,,,,,0,0,0,1,0,96,96,192,333.599868248,1.02629419416E-05,335.162385487,1.56252814317,,,,,x,1,1.55062335078,2018_Dec_04_1105,59.9848401862,chinese_cond1,1,1069
images/swallow.jpg,mattress,x,sounds/animalfarm_chinese.wav,,,,,,,,,0,0,0,1,0,97,97,202,336.265737713,9.94233414531E-06,338.329847966,2.06412083702,,,,,x,1,2.05076575023,2018_Dec_04_1105,59.9848401862,chinese_cond1,1,1069
images/highheelshoe02a.jpg,high heel shoe,z,sounds/animalfarm_chinese.wav,,,,,,,,,0,0,0,1,0,98,98,75,339.437368264,9.94233414531E-06,341.030499797,1.59314211598,,,,,z,1,1.58397562779,2018_Dec_04_1105,59.9848401862,chinese_cond1,1,1069
images/corkscrew02a.jpg,masquerade mask,x,sounds/animalfarm_chinese.wav,,,,,,,,,0,0,0,1,0,99,99,201,342.135129128,9.30088572204E-06,343.481103519,1.34598465427,,,,,x,1,1.33390474878,2018_Dec_04_1105,59.9848401862,chinese_cond1,1,1069
images/lemon02.jpg,lemon,z,sounds/animalfarm_chinese.wav,,,,,,,,,0,0,0,1,0,100,100,14,344.593083424,9.621726349E-06,345.698324689,1.10525152762,,,,,z,1,1.08385664085,2018_Dec_04_1105,59.9848401862,chinese_cond1,1,1069
images/fireextinguisher02.jpg,fire extinguisher,x,sounds/animalfarm_chinese.wav,,,,,,,,,0,0,0,1,0,101,101,175,346.808590347,9.62149351835E-06,348.398984537,1.59040509467,,,,,z,0,1.5672994894,2018_Dec_04_1105,59.9848401862,chinese_cond1,1,1069
images/diaper01a.jpg,camera,x,sounds/animalfarm_chinese.wav,,,,,,,,,0,0,0,1,0,102,102,143,349.51938622,9.62149351835E-06,350.482832198,0.963455920806,,,,,x,1,0.950485377107,2018_Dec_04_1105,59.9848401862,chinese_cond1,1,1069
images/flamingo.jpg,flamingo,z,sounds/animalfarm_chinese.wav,,,,,,,,,0,0,0,1,0,103,103,52,351.583053238,9.62149351835E-06,352.85007832,1.26703502377,,,,,z,1,1.25055388291,2018_Dec_04_1105,59.9848401862,chinese_cond1,1,1069
images/grasshopper.jpg,cauliflower,x,sounds/animalfarm_chinese.wav,,,,,,,,,0,0,0,1,0,104,104,148,353.944784586,9.30088572204E-06,355.51724702,1.57247237652,,,,,x,1,1.5504687638,2018_Dec_04_1105,59.9848401862,chinese_cond1,1,1069
images/tank.jpg,wallet,x,sounds/animalfarm_chinese.wav,,,,,,,,,0,0,0,1,0,105,105,237,356.623851663,9.621726349E-06,357.801303276,1.17746187607,,,,,x,1,1.1672039791,2018_Dec_04_1105,59.9848401862,chinese_cond1,1,1069
images/cockroach02.jpg,belt,x,sounds/animalfarm_chinese.wav,,,,,,,,,0,0,0,1,0,106,106,129,358.900329315,9.30088572204E-06,359.868487948,0.968168575317,,,,,x,1,0.950492433039,2018_Dec_04_1105,59.9848401862,chinese_cond1,1,1069
images/cauliflower01.jpg,glue stick,x,sounds/animalfarm_chinese.wav,,,,,,,,,0,0,0,1,0,107,107,181,360.985955366,8.98004509509E-06,362.335756584,1.34981083963,,,,,x,1,1.33391180472,2018_Dec_04_1105,59.9848401862,chinese_cond1,1,1069
images/atm.jpg,atm,z,sounds/animalfarm_chinese.wav,,,,,,,,,0,0,0,1,0,108,108,96,363.475957894,9.62149351835E-06,364.819782501,1.34386084881,,,,,z,1,1.33391469112,2018_Dec_04_1105,59.9848401862,chinese_cond1,1,1069
images/pepper05a.jpg,lighter,x,sounds/animalfarm_chinese.wav,,,,,,,,,0,0,0,1,0,109,109,198,365.942248655,9.62149351835E-06,367.136952419,1.19471466844,,,,,x,1,1.18388717342,2018_Dec_04_1105,59.9848401862,chinese_cond1,1,1069
images/bottleofredwine02.jpg,pipe,x,sounds/animalfarm_chinese.wav,,,,,,,,,0,0,0,1,0,110,110,213,368.235718354,9.30088572204E-06,369.420865956,1.18515754398,,,,,x,1,1.16722931596,2018_Dec_04_1105,59.9848401862,chinese_cond1,1,1069
images/pen03c.jpg,pepper,x,sounds/animalfarm_chinese.wav,,,,,,,,,0,0,0,1,0,111,111,211,370.516275239,9.94210131466E-06,373.505036581,2.98877256736,,,,,None,0,,2018_Dec_04_1105,59.9848401862,chinese_cond1,1,1069
images/shotglass.jpg,shot glass,z,sounds/animalfarm_chinese.wav,,,,,,,,,0,0,0,1,0,112,112,86,374.615260546,8.65943729877E-06,375.972456597,1.35720599303,,,,,z,1,1.33391244616,2018_Dec_04_1105,59.9848401862,chinese_cond1,1,1069
images/binder03b.jpg,dj mixer,x,sounds/animalfarm_chinese.wav,,,,,,,,,0,0,0,1,0,113,113,167,377.087313678,9.94233414531E-06,378.122982834,1.03567909822,,,,,x,1,1.01716523594,2018_Dec_04_1105,59.9848401862,chinese_cond1,1,1069
images/ant.jpg,ant,z,sounds/animalfarm_chinese.wav,,,,,,,,,0,0,0,1,0,114,114,98,379.219178201,9.621726349E-06,380.290190341,1.07102272357,,,,,z,1,1.0505094952,2018_Dec_04_1105,59.9848401862,chinese_cond1,1,1069
images/worldmap.jpg,scooter,x,sounds/animalfarm_chinese.wav,,,,,,,,,0,0,0,1,0,115,115,220,381.42142048,9.62149351835E-06,382.657429406,1.23601886863,,,,,x,1,1.21720545413,2018_Dec_04_1105,59.9848401862,chinese_cond1,1,1069
images/chessknight02b (1).jpg,cockroach,x,sounds/animalfarm_chinese.wav,,,,,,,,,0,0,0,1,0,116,116,155,383.766260807,9.30088572204E-06,385.558147434,1.79189688992,,,,,z,0,1.76733136899,2018_Dec_04_1105,59.9848401862,chinese_cond1,1,1069
images/giraffe.jpg,lettuce,x,sounds/animalfarm_chinese.wav,,,,,,,,,0,0,0,1,0,117,117,195,386.659959564,9.621726349E-06,387.525350964,0.865402625175,,,,,x,1,0.850508084055,2018_Dec_04_1105,59.9848401862,chinese_cond1,1,1069
images/tape01a.jpg,tie,x,sounds/animalfarm_chinese.wav,,,,,,,,,0,0,0,1,0,118,118,232,388.651004109,9.62149351835E-06,389.609146026,0.958151538623,,,,,x,1,0.933810200542,2018_Dec_04_1105,59.9848401862,chinese_cond1,1,1069
images/wallet01.jpg,lamp,x,sounds/animalfarm_chinese.wav,,,,,,,,,0,0,0,1,0,119,119,193,390.714626868,9.30088572204E-06,392.109761167,1.39514391986,,,,,x,1,1.38390975189,2018_Dec_04_1105,59.9848401862,chinese_cond1,1,1069
images/paperclip04.jpg,eye drops,x,sounds/animalfarm_chinese.wav,,,,,,,,,0,0,0,1,0,120,120,174,393.216654137,9.62149351835E-06,394.42700004,1.21035584481,,,,,x,1,1.20053573023,2018_Dec_04_1105,59.9848401862,chinese_cond1,1,1069
images/umbrella01.jpg,umbrella,z,sounds/animalfarm_chinese.wav,,,,,,,,,0,0,0,1,0,121,121,53,395.53995846,9.30088572204E-06,396.8776028,1.3376539615,,,,,z,1,1.31723662838,2018_Dec_04_1105,59.9848401862,chinese_cond1,1,1069
images/straw.jpg,straw,z,sounds/animalfarm_chinese.wav,,,,,,,,,0,0,0,1,0,122,122,109,397.969230158,9.30088572204E-06,399.161510243,1.19229002809,,,,,z,1,1.18386825104,2018_Dec_04_1105,59.9848401862,chinese_cond1,1,1069
images/leaf01a.jpg,leaf,z,sounds/animalfarm_chinese.wav,,,,,,,,,0,0,0,1,0,123,123,68,400.264687998,9.94233414531E-06,401.395386705,1.13070961135,,,,,z,1,1.11716465885,2018_Dec_04_1105,59.9848401862,chinese_cond1,1,1069
images/broadsword.jpg,teapot,x,sounds/animalfarm_chinese.wav,,,,,,,,,0,0,0,1,0,124,124,231,402.48874242,9.30088572204E-06,403.879331479,1.39059900166,,,,,x,1,1.36725285673,2018_Dec_04_1105,59.9848401862,chinese_cond1,1,1069
images/squirrel.jpg,binder,x,sounds/animalfarm_chinese.wav,,,,,,,,,0,0,0,1,0,125,125,132,404.982527194,9.30088572204E-06,406.196584785,1.21406849544,,,,,x,1,1.20055016247,2018_Dec_04_1105,59.9848401862,chinese_cond1,1,1069
images/sportshorts02.jpg,tape,x,sounds/animalfarm_chinese.wav,,,,,,,,,0,0,0,1,0,126,126,230,407.304316438,9.30088572204E-06,408.43045387,1.12614737451,,,,,x,1,1.11718646786,2018_Dec_04_1105,59.9848401862,chinese_cond1,1,1069
images/pouch01b.jpg,pouch,z,sounds/animalfarm_chinese.wav,,,,,,,,,0,0,0,1,0,127,127,25,409.542745193,9.30088572204E-06,410.747779979,1.20504472754,,,,,z,1,1.18395933532,2018_Dec_04_1105,59.9848401862,chinese_cond1,1,1069
images/charcoalbarbecue.jpg,charcoal barbecue,z,sounds/animalfarm_chinese.wav,,,,,,,,,0,0,0,1,0,128,128,77,411.864868306,9.30088572204E-06,413.398346947,1.53348858305,,,,,z,1,1.51728807157,2018_Dec_04_1105,59.9848401862,chinese_cond1,1,1069
images/backpack01b.jpg,swallow,x,sounds/animalfarm_chinese.wav,,,,,,,,,0,0,0,1,0,129,129,228,414.530086068,9.62149351835E-06,415.748929759,1.21885395329,,,,,x,1,1.20054214448,2018_Dec_04_1105,59.9848401862,chinese_cond1,1,1069
images/lychee02a.jpg,lychee,z,sounds/animalfarm_chinese.wav,,,,,,,,,0,0,0,1,0,130,130,62,416.872736842,9.30088572204E-06,418.066163821,1.19343660097,,,,,z,1,1.18387434445,2018_Dec_04_1105,59.9848401862,chinese_cond1,1,1069
images/aloe02.jpg,broad sword,x,sounds/animalfarm_chinese.wav,,,,,,,,,0,0,0,1,0,131,131,137,419.188247678,9.30088572204E-06,420.516772354,1.32853461918,,,,,x,1,1.31723951455,2018_Dec_04_1105,59.9848401862,chinese_cond1,1,1069
images/dice05a.jpg,band aid,x,sounds/animalfarm_chinese.wav,,,,,,,,,0,0,0,1,0,132,132,126,421.630915834,9.30088572204E-06,423.21743509,1.58652887703,,,,,x,1,1.56730301725,2018_Dec_04_1105,59.9848401862,chinese_cond1,1,1069
images/sock03.jpg,sock,z,sounds/animalfarm_chinese.wav,,,,,,,,,0,0,0,1,0,133,133,90,424.325325498,9.62149351835E-06,425.351296092,1.02598085674,,,,,z,1,1.01717004692,2018_Dec_04_1105,59.9848401862,chinese_cond1,1,1069
images/icecube02 (2).jpg,aloe,x,sounds/animalfarm_chinese.wav,,,,,,,,,0,0,0,1,0,134,134,122,426.462009155,8.98027792573E-06,428.168511874,1.70651330287,,,,,x,1,1.68384932843,2018_Dec_04_1105,59.9848401862,chinese_cond1,1,1069
images/scooter.jpg,pen,x,sounds/animalfarm_chinese.wav,,,,,,,,,0,0,0,1,0,135,135,212,429.261218453,9.30088572204E-06,430.169153313,0.907945444342,,,,,x,1,0.883800386451,2018_Dec_04_1105,59.9848401862,chinese_cond1,1,1069
images/lion.jpg,lion,z,sounds/animalfarm_chinese.wav,,,,,,,,,0,0,0,1,0,136,136,44,431.283214689,9.94233414531E-06,432.353045939,1.06984183379,,,,,z,1,1.05052937986,2018_Dec_04_1105,59.9848401862,chinese_cond1,1,1069
images/apricot.jpg,apricot,z,sounds/animalfarm_chinese.wav,,,,,,,,,0,0,0,1,0,137,137,32,433.469976793,9.30088572204E-06,435.003782568,1.53381571709,,,,,x,0,1.5173698552,2018_Dec_04_1105,59.9848401862,chinese_cond1,1,1069
images/hat05.jpg,hat,z,sounds/animalfarm_chinese.wav,,,,,,,,,0,0,0,1,0,138,138,15,436.107597592,9.3006528914E-06,436.870800016,0.763212045655,,,,,z,1,0.750421104953,2018_Dec_04_1105,59.9848401862,chinese_cond1,1,1069
images/drink.jpg,drink,z,sounds/animalfarm_chinese.wav,,,,,,,,,0,0,0,1,0,139,139,117,437.970636834,9.30088572204E-06,438.737934848,0.76730795647,,,,,z,1,0.750435858034,2018_Dec_04_1105,59.9848401862,chinese_cond1,1,1069
images/orange.jpg,bat,x,sounds/animalfarm_chinese.wav,,,,,,,,,0,0,0,1,0,140,140,128,439.862926669,9.62149351835E-06,440.788438891,0.92552344664,,,,,x,1,0.91714207991,2018_Dec_04_1105,59.9848401862,chinese_cond1,1,1069
images/plant01.jpg,plant,z,sounds/animalfarm_chinese.wav,,,,,,,,,0,0,0,1,0,141,141,47,441.900057666,9.62149351835E-06,443.25556641,1.35551868705,,,,,z,1,1.33375657629,2018_Dec_04_1105,59.9848401862,chinese_cond1,1,1069
images/bowlingball.jpg,bowling ball,z,sounds/animalfarm_chinese.wav,,,,,,,,,0,0,0,1,0,142,142,20,444.388558263,9.30088572204E-06,445.622968402,1.23441976053,,,,,z,1,1.21721379296,2018_Dec_04_1105,59.9848401862,chinese_cond1,1,1069
images/honeycomb.jpg,honey comb,z,sounds/animalfarm_chinese.wav,,,,,,,,,0,0,0,1,0,143,143,59,446.736303347,9.621726349E-06,448.240289892,1.50399744976,,,,,z,1,1.48395696189,2018_Dec_04_1105,59.9848401862,chinese_cond1,1,1069
images/scissors04a.jpg,leek,x,sounds/animalfarm_chinese.wav,,,,,,,,,0,0,0,1,0,144,144,194,449.335154593,9.30088572204E-06,450.624453654,1.28930932377,,,,,x,1,1.2674859555,2018_Dec_04_1105,59.9848401862,chinese_cond1,1,1069
images/candy.jpg,candy,z,sounds/animalfarm_chinese.wav,,,,,,,,,0,0,0,1,0,145,145,31,451.726629801,9.30088572204E-06,452.891419082,1.16479890235,,,,,z,1,1.15052880254,2018_Dec_04_1105,59.9848401862,chinese_cond1,1,1069
images/elbow.jpg,elbow,z,sounds/animalfarm_chinese.wav,,,,,,,,,0,0,0,1,0,146,146,105,454.00314658,9.621726349E-06,455.52540741,1.52227109275,,,,,z,1,1.50061802659,2018_Dec_04_1105,59.9848401862,chinese_cond1,1,1069
images/medal01.jpg,medal,z,sounds/animalfarm_chinese.wav,,,,,,,,,0,0,0,1,0,147,147,115,456.6267468,9.621726349E-06,458.342777137,1.71604060056,,,,,x,0,1.70066979085,2018_Dec_04_1105,59.9848401862,chinese_cond1,1,1069
images/camera01a.jpg,bull,x,sounds/animalfarm_chinese.wav,,,,,,,,,0,0,0,1,0,148,148,138,459.453609186,9.94233414531E-06,460.576652316,1.12305339193,,,,,x,1,1.10052123363,2018_Dec_04_1105,59.9848401862,chinese_cond1,1,1069
images/hammer02a.jpg,flower,x,sounds/animalfarm_chinese.wav,,,,,,,,,0,0,0,1,0,149,149,176,461.671943895,9.621726349E-06,462.527135768,0.855202136794,,,,,x,1,0.833779989043,2018_Dec_04_1105,59.9848401862,chinese_cond1,1,1069
images/corn01.jpg,corn,z,sounds/animalfarm_chinese.wav,,,,,,,,,0,0,0,1,0,150,150,22,463.628453349,9.621726349E-06,464.427598503,0.799155737739,,,,,z,1,0.783708275994,2018_Dec_04_1105,59.9848401862,chinese_cond1,1,1069
images/calculator02b.jpg,dice,x,sounds/animalfarm_chinese.wav,,,,,,,,,0,0,0,1,0,151,151,165,465.529742898,9.30088572204E-06,467.044917428,1.51518350933,,,,,x,1,1.50059397286,2018_Dec_04_1105,59.9848401862,chinese_cond1,1,1069
images/gps.jpg,gps,z,sounds/animalfarm_chinese.wav,,,,,,,,,0,0,0,1,0,152,152,21,468.164238926,9.30088572204E-06,469.712243601,1.54801461706,,,,,z,1,1.533961965,2018_Dec_04_1105,59.9848401862,chinese_cond1,1,1069
images/daisy.jpg,daisy,z,sounds/animalfarm_chinese.wav,,,,,,,,,0,0,0,1,0,153,153,6,470.816309748,1.05837825686E-05,472.529606913,1.7133071071,,,,,z,1,1.70066850795,2018_Dec_04_1105,59.9848401862,chinese_cond1,1,1069
images/teapot.jpg,light switch,x,sounds/animalfarm_chinese.wav,,,,,,,,,0,0,0,1,0,154,154,197,473.647122119,1.02629419416E-05,475.213610829,1.56649865233,,,,,x,1,1.55063617951,2018_Dec_04_1105,59.9848401862,chinese_cond1,1,1069
images/floorlamp.jpg,floor lamp,z,sounds/animalfarm_chinese.wav,,,,,,,,,0,0,0,1,0,155,155,26,476.306673406,9.30088572204E-06,477.530842967,1.2241791822,,,,,z,1,1.20054503111,2018_Dec_04_1105,59.9848401862,chinese_cond1,1,1069
images/ashtray02b.jpg,ashtray,z,sounds/animalfarm_chinese.wav,,,,,,,,,0,0,0,1,0,156,156,43,478.645681767,9.94233414531E-06,479.581349255,0.935677109752,,,,,z,1,0.91715426743,2018_Dec_04_1105,59.9848401862,chinese_cond1,1,1069
images/dragonfly02.jpg,dragon fly,z,sounds/animalfarm_chinese.wav,,,,,,,,,0,0,0,1,0,157,157,29,480.679603642,9.621726349E-06,482.382038032,1.70244433265,,,,,z,1,1.68400455685,2018_Dec_04_1105,59.9848401862,chinese_cond1,1,1069
images/aquarium.jpg,computer mouse,x,sounds/animalfarm_chinese.wav,,,,,,,,,0,0,0,1,0,158,158,159,483.518769155,9.94210131466E-06,485.049351377,1.53059184318,,,,,x,1,1.51726979064,2018_Dec_04_1105,59.9848401862,chinese_cond1,1,1069
images/lily.jpg,kiwi,x,sounds/animalfarm_chinese.wav,,,,,,,,,0,0,0,1,0,159,159,190,486.149143935,9.621726349E-06,487.71671347,1.56757883611,,,,,x,1,1.55066632712,2018_Dec_04_1105,59.9848401862,chinese_cond1,1,1069
images/lantern03.jpg,lantern,z,sounds/animalfarm_chinese.wav,,,,,,,,,0,0,0,1,0,160,160,5,488.823781233,9.621726349E-06,490.16727999,1.34350901935,,,,,z,1,1.33390699397,2018_Dec_04_1105,59.9848401862,chinese_cond1,1,1069
images/axe01.jpg,axe,z,sounds/animalfarm_chinese.wav,,,,,,,,,0,0,0,1,0,161,161,104,491.272373082,8.98004509509E-06,492.234460171,0.962097031763,,,,,x,0,0.950480886968,2018_Dec_04_1105,59.9848401862,chinese_cond1,1,1069
images/bat.jpg,hand,x,sounds/animalfarm_chinese.wav,,,,,,,,,0,0,0,1,0,162,162,185,493.333434253,8.98027792573E-06,494.668401867,1.33497787686,,,,,x,1,1.31724721193,2018_Dec_04_1105,59.9848401862,chinese_cond1,1,1069
images/bullet (2).jpg,rubber glove,x,sounds/animalfarm_chinese.wav,,,,,,,,,0,0,0,1,0,163,163,217,495.775216582,9.94233414531E-06,497.252396417,1.47719009826,,,,,x,1,1.46730744303,2018_Dec_04_1105,59.9848401862,chinese_cond1,1,1069
images/apple06.jpg,apple,z,sounds/animalfarm_chinese.wav,,,,,,,,,0,0,0,1,0,164,164,13,498.379800371,9.62149351835E-06,499.169502897,0.789712468395,,,,,z,1,0.767095960677,2018_Dec_04_1105,59.9848401862,chinese_cond1,1,1069
images/dresser02.jpg,dresser,z,sounds/animalfarm_chinese.wav,,,,,,,,,0,0,0,1,0,165,165,87,500.292122356,9.30088572204E-06,502.10357224,1.81145982607,,,,,x,0,1.80069711618,2018_Dec_04_1105,59.9848401862,chinese_cond1,1,1069
images/diploma01.jpg,glasses,x,sounds/animalfarm_chinese.wav,,,,,,,,,0,0,0,1,0,166,166,179,503.234924253,9.62149351835E-06,504.521053,1.28613933083,,,,,x,1,1.26744939364,2018_Dec_04_1105,59.9848401862,chinese_cond1,1,1069
images/ladder.jpg,ladder,z,sounds/animalfarm_chinese.wav,,,,,,,,,0,0,0,1,0,167,167,113,505.613561694,9.621726349E-06,506.487976221,0.874424789334,,,,,z,1,0.850464466028,2018_Dec_04_1105,59.9848401862,chinese_cond1,1,1069
images/belt02a.jpg,snowman,x,sounds/animalfarm_chinese.wav,,,,,,,,,0,0,0,1,0,168,168,224,507.591725498,9.62149351835E-06,508.771881419,1.1801661842,,,,,x,1,1.16721135541,2018_Dec_04_1105,59.9848401862,chinese_cond1,1,1069
images/screwdriver02b.jpg,cola,x,sounds/animalfarm_chinese.wav,,,,,,,,,0,0,0,1,0,169,169,158,509.866172994,9.94233414531E-06,511.055766732,1.18960432173,,,,,x,1,1.16719531966,2018_Dec_04_1105,59.9848401862,chinese_cond1,1,1069
images/blueberry02.jpg,blueberry,z,sounds/animalfarm_chinese.wav,,,,,,,,,0,0,0,1,0,170,170,46,512.169242473,9.30088572204E-06,513.522886554,1.35365402326,,,,,z,1,1.33375176555,2018_Dec_04_1105,59.9848401862,chinese_cond1,1,1069
images/candle08a.jpg,screw driver,x,sounds/animalfarm_chinese.wav,,,,,,,,,0,0,0,1,0,171,171,221,514.637071727,9.30088572204E-06,515.940315357,1.30325357267,,,,,x,1,1.28390744282,2018_Dec_04_1105,59.9848401862,chinese_cond1,1,1069
images/razor04a.jpg,razor,z,sounds/animalfarm_chinese.wav,,,,,,,,,0,0,0,1,0,172,172,36,517.040868342,9.30088572204E-06,518.524277836,1.48341975641,,,,,z,1,1.46727505047,2018_Dec_04_1105,59.9848401862,chinese_cond1,1,1069
images/cake.jpg,cake,z,sounds/animalfarm_chinese.wav,,,,,,,,,0,0,0,1,0,173,173,23,519.640257756,9.30088572204E-06,521.475017543,1.83476940892,,,,,x,0,1.81737710349,2018_Dec_04_1105,59.9848401862,chinese_cond1,1,1069
images/chameleon.jpg,50 dollar bill,x,sounds/animalfarm_chinese.wav,,,,,,,,,0,0,0,1,0,174,174,120,522.588551656,8.98027792573E-06,523.808912671,1.22037095716,,,,,x,1,1.20054406882,2018_Dec_04_1105,59.9848401862,chinese_cond1,1,1069
images/baseball01a.jpg,baseball,z,sounds/animalfarm_chinese.wav,,,,,,,,,0,0,0,1,0,175,175,74,524.943163669,9.30088572204E-06,526.359693495,1.41653944785,,,,,z,1,1.40073855314,2018_Dec_04_1105,59.9848401862,chinese_cond1,1,1069
images/hairpin.jpg,hair pin,z,sounds/animalfarm_chinese.wav,,,,,,,,,0,0,0,1,0,176,176,28,527.452442409,9.62149351835E-06,528.710122682,1.25769117777,,,,,z,1,1.23388447938,2018_Dec_04_1105,59.9848401862,chinese_cond1,1,1069
images/rhinoceros01.jpg,envelope,x,sounds/animalfarm_chinese.wav,,,,,,,,,0,0,0,1,0,177,177,173,529.822596174,9.621726349E-06,530.994041029,1.17145479727,,,,,z,0,1.15051340801,2018_Dec_04_1105,59.9848401862,chinese_cond1,1,1069
images/microphone01.jpg,diaper,x,sounds/animalfarm_chinese.wav,,,,,,,,,0,0,0,1,0,178,178,164,532.094765599,9.3006528914E-06,533.377947253,1.28319127578,,,,,x,1,1.26723611518,2018_Dec_04_1105,59.9848401862,chinese_cond1,1,1069
images/carrot02.jpg,corkscrew,x,sounds/animalfarm_chinese.wav,,,,,,,,,0,0,0,1,0,179,179,161,534.481712566,8.98027792573E-06,536.812117622,2.33041467774,,,,,x,1,2.31744413381,2018_Dec_04_1105,59.9848401862,chinese_cond1,1,1069
images/redfox.jpg,red fox,z,sounds/animalfarm_chinese.wav,,,,,,,,,0,0,0,1,0,180,180,1,537.926398049,9.62149351835E-06,539.279394918,1.3530074521,,,,,z,1,1.33390827687,2018_Dec_04_1105,59.9848401862,chinese_cond1,1,1069
images/coffeepot03b.jpg,coffee pot,z,sounds/animalfarm_chinese.wav,,,,,,,,,0,0,0,1,0,181,181,107,540.402047731,9.621726349E-06,541.729997037,1.3279592481,,,,,z,1,1.31723983539,2018_Dec_04_1105,59.9848401862,chinese_cond1,1,1069
images/egg01b (1).jpg,egg,z,sounds/animalfarm_chinese.wav,,,,,,,,,0,0,0,1,0,182,182,19,542.844181568,9.30088572204E-06,543.780508777,0.936337150633,,,,,z,1,0.917142400751,2018_Dec_04_1105,59.9848401862,chinese_cond1,1,1069
images/marker01a.jpg,marker,z,sounds/animalfarm_chinese.wav,,,,,,,,,0,0,0,1,0,183,183,95,544.880716667,9.30088572204E-06,545.680826546,0.80012014159,,,,,z,1,0.783622002462,2018_Dec_04_1105,59.9848401862,chinese_cond1,1,1069
images/button07.jpg,radish,x,sounds/animalfarm_chinese.wav,,,,,,,,,0,0,0,1,0,184,184,215,546.794449818,8.98004509509E-06,547.914854387,1.12041419023,,,,,x,1,1.10051513999,2018_Dec_04_1105,59.9848401862,chinese_cond1,1,1069
images/blackolive.jpg,tank,x,sounds/animalfarm_chinese.wav,,,,,,,,,0,0,0,1,0,185,185,229,549.031358042,8.98004509509E-06,550.298790759,1.2674423377,,,,,x,1,1.25055195857,2018_Dec_04_1105,59.9848401862,chinese_cond1,1,1069
images/safe.jpg,safe,z,sounds/animalfarm_chinese.wav,,,,,,,,,0,0,0,1,0,186,186,78,551.411550654,8.98004509509E-06,553.166156829,1.7546157972,,,,,z,1,1.73400731501,2018_Dec_04_1105,59.9848401862,chinese_cond1,1,1069
images/radish01.jpg,raisin,x,sounds/animalfarm_chinese.wav,,,,,,,,,0,0,0,1,0,187,187,214,554.278835262,9.94233414531E-06,556.216919693,1.9380946944,,,,,x,1,1.91736209369,2018_Dec_04_1105,59.9848401862,chinese_cond1,1,1069
images/weight01.jpg,weight,z,sounds/animalfarm_chinese.wav,,,,,,,,,0,0,0,1,0,188,188,67,557.32295987,9.62149351835E-06,558.500800837,1.17785122967,,,,,z,1,1.16719499882,2018_Dec_04_1105,59.9848401862,chinese_cond1,1,1069
images/croissant02b.jpg,croissant,z,sounds/animalfarm_chinese.wav,,,,,,,,,0,0,0,1,0,189,189,39,559.611850334,9.30088572204E-06,560.701361904,1.08952215337,,,,,x,0,1.06719429325,2018_Dec_04_1105,59.9848401862,chinese_cond1,1,1069
images/lighter02b.jpg,stapler,x,sounds/animalfarm_chinese.wav,,,,,,,,,0,0,0,1,0,190,190,227,561.804893733,8.98004509509E-06,563.101937852,1.29705438251,,,,,z,0,1.28388338885,2018_Dec_04_1105,59.9848401862,chinese_cond1,1,1069
,,,sounds/animalfarm_chinese.wav,,,,,,,,,0,0,0,1,,,,,,,,,,,,,,,,2018_Dec_04_1105,59.9848401862,chinese_cond1,1,1069
images/hand01a.jpg,cupcake,x,sounds/greatgatsby_english.wav,,,,,,,,,0,1,1,0,0,0,0,163,584.238909835,9.30088572204E-06,585.12403736,0.885137787554,,,,574.104798672,x,1,0.867121041054,2018_Dec_04_1105,59.9848401862,chinese_cond1,1,1069
images/shotglass.jpg,shot glass,z,sounds/greatgatsby_english.wav,,,,,,,,,0,1,1,0,0,1,1,86,586.230353035,9.62149351835E-06,587.708006253,1.4776631596,,,,,z,1,1.46727152239,2018_Dec_04_1105,59.9848401862,chinese_cond1,1,1069
images/boxingglove02a.jpg,bracelet,x,sounds/greatgatsby_english.wav,,,,,,,,,0,1,1,0,0,2,2,135,588.818498981,9.30088572204E-06,589.908548718,1.09006000031,,,,,x,1,1.06716991845,2018_Dec_04_1105,59.9848401862,chinese_cond1,1,1069
images/doorhandle.jpg,doll,x,sounds/greatgatsby_english.wav,,,,,,,,,0,1,1,0,0,3,3,168,591.010738656,9.30088572204E-06,591.875697405,0.864968370646,,,,,x,1,0.850439770613,2018_Dec_04_1105,59.9848401862,chinese_cond1,1,1069
images/tank.jpg,wallet,x,sounds/greatgatsby_english.wav,,,,,,,,,0,1,1,0,0,4,4,237,592.979359446,9.30088572204E-06,593.726169568,0.746820385568,,,,,x,1,0.733771586092,2018_Dec_04_1105,59.9848401862,chinese_cond1,1,1069
images/handfan01b.jpg,handfan,z,sounds/greatgatsby_english.wav,,,,,,,,,0,1,1,0,0,5,5,69,594.838728372,9.30088572204E-06,595.893366492,1.05464774068,,,,,z,1,1.03384522325,2018_Dec_04_1105,59.9848401862,chinese_cond1,1,1069
images/cockroach02.jpg,belt,x,sounds/greatgatsby_english.wav,,,,,,,,,0,1,1,0,0,6,6,129,596.990532998,9.621726349E-06,597.743831599,0.753309185384,,,,,x,1,0.733770623803,2018_Dec_04_1105,59.9848401862,chinese_cond1,1,1069
images/snowman.jpg,globe,x,sounds/greatgatsby_english.wav,,,,,,,,,0,1,1,0,0,7,7,180,598.853888469,8.98027792573E-06,599.911023712,1.057144864,,,,,x,1,1.03384426096,2018_Dec_04_1105,59.9848401862,chinese_cond1,1,1069
images/candy.jpg,candy,z,sounds/greatgatsby_english.wav,,,,,,,,,0,1,1,0,0,8,8,31,601.011027304,9.62149351835E-06,601.894853027,0.883835665649,,,,,z,1,0.86713771848,2018_Dec_04_1105,59.9848401862,chinese_cond1,1,1069
images/arrow02.jpg,hammer,x,sounds/greatgatsby_english.wav,,,,,,,,,0,1,1,0,0,9,9,184,602.991440314,9.30088572204E-06,604.112059123,1.12062939303,,,,,z,0,1.10051995073,2018_Dec_04_1105,59.9848401862,chinese_cond1,1,1069
images/leek.jpg,donut,x,sounds/greatgatsby_english.wav,,,,,,,,,0,1,1,0,0,10,10,169,605.211693567,8.98004509509E-06,606.029201203,0.817516937153,,,,,x,1,0.800451765535,2018_Dec_04_1105,59.9848401862,chinese_cond1,1,1069
images/apricot.jpg,apricot,z,sounds/greatgatsby_english.wav,,,,,,,,,0,1,1,0,0,11,11,32,607.144373872,1.12252309918E-05,608.479792097,1.33542816713,,,,,z,1,1.31723277969,2018_Dec_04_1105,59.9848401862,chinese_cond1,1,1069
images/medal01.jpg,medal,z,sounds/greatgatsby_english.wav,,,,,,,,,0,1,1,0,0,12,12,115,609.578900881,9.30088572204E-06,610.446962272,0.86807165388,,,,,x,0,0.85046767327,2018_Dec_04_1105,59.9848401862,chinese_cond1,1,1069
images/gamecontroller01.jpg,game controller,z,sounds/greatgatsby_english.wav,,,,,,,,,0,1,1,0,0,13,13,112,611.566150351,9.30088572204E-06,612.414377156,0.848236106103,,,,,z,1,0.834065750241,2018_Dec_04_1105,59.9848401862,chinese_cond1,1,1069
images/fryingpan01.jpg,frying pan,z,sounds/greatgatsby_english.wav,,,,,,,,,0,1,1,0,0,14,14,45,613.513728404,9.62149351835E-06,614.214572667,0.700854525436,,,,,z,1,0.683778449427,2018_Dec_04_1105,59.9848401862,chinese_cond1,1,1069
images/bowtie.jpg,bowtie,z,sounds/greatgatsby_english.wav,,,,,,,,,0,1,1,0,0,15,15,89,615.32282164,8.98027792573E-06,616.498442586,1.17563120835,,,,,z,1,1.15053810342,2018_Dec_04_1105,59.9848401862,chinese_cond1,1,1069
images/djmixer01.jpg,light bulb,x,sounds/greatgatsby_english.wav,,,,,,,,,0,1,1,0,0,16,16,196,617.618486665,9.62149351835E-06,618.565617636,0.947140912758,,,,,x,1,0.933810200775,2018_Dec_04_1105,59.9848401862,chinese_cond1,1,1069
images/giraffe.jpg,lettuce,x,sounds/greatgatsby_english.wav,,,,,,,,,0,1,1,0,0,17,17,195,619.6654397,9.30088572204E-06,620.682802179,1.0173714587,,,,,x,1,1.00049326685,2018_Dec_04_1105,59.9848401862,chinese_cond1,1,1069
images/swallow.jpg,mattress,x,sounds/greatgatsby_english.wav,,,,,,,,,0,1,1,0,0,18,18,202,621.784615592,9.30088572204E-06,622.816666709,1.03206170117,,,,,x,1,1.01716234954,2018_Dec_04_1105,59.9848401862,chinese_cond1,1,1069
images/elbow.jpg,elbow,z,sounds/greatgatsby_english.wav,,,,,,,,,0,1,1,0,0,19,19,105,623.926957063,9.3006528914E-06,624.700467096,0.7735199749,,,,,z,1,0.750431688735,2018_Dec_04_1105,59.9848401862,chinese_cond1,1,1069
images/bracelet02a.jpg,chess knight,x,sounds/greatgatsby_english.wav,,,,,,,,,0,1,1,0,0,20,20,152,625.807729857,9.62149351835E-06,627.067726688,1.26000709413,,,,,z,0,1.25056382501,2018_Dec_04_1105,59.9848401862,chinese_cond1,1,1069
images/tissuebox03.jpg,tissue box,z,sounds/greatgatsby_english.wav,,,,,,,,,0,1,1,0,0,21,21,58,628.192829158,9.30088572204E-06,629.668357608,1.47553839209,,,,,z,1,1.45060308115,2018_Dec_04_1105,59.9848401862,chinese_cond1,1,1069
images/blueberry02.jpg,blueberry,z,sounds/greatgatsby_english.wav,,,,,,,,,0,1,1,0,0,22,22,46,630.779611724,9.621726349E-06,631.46879911,0.68919732864,,,,,z,1,0.667076653102,2018_Dec_04_1105,59.9848401862,chinese_cond1,1,1069
images/sock03.jpg,sock,z,sounds/greatgatsby_english.wav,,,,,,,,,0,1,1,0,0,23,23,90,632.573366543,9.30088572204E-06,633.485969157,0.91261255648,,,,,z,1,0.900470752269,2018_Dec_04_1105,59.9848401862,chinese_cond1,1,1069
images/thumbtack02a.jpg,thumb tack,z,sounds/greatgatsby_english.wav,,,,,,,,,0,1,1,0,0,24,24,60,634.595665538,8.98004509509E-06,636.186631892,1.59097629623,,,,,z,1,1.56729756505,2018_Dec_04_1105,59.9848401862,chinese_cond1,1,1069
images/apple06.jpg,apple,z,sounds/greatgatsby_english.wav,,,,,,,,,0,1,1,0,0,25,25,13,637.312243023,9.62149351835E-06,637.953737795,0.6415047138,,,,,z,1,0.617072291439,2018_Dec_04_1105,59.9848401862,chinese_cond1,1,1069
images/lipstick04.jpg,lipstick,z,sounds/greatgatsby_english.wav,,,,,,,,,0,1,1,0,0,26,26,56,639.051756453,9.30088572204E-06,639.870880517,0.819134326419,,,,,z,1,0.800448879367,2018_Dec_04_1105,59.9848401862,chinese_cond1,1,1069
images/broom02.jpg,broom,z,sounds/greatgatsby_english.wav,,,,,,,,,0,1,1,0,0,27,27,116,640.962845271,9.621726349E-06,642.271462238,1.30862690951,,,,,z,1,1.28389750049,2018_Dec_04_1105,59.9848401862,chinese_cond1,1,1069
images/seagull.jpg,seagull,z,sounds/greatgatsby_english.wav,,,,,,,,,0,1,1,0,0,28,28,50,643.378880227,9.94233414531E-06,644.171933311,0.793063026387,,,,,z,1,0.783771137008,2018_Dec_04_1105,59.9848401862,chinese_cond1,1,1069
images/mirror02.jpg,8 ball,x,sounds/greatgatsby_english.wav,,,,,,,,,0,1,1,0,0,29,29,121,645.271358966,9.30088572204E-06,646.005723884,0.734374859603,,,,,x,1,0.717095447471,2018_Dec_04_1105,59.9848401862,chinese_cond1,1,1069
images/ladybug03.jpg,giraffe,x,sounds/greatgatsby_english.wav,,,,,,,,,0,1,1,0,0,30,30,178,647.107009713,9.94210131466E-06,648.022895213,0.915896405,,,,,z,0,0.900482298108,2018_Dec_04_1105,59.9848401862,chinese_cond1,1,1069
images/leaf01a.jpg,leaf,z,sounds/greatgatsby_english.wav,,,,,,,,,0,1,1,0,0,31,31,68,649.126166618,9.30088572204E-06,649.773316318,0.647160283988,,,,,z,1,0.633740412071,2018_Dec_04_1105,59.9848401862,chinese_cond1,1,1069
images/battery03b.jpg,battery,z,sounds/greatgatsby_english.wav,,,,,,,,,0,1,1,0,0,32,32,34,650.882368053,8.65943729877E-06,652.057233703,1.17487527197,,,,,z,1,1.15054900805,2018_Dec_04_1105,59.9848401862,chinese_cond1,1,1069
images/panda.jpg,panda,z,sounds/greatgatsby_english.wav,,,,,,,,,0,1,1,0,0,33,33,83,653.164999031,9.62149351835E-06,654.024375334,0.859386886703,,,,,z,1,0.850471842801,2018_Dec_04_1105,59.9848401862,chinese_cond1,1,1069
images/lettuce.jpg,mushroom,x,sounds/greatgatsby_english.wav,,,,,,,,,0,1,1,0,0,34,34,205,655.147138475,9.62149351835E-06,656.441485022,1.29435745091,,,,,x,1,1.28369159857,2018_Dec_04_1105,59.9848401862,chinese_cond1,1,1069
images/bed.jpg,bed,z,sounds/greatgatsby_english.wav,,,,,,,,,0,1,1,0,0,35,35,103,657.559515944,9.30088572204E-06,658.358772067,0.799266065238,,,,,z,1,0.783781079343,2018_Dec_04_1105,59.9848401862,chinese_cond1,1,1069
images/ceilingfan02.jpg,paper clip,x,sounds/greatgatsby_english.wav,,,,,,,,,0,1,1,0,0,36,36,208,659.455575519,9.62149351835E-06,660.626017162,1.17045158613,,,,,x,1,1.15055766748,2018_Dec_04_1105,59.9848401862,chinese_cond1,1,1069
images/cloud.jpg,ceiling fan,x,sounds/greatgatsby_english.wav,,,,,,,,,0,1,1,0,0,37,37,149,661.732393133,9.621726349E-06,663.143280218,1.41089734808,,,,,x,1,1.40058749425,2018_Dec_04_1105,59.9848401862,chinese_cond1,1,1069
images/flower01.jpg,bus,x,sounds/greatgatsby_english.wav,,,,,,,,,0,1,1,0,0,38,38,140,664.256106502,9.62149351835E-06,665.127101836,0.871005917899,,,,,x,1,0.850456448039,2018_Dec_04_1105,59.9848401862,chinese_cond1,1,1069
images/lily.jpg,kiwi,x,sounds/greatgatsby_english.wav,,,,,,,,,0,1,1,0,0,39,39,190,666.225113439,9.621726349E-06,667.127593179,0.902489361819,,,,,x,1,0.883791085798,2018_Dec_04_1105,59.9848401862,chinese_cond1,1,1069
images/treadmill.jpg,lily,x,sounds/greatgatsby_english.wav,,,,,,,,,0,1,1,0,0,40,40,199,668.232854649,8.98027792573E-06,669.161479775,0.928635389311,,,,,x,1,0.917191150133,2018_Dec_04_1105,59.9848401862,chinese_cond1,1,1069
images/lion.jpg,lion,z,sounds/greatgatsby_english.wav,,,,,,,,,0,1,1,0,0,41,41,44,670.273900028,9.30088572204E-06,671.028560405,0.75466999854,,,,,z,1,0.73376837885,2018_Dec_04_1105,59.9848401862,chinese_cond1,1,1069
images/floorlamp.jpg,floor lamp,z,sounds/greatgatsby_english.wav,,,,,,,,,0,1,1,0,0,42,42,26,672.12081958,9.30088572204E-06,673.262440715,1.14163171896,,,,,z,1,1.11719063693,2018_Dec_04_1105,59.9848401862,chinese_cond1,1,1069
images/globe.jpg,cloud,x,sounds/greatgatsby_english.wav,,,,,,,,,0,1,1,0,0,43,43,154,674.390862954,9.30088572204E-06,675.362957458,0.97210444673,,,,,x,1,0.950476396829,2018_Dec_04_1105,59.9848401862,chinese_cond1,1,1069
images/honeycomb.jpg,honey comb,z,sounds/greatgatsby_english.wav,,,,,,,,,0,1,1,0,0,44,44,59,676.474709332,9.621726349E-06,677.330120578,0.855421509128,,,,,z,1,0.833792176098,2018_Dec_04_1105,59.9848401862,chinese_cond1,1,1069
images/lightbulb03b.jpg,treadmill,x,sounds/greatgatsby_english.wav,,,,,,,,,0,1,1,0,0,45,45,234,678.431302815,9.621726349E-06,679.714051497,1.28275926667,,,,,x,1,1.2672300213,2018_Dec_04_1105,59.9848401862,chinese_cond1,1,1069
images/hat05.jpg,hat,z,sounds/greatgatsby_english.wav,,,,,,,,,0,1,1,0,0,46,46,15,680.816539705,1.02629419416E-05,681.747893193,0.931364392629,,,,,z,1,0.91716260626,2018_Dec_04_1105,59.9848401862,chinese_cond1,1,1069
images/remotecontrol01c.jpg,remote control,z,sounds/greatgatsby_english.wav,,,,,,,,,0,1,1,0,0,47,47,85,682.857467059,9.30088572204E-06,683.681679981,0.82422286435,,,,,z,1,0.800445992732,2018_Dec_04_1105,59.9848401862,chinese_cond1,1,1069
images/highheelshoe02a.jpg,high heel shoe,z,sounds/greatgatsby_english.wav,,,,,,,,,0,1,1,0,0,48,48,75,684.787891102,9.30088572204E-06,685.565476519,0.777597283944,,,,,z,1,0.767097243574,2018_Dec_04_1105,59.9848401862,chinese_cond1,1,1069
images/banana04a.jpg,banana,z,sounds/greatgatsby_english.wav,,,,,,,,,0,1,1,0,0,49,49,118,686.6718124,9.621726349E-06,687.315916546,0.644114730414,,,,,z,1,0.633747147163,2018_Dec_04_1105,59.9848401862,chinese_cond1,1,1069
images/puma.jpg,puma,z,sounds/greatgatsby_english.wav,,,,,,,,,0,1,1,0,0,50,50,4,688.414871064,9.30088572204E-06,689.366430852,0.951569730183,,,,,z,1,0.933828160865,2018_Dec_04_1105,59.9848401862,chinese_cond1,1,1069
images/magnifyingglass01b.jpg,magnifying glass,z,sounds/greatgatsby_english.wav,,,,,,,,,0,1,1,0,0,51,51,64,690.472247809,9.621726349E-06,691.516959655,1.04472243018,,,,,z,1,1.0338513169,2018_Dec_04_1105,59.9848401862,chinese_cond1,1,1069
images/pouch01b.jpg,pouch,z,sounds/greatgatsby_english.wav,,,,,,,,,0,1,1,0,0,52,52,25,692.629805182,9.3006528914E-06,693.600795128,0.970999888377,,,,,z,1,0.950485056266,2018_Dec_04_1105,59.9848401862,chinese_cond1,1,1069
images/teapot.jpg,light switch,x,sounds/greatgatsby_english.wav,,,,,,,,,0,1,1,0,0,53,53,197,694.716203526,9.30088572204E-06,695.617956516,0.901762931608,,,,,x,1,0.883793009911,2018_Dec_04_1105,59.9848401862,chinese_cond1,1,1069
images/dice05a.jpg,band aid,x,sounds/greatgatsby_english.wav,,,,,,,,,0,1,1,0,0,54,54,126,696.732152914,9.62149351835E-06,698.268612002,1.53646935127,,,,,z,0,1.51724958536,2018_Dec_04_1105,59.9848401862,chinese_cond1,1,1069
images/graduationcap.jpg,graduation cap,z,sounds/greatgatsby_english.wav,,,,,,,,,0,1,1,0,0,55,55,35,699.372431837,9.3006528914E-06,700.469149015,1.09672711999,,,,,z,1,1.08384381211,2018_Dec_04_1105,59.9848401862,chinese_cond1,1,1069
images/dolphin01.jpg,dolphin,z,sounds/greatgatsby_english.wav,,,,,,,,,0,1,1,0,0,56,56,99,701.567897632,9.30088572204E-06,702.41964241,0.851754400646,,,,,z,1,0.833798269974,2018_Dec_04_1105,59.9848401862,chinese_cond1,1,1069
images/tie01.jpg,bench,x,sounds/greatgatsby_english.wav,,,,,,,,,0,1,1,0,0,57,57,130,703.517007121,9.621726349E-06,704.803569802,1.28657326452,,,,,x,1,1.26719730813,2018_Dec_04_1105,59.9848401862,chinese_cond1,1,1069
images/saltshaker03c.jpg,salt shaker,z,sounds/greatgatsby_english.wav,,,,,,,,,0,1,1,0,0,58,58,63,705.915226742,9.30088572204E-06,706.620668842,0.705452362075,,,,,z,1,0.683743811678,2018_Dec_04_1105,59.9848401862,chinese_cond1,1,1069
images/pingpongpaddle01c (1).jpg,ping pong paddle,z,sounds/greatgatsby_english.wav,,,,,,,,,0,1,1,0,0,59,59,10,707.732461126,9.30088572204E-06,708.687845816,0.955394953256,,,,,z,1,0.933798654703,2018_Dec_04_1105,59.9848401862,chinese_cond1,1,1069
images/paperclip04.jpg,eye drops,x,sounds/greatgatsby_english.wav,,,,,,,,,0,1,1,0,0,60,60,174,709.793209916,9.30088572204E-06,710.588319455,0.795119160321,,,,,x,1,0.783759911777,2018_Dec_04_1105,59.9848401862,chinese_cond1,1,1069
images/diaper01a.jpg,camera,x,sounds/greatgatsby_english.wav,,,,,,,,,0,1,1,0,0,61,61,143,711.708498558,9.3006528914E-06,712.772196365,1.06370807067,,,,,x,1,1.05051590968,2018_Dec_04_1105,59.9848401862,chinese_cond1,1,1069
images/ruler02b.jpg,watermelon,x,sounds/greatgatsby_english.wav,,,,,,,,,0,1,1,0,0,62,62,238,713.875556609,9.30088572204E-06,715.306151275,1.4306046078,,,,,x,1,1.41726876423,2018_Dec_04_1105,59.9848401862,chinese_cond1,1,1069
images/hairband.jpg,hairband,z,sounds/greatgatsby_english.wav,,,,,,,,,0,1,1,0,0,63,63,66,716.417526944,1.18666794151E-05,717.356649865,0.939136071131,,,,,z,1,0.917120912578,2018_Dec_04_1105,59.9848401862,chinese_cond1,1,1069
images/lamp04b.jpg,parking meter,x,sounds/greatgatsby_english.wav,,,,,,,,,0,1,1,0,0,64,64,209,718.478962074,8.98004509509E-06,719.473838899,0.994887087261,,,,,x,1,0.983826429117,2018_Dec_04_1105,59.9848401862,chinese_cond1,1,1069
images/calculator02b.jpg,dice,x,sounds/greatgatsby_english.wav,,,,,,,,,0,1,1,0,0,65,65,165,720.575488103,9.621726349E-06,721.591041723,1.01556388289,,,,,x,1,1.00048685237,2018_Dec_04_1105,59.9848401862,chinese_cond1,1,1069
images/aloe02.jpg,broad sword,x,sounds/greatgatsby_english.wav,,,,,,,,,0,1,1,0,0,66,66,137,722.711471629,9.30088572204E-06,724.058308114,1.346846428,,,,,x,1,1.33391501196,2018_Dec_04_1105,59.9848401862,chinese_cond1,1,1069
images/clothespin02a.jpg,clothes pin,z,sounds/greatgatsby_english.wav,,,,,,,,,0,1,1,0,0,67,67,79,725.163173174,9.621726349E-06,726.308883165,1.145720253,,,,,z,1,1.13388441526,2018_Dec_04_1105,59.9848401862,chinese_cond1,1,1069
images/ashtray02b.jpg,ashtray,z,sounds/greatgatsby_english.wav,,,,,,,,,0,1,1,0,0,68,68,43,727.421921765,9.3006528914E-06,729.409625695,1.98771387176,,,,,z,1,1.96739628259,2018_Dec_04_1105,59.9848401862,chinese_cond1,1,1069
images/skateboard.jpg,key,x,sounds/greatgatsby_english.wav,,,,,,,,,0,1,1,0,0,69,69,189,730.499264911,9.62149351835E-06,731.226735318,0.727480670204,,,,,x,1,0.717089674436,2018_Dec_04_1105,59.9848401862,chinese_cond1,1,1069
images/paintbrush03a.jpg,paint brush,z,sounds/greatgatsby_english.wav,,,,,,,,,0,1,1,0,0,70,70,0,732.32703301,9.30088572204E-06,733.660681824,1.33365875692,,,,,z,1,1.31725298497,2018_Dec_04_1105,59.9848401862,chinese_cond1,1,1069
images/donut.jpg,rhinoceros,x,sounds/greatgatsby_english.wav,,,,,,,,,0,1,1,0,0,71,71,216,734.786389172,9.30088572204E-06,735.744530447,0.958151538856,,,,,x,1,0.933816935634,2018_Dec_04_1105,59.9848401862,chinese_cond1,1,1069
images/bat.jpg,hand,x,sounds/greatgatsby_english.wav,,,,,,,,,0,1,1,0,0,72,72,185,736.841731912,9.30088572204E-06,737.661671565,0.819950236939,,,,,x,1,0.80045497301,2018_Dec_04_1105,59.9848401862,chinese_cond1,1,1069
images/sunglasses03a.jpg,sun glasses,z,sounds/greatgatsby_english.wav,,,,,,,,,0,1,1,0,0,73,73,17,738.769049785,9.30088572204E-06,739.662163228,0.893123065121,,,,,z,1,0.883809366729,2018_Dec_04_1105,59.9848401862,chinese_cond1,1,1069
images/corn01.jpg,corn,z,sounds/greatgatsby_english.wav,,,,,,,,,0,1,1,0,0,74,74,22,740.76078516,9.621726349E-06,741.76266554,1.00189032173,,,,,z,1,0.983816807624,2018_Dec_04_1105,59.9848401862,chinese_cond1,1,1069
images/razor04a.jpg,razor,z,sounds/greatgatsby_english.wav,,,,,,,,,0,1,1,0,0,75,75,36,742.861040517,9.94233414531E-06,744.013223592,1.15219365829,,,,,z,1,1.1338536262,2018_Dec_04_1105,59.9848401862,chinese_cond1,1,1069
images/bull.jpg,button,x,sounds/greatgatsby_english.wav,,,,,,,,,0,1,1,0,0,76,76,141,745.118490193,9.30088572204E-06,746.197097295,1.07861736487,,,,,x,1,1.06717697438,2018_Dec_04_1105,59.9848401862,chinese_cond1,1,1069
images/comb02a.jpg,diploma,x,sounds/greatgatsby_english.wav,,,,,,,,,0,1,1,0,0,77,77,166,747.300089353,8.98004509509E-06,748.280956822,0.980878053233,,,,,x,1,0.967160553671,2018_Dec_04_1105,59.9848401862,chinese_cond1,1,1069
images/bottleofredwine02.jpg,pipe,x,sounds/greatgatsby_english.wav,,,,,,,,,0,1,1,0,0,78,78,213,749.378142892,9.30088572204E-06,750.231430012,0.853297061985,,,,,x,1,0.83379217633,2018_Dec_04_1105,59.9848401862,chinese_cond1,1,1069
images/umbrella01.jpg,umbrella,z,sounds/greatgatsby_english.wav,,,,,,,,,0,1,1,0,0,79,79,53,751.342862769,9.94233414531E-06,752.115238737,0.772385910386,,,,,z,1,0.75044900761,2018_Dec_04_1105,59.9848401862,chinese_cond1,1,1069
images/drink.jpg,drink,z,sounds/greatgatsby_english.wav,,,,,,,,,0,1,1,0,0,80,80,117,753.214119811,9.30088572204E-06,754.165727707,0.951617838116,,,,,z,1,0.933809238719,2018_Dec_04_1105,59.9848401862,chinese_cond1,1,1069
images/screwdriver02b.jpg,cola,x,sounds/greatgatsby_english.wav,,,,,,,,,0,1,1,0,0,81,81,158,755.257867894,8.98027792573E-06,755.999529184,0.741671231575,,,,,x,1,0.717106031254,2018_Dec_04_1105,59.9848401862,chinese_cond1,1,1069
images/electricguitar02.jpg,electric guitar,z,sounds/greatgatsby_english.wav,,,,,,,,,0,1,1,0,0,82,82,100,757.101109433,9.62149351835E-06,758.233398268,1.13229909795,,,,,z,1,1.11718486389,2018_Dec_04_1105,59.9848401862,chinese_cond1,1,1069
images/hairdryer03a.jpg,hairdryer,z,sounds/greatgatsby_english.wav,,,,,,,,,0,1,1,0,0,83,83,119,759.331306278,8.98027792573E-06,760.200557218,0.869260241045,,,,,z,1,0.850457730936,2018_Dec_04_1105,59.9848401862,chinese_cond1,1,1069
images/notebook02b.jpg,notebook,z,sounds/greatgatsby_english.wav,,,,,,,,,0,1,1,0,0,84,84,7,761.306123051,9.621726349E-06,762.167721941,0.861609153217,,,,,z,1,0.850474729203,2018_Dec_04_1105,59.9848401862,chinese_cond1,1,1069
images/flipflop01b.jpg,flip flop,z,sounds/greatgatsby_english.wav,,,,,,,,,0,1,1,0,0,85,85,27,763.283461001,9.62149351835E-06,764.301574605,1.01812386699,,,,,z,1,1.00050096423,2018_Dec_04_1105,59.9848401862,chinese_cond1,1,1069
images/gps.jpg,gps,z,sounds/greatgatsby_english.wav,,,,,,,,,0,1,1,0,0,86,86,21,765.418355362,9.62149351835E-06,766.185350297,0.767004876165,,,,,z,1,0.750419822056,2018_Dec_04_1105,59.9848401862,chinese_cond1,1,1069
images/weight01.jpg,weight,z,sounds/greatgatsby_english.wav,,,,,,,,,0,1,1,0,0,87,87,67,767.288769874,9.3006528914E-06,768.11918391,0.830424619839,,,,,z,1,0.817125338595,2018_Dec_04_1105,59.9848401862,chinese_cond1,1,1069
images/bench02.jpg,electric toothbrush,x,sounds/greatgatsby_english.wav,,,,,,,,,0,1,1,0,0,88,88,172,769.22850537,9.62149351835E-06,770.286365759,1.05787001085,,,,,x,1,1.03382373508,2018_Dec_04_1105,59.9848401862,chinese_cond1,1,1069
images/cola.jpg,comb,x,sounds/greatgatsby_english.wav,,,,,,,,,0,1,1,0,0,89,89,157,771.405904705,9.30088572204E-06,772.420250495,1.01435541129,,,,,x,1,1.00051475503,2018_Dec_04_1105,59.9848401862,chinese_cond1,1,1069
images/dreamcatcher.jpg,dream catcher,z,sounds/greatgatsby_english.wav,,,,,,,,,0,1,1,0,0,90,90,48,773.517586341,9.62149351835E-06,774.737468521,1.21989180194,,,,,z,1,1.20054374798,2018_Dec_04_1105,59.9848401862,chinese_cond1,1,1069
images/desktopcomputer.jpg,desktop computer,z,sounds/greatgatsby_english.wav,,,,,,,,,0,1,1,0,0,91,91,16,775.872890467,1.02629419416E-05,777.388132668,1.51525278459,,,,,z,1,1.50062508252,2018_Dec_04_1105,59.9848401862,chinese_cond1,1,1069
images/orange.jpg,bat,x,sounds/greatgatsby_english.wav,,,,,,,,,0,1,1,0,0,92,92,128,778.511614862,9.621726349E-06,779.288593798,0.776989199454,,,,,x,1,0.767101412872,2018_Dec_04_1105,59.9848401862,chinese_cond1,1,1069
images/axe01.jpg,axe,z,sounds/greatgatsby_english.wav,,,,,,,,,0,1,1,0,0,93,93,104,780.391752951,8.98027792573E-06,781.689036327,1.29729331867,,,,,x,0,1.28374323435,2018_Dec_04_1105,59.9848401862,chinese_cond1,1,1069
images/cactus.jpg,cactus,z,sounds/greatgatsby_english.wav,,,,,,,,,0,1,1,0,0,94,94,70,782.800726623,9.94233414531E-06,784.056444091,1.25572805293,,,,,x,0,1.2338793478,2018_Dec_04_1105,59.9848401862,chinese_cond1,1,1069
images/mitten01.jpg,mitten,z,sounds/greatgatsby_english.wav,,,,,,,,,0,1,1,0,0,95,95,102,785.176880732,9.30088572204E-06,786.673746018,1.49687490775,,,,,x,0,1.48394060531,2018_Dec_04_1105,59.9848401862,chinese_cond1,1,1069
images/carrot02.jpg,corkscrew,x,sounds/greatgatsby_english.wav,,,,,,,,,0,1,1,0,0,96,96,161,787.775092784,9.30088572204E-06,788.79093409,1.01585124759,,,,,x,1,1.00049005961,2018_Dec_04_1105,59.9848401862,chinese_cond1,1,1069
images/worldmap.jpg,scooter,x,sounds/greatgatsby_english.wav,,,,,,,,,0,1,1,0,0,97,97,220,789.920071533,9.30088572204E-06,791.024816003,1.10475409147,,,,,x,1,1.08384605707,2018_Dec_04_1105,59.9848401862,chinese_cond1,1,1069
images/highlighter03b.jpg,coin,x,sounds/greatgatsby_english.wav,,,,,,,,,0,1,1,0,0,98,98,156,792.125724345,9.94233414531E-06,793.008667128,0.882953045191,,,,,x,1,0.86715215072,2018_Dec_04_1105,59.9848401862,chinese_cond1,1,1069
images/spoon02b.jpg,spoon,z,sounds/greatgatsby_english.wav,,,,,,,,,0,1,1,0,0,99,99,38,794.098830079,9.62149351835E-06,794.992305936,0.893486119807,,,,,z,1,0.883637140272,2018_Dec_04_1105,59.9848401862,chinese_cond1,1,1069
images/dryingmachine01.jpg,drying machine,z,sounds/greatgatsby_english.wav,,,,,,,,,0,1,1,0,0,100,100,18,796.113518076,9.30088572204E-06,797.376388235,1.26288010087,,,,,z,1,1.25055965572,2018_Dec_04_1105,59.9848401862,chinese_cond1,1,1069
images/camera01a.jpg,bull,x,sounds/greatgatsby_english.wav,,,,,,,,,0,1,1,0,0,101,101,138,798.48578763,9.30088572204E-06,799.410218705,0.924441338284,,,,,x,1,0.900461772224,2018_Dec_04_1105,59.9848401862,chinese_cond1,1,1069
images/ant.jpg,ant,z,sounds/greatgatsby_english.wav,,,,,,,,,0,1,1,0,0,102,102,98,800.503282886,9.621726349E-06,801.410722556,0.907449932536,,,,,z,1,0.883807763224,2018_Dec_04_1105,59.9848401862,chinese_cond1,1,1069
images/acousticguitar02.jpg,acoustic guitar,z,sounds/greatgatsby_english.wav,,,,,,,,,0,1,1,0,0,103,103,97,802.525062957,9.62149351835E-06,803.427880415,0.902828041697,,,,,z,1,0.883801990189,2018_Dec_04_1105,59.9848401862,chinese_cond1,1,1069
images/chessknight02b (1).jpg,cockroach,x,sounds/greatgatsby_english.wav,,,,,,,,,0,1,1,0,0,104,104,155,804.535625859,9.30088572204E-06,805.845163933,1.30954833701,,,,,z,0,1.30058678868,2018_Dec_04_1105,59.9848401862,chinese_cond1,1,1069
images/8ball.jpg,nail clipper,x,sounds/greatgatsby_english.wav,,,,,,,,,0,1,1,0,0,105,105,206,806.96202487,9.621726349E-06,807.828961176,0.866946569411,,,,,x,1,0.850457410328,2018_Dec_04_1105,59.9848401862,chinese_cond1,1,1069
images/basketball01.jpg,basket ball,z,sounds/greatgatsby_english.wav,,,,,,,,,0,1,1,0,0,106,106,33,808.966645157,9.94233414531E-06,809.529384654,0.562750081066,,,,,z,1,0.550380245317,2018_Dec_04_1105,59.9848401862,chinese_cond1,1,1069
images/pineapple01a.jpg,pineapple,z,sounds/greatgatsby_english.wav,,,,,,,,,0,1,1,0,0,107,107,51,810.641687524,9.62149351835E-06,811.396510506,0.754832924111,,,,,z,1,0.73376100231,2018_Dec_04_1105,59.9848401862,chinese_cond1,1,1069
images/lighter02b.jpg,stapler,x,sounds/greatgatsby_english.wav,,,,,,,,,0,1,1,0,0,108,108,227,812.496686966,9.30088572204E-06,813.663739566,1.1670625417,,,,,z,0,1.1505284817,2018_Dec_04_1105,59.9848401862,chinese_cond1,1,1069
images/sportshorts02.jpg,tape,x,sounds/greatgatsby_english.wav,,,,,,,,,0,1,1,0,0,109,109,230,814.770470252,9.94233414531E-06,815.697572281,0.927112612408,,,,,x,1,0.91713502421,2018_Dec_04_1105,59.9848401862,chinese_cond1,1,1069
images/parkingmeter.jpg,ear,x,sounds/greatgatsby_english.wav,,,,,,,,,0,1,1,0,0,110,110,171,816.799001792,9.621726349E-06,817.848342906,1.04935105587,,,,,x,1,1.03407517914,2018_Dec_04_1105,59.9848401862,chinese_cond1,1,1069
images/tulip02.jpg,sport shorts,x,sounds/greatgatsby_english.wav,,,,,,,,,0,1,1,0,0,111,111,225,818.941973478,9.30088572204E-06,819.815261637,0.873297459912,,,,,x,1,0.850462862523,2018_Dec_04_1105,59.9848401862,chinese_cond1,1,1069
images/diploma01.jpg,glasses,x,sounds/greatgatsby_english.wav,,,,,,,,,0,1,1,0,0,112,112,179,820.944836221,8.98027792573E-06,821.949115263,1.00428898376,,,,,x,1,0.983825787669,2018_Dec_04_1105,59.9848401862,chinese_cond1,1,1069
images/printer03a.jpg,printer,z,sounds/greatgatsby_english.wav,,,,,,,,,0,1,1,0,0,113,113,72,823.057097077,8.98004509509E-06,824.182997497,1.12591036269,,,,,z,1,1.11718037399,2018_Dec_04_1105,59.9848401862,chinese_cond1,1,1069
images/nailpolish02b.jpg,nail polish,z,sounds/greatgatsby_english.wav,,,,,,,,,0,1,1,0,0,114,114,94,825.289843001,1.02631747723E-05,826.56692553,1.27709279209,,,,,z,1,1.26713252277,2018_Dec_04_1105,59.9848401862,chinese_cond1,1,1069
images/mattress.jpg,cat,x,sounds/greatgatsby_english.wav,,,,,,,,,0,1,1,0,0,115,115,147,827.669723873,9.94233414531E-06,828.517408662,0.847695052158,,,,,x,1,0.833794742124,2018_Dec_04_1105,59.9848401862,chinese_cond1,1,1069
images/fireextinguisher02.jpg,fire extinguisher,x,sounds/greatgatsby_english.wav,,,,,,,,,0,1,1,0,0,116,116,175,829.626661167,8.98004509509E-06,830.517896156,0.891244610306,,,,,z,0,0.867128417594,2018_Dec_04_1105,59.9848401862,chinese_cond1,1,1069
images/bullet (2).jpg,rubber glove,x,sounds/greatgatsby_english.wav,,,,,,,,,0,1,1,0,0,117,117,217,831.621803548,9.621726349E-06,833.201898147,1.58010422112,,,,,x,1,1.5673123179,2018_Dec_04_1105,59.9848401862,chinese_cond1,1,1069
images/coin01b.jpg,arrow,x,sounds/greatgatsby_english.wav,,,,,,,,,0,1,1,0,0,118,118,124,834.304780198,9.30088572204E-06,835.369098598,1.06432834244,,,,,x,1,1.05050885398,2018_Dec_04_1105,59.9848401862,chinese_cond1,1,1069
images/kiwi03.jpg,backpack,x,sounds/greatgatsby_english.wav,,,,,,,,,0,1,1,0,0,119,119,125,836.496080165,9.62149351835E-06,837.35293048,0.856860898668,,,,,x,1,0.833802118432,2018_Dec_04_1105,59.9848401862,chinese_cond1,1,1069
images/nametag01a.jpg,name tag,z,sounds/greatgatsby_english.wav,,,,,,,,,0,1,1,0,0,120,120,108,838.473047683,9.62149351835E-06,839.370072945,0.897035203408,,,,,z,1,0.883742336417,2018_Dec_04_1105,59.9848401862,chinese_cond1,1,1069
images/aquarium.jpg,computer mouse,x,sounds/greatgatsby_english.wav,,,,,,,,,0,1,1,0,0,121,121,159,840.505551336,9.62149351835E-06,841.603985647,1.09844457381,,,,,x,1,1.08386113099,2018_Dec_04_1105,59.9848401862,chinese_cond1,1,1069
images/cupcake.jpg,scissors,x,sounds/greatgatsby_english.wav,,,,,,,,,0,1,1,0,0,122,122,219,842.722728247,9.62149351835E-06,844.354650499,1.63193219458,,,,,x,1,1.61732245283,2018_Dec_04_1105,59.9848401862,chinese_cond1,1,1069
images/rhinoceros01.jpg,envelope,x,sounds/greatgatsby_english.wav,,,,,,,,,0,1,1,0,0,123,123,173,845.465669528,9.94233414531E-06,846.788773722,1.32311477792,,,,,x,1,1.30076414649,2018_Dec_04_1105,59.9848401862,chinese_cond1,1,1069
images/scissors04a.jpg,leek,x,sounds/greatgatsby_english.wav,,,,,,,,,0,1,1,0,0,124,124,194,847.881706408,8.98027792573E-06,848.989115738,1.10741927172,,,,,x,1,1.08384188777,2018_Dec_04_1105,59.9848401862,chinese_cond1,1,1069
images/handbag02a.jpg,candle,x,sounds/greatgatsby_english.wav,,,,,,,,,0,1,1,0,0,125,125,144,850.105103997,9.30088572204E-06,850.922926259,0.817832204513,,,,,x,1,0.800443747547,2018_Dec_04_1105,59.9848401862,chinese_cond1,1,1069
images/computerkeyboard01a.jpg,computer keyboard,z,sounds/greatgatsby_english.wav,,,,,,,,,0,1,1,0,0,126,126,61,852.039157303,9.94233414531E-06,852.940088609,0.90094156866,,,,,z,1,0.883768956177,2018_Dec_04_1105,59.9848401862,chinese_cond1,1,1069
images/atm.jpg,atm,z,sounds/greatgatsby_english.wav,,,,,,,,,0,1,1,0,0,127,127,96,854.077384198,9.621726349E-06,854.807217988,0.729844374117,,,,,z,1,0.717086788034,2018_Dec_04_1105,59.9848401862,chinese_cond1,1,1069
images/hanger02a.jpg,hanger,z,sounds/greatgatsby_english.wav,,,,,,,,,0,1,1,0,0,128,128,88,855.899905003,9.30088572204E-06,856.557667958,0.657773217885,,,,,z,1,0.633751958143,2018_Dec_04_1105,59.9848401862,chinese_cond1,1,1069
images/antelope.jpg,antelope,z,sounds/greatgatsby_english.wav,,,,,,,,,0,1,1,0,0,129,129,12,857.662980422,8.98004509509E-06,858.724861674,1.06189087313,,,,,z,1,1.05051655113,2018_Dec_04_1105,59.9848401862,chinese_cond1,1,1069
images/feather03b.jpg,feather,z,sounds/greatgatsby_english.wav,,,,,,,,,0,1,1,0,0,130,130,114,859.824012793,9.62149351835E-06,860.942061355,1.11805882514,,,,,z,1,1.10051481915,2018_Dec_04_1105,59.9848401862,chinese_cond1,1,1069
images/microphone01.jpg,diaper,x,sounds/greatgatsby_english.wav,,,,,,,,,0,1,1,0,0,131,131,164,862.040006889,9.62149351835E-06,862.942557188,0.902560240822,,,,,x,1,0.883789161453,2018_Dec_04_1105,59.9848401862,chinese_cond1,1,1069
images/beermug01b.jpg,beer mug,z,sounds/greatgatsby_english.wav,,,,,,,,,0,1,1,0,0,132,132,111,864.058675338,9.62149351835E-06,865.193127748,1.13446235191,,,,,z,1,1.11720763519,2018_Dec_04_1105,59.9848401862,chinese_cond1,1,1069
images/corkscrew02a.jpg,masquerade mask,x,sounds/greatgatsby_english.wav,,,,,,,,,0,1,1,0,0,133,133,201,866.295942127,9.30088572204E-06,867.493694973,1.1977637501,,,,,x,1,1.18388717342,2018_Dec_04_1105,59.9848401862,chinese_cond1,1,1069
images/eraser.jpg,eraser,z,sounds/greatgatsby_english.wav,,,,,,,,,0,1,1,0,0,134,134,110,868.599510005,9.621726349E-06,869.294137758,0.694638658082,,,,,z,1,0.683760809945,2018_Dec_04_1105,59.9848401862,chinese_cond1,1,1069
images/straw.jpg,straw,z,sounds/greatgatsby_english.wav,,,,,,,,,0,1,1,0,0,135,135,109,870.38406017,8.98004509509E-06,871.344627369,0.960577141261,,,,,z,1,0.95047671767,2018_Dec_04_1105,59.9848401862,chinese_cond1,1,1069
images/lemon02.jpg,lemon,z,sounds/greatgatsby_english.wav,,,,,,,,,0,1,1,0,0,136,136,14,872.455572312,9.62149351835E-06,873.161747576,0.706185527146,,,,,z,1,0.683753112564,2018_Dec_04_1105,59.9848401862,chinese_cond1,1,1069
images/pipe.jpg,icecube,x,sounds/greatgatsby_english.wav,,,,,,,,,0,1,1,0,0,137,137,188,874.269561974,9.62149351835E-06,875.195588309,0.926036277087,,,,,x,1,0.917151060188,2018_Dec_04_1105,59.9848401862,chinese_cond1,1,1069
images/wallet01.jpg,lamp,x,sounds/greatgatsby_english.wav,,,,,,,,,0,1,1,0,0,138,138,193,876.299619498,8.98004509509E-06,877.74621198,1.44660210353,,,,,x,1,1.4339359228,2018_Dec_04_1105,59.9848401862,chinese_cond1,1,1069
images/charcoalbarbecue.jpg,charcoal barbecue,z,sounds/greatgatsby_english.wav,,,,,,,,,0,1,1,0,0,139,139,77,878.862149887,9.62149351835E-06,880.19683655,1.33469660557,,,,,z,1,1.31726100296,2018_Dec_04_1105,59.9848401862,chinese_cond1,1,1069
images/cake.jpg,cake,z,sounds/greatgatsby_english.wav,,,,,,,,,0,1,1,0,0,140,140,23,881.309738844,9.62149351835E-06,882.130622055,0.82089315285,,,,,z,1,0.800445351284,2018_Dec_04_1105,59.9848401862,chinese_cond1,1,1069
images/volleyball.jpg,volley ball,z,sounds/greatgatsby_english.wav,,,,,,,,,0,1,1,0,0,141,141,2,883.262325577,9.621726349E-06,884.147799478,0.885483523365,,,,,z,1,0.867138038855,2018_Dec_04_1105,59.9848401862,chinese_cond1,1,1069
images/button07.jpg,radish,x,sounds/greatgatsby_english.wav,,,,,,,,,0,1,1,0,0,142,142,215,885.258865974,9.30088572204E-06,886.38167145,1.12281509745,,,,,x,1,1.10051898845,2018_Dec_04_1105,59.9848401862,chinese_cond1,1,1069
images/cookingpot.jpg,grasshopper,x,sounds/greatgatsby_english.wav,,,,,,,,,0,1,1,0,0,143,143,183,887.494351806,9.30088572204E-06,888.84895099,1.35460912599,,,,,x,1,1.33391469112,2018_Dec_04_1105,59.9848401862,chinese_cond1,1,1069
images/puzzle.jpg,puzzle,z,sounds/greatgatsby_english.wav,,,,,,,,,0,1,1,0,0,144,144,57,889.96801463,9.94233414531E-06,890.91612572,0.948121673428,,,,,z,1,0.933815011522,2018_Dec_04_1105,59.9848401862,chinese_cond1,1,1069
images/candycane01a.jpg,lip,x,sounds/greatgatsby_english.wav,,,,,,,,,0,1,1,0,0,145,145,200,892.009090157,8.98027792573E-06,892.716565939,0.707485404098,,,,,x,1,0.68374669808,2018_Dec_04_1105,59.9848401862,chinese_cond1,1,1069
images/barrel01.jpg,barrel,z,sounds/greatgatsby_english.wav,,,,,,,,,0,1,1,0,0,146,146,9,893.845778752,9.30088572204E-06,894.867096346,1.02132721478,,,,,x,0,1.00048909755,2018_Dec_04_1105,59.9848401862,chinese_cond1,1,1069
images/radish01.jpg,raisin,x,sounds/greatgatsby_english.wav,,,,,,,,,0,1,1,0,0,147,147,214,895.976748467,9.30088572204E-06,896.817591024,0.840852177702,,,,,x,1,0.817124376306,2018_Dec_04_1105,59.9848401862,chinese_cond1,1,1069
images/doll.jpg,carrot,x,sounds/greatgatsby_english.wav,,,,,,,,,0,1,1,0,0,148,148,146,897.927634744,9.62149351835E-06,898.718061776,0.790437294636,,,,,x,1,0.767115524504,2018_Dec_04_1105,59.9848401862,chinese_cond1,1,1069
images/masquerademask02b.jpg,mirror,x,sounds/greatgatsby_english.wav,,,,,,,,,0,1,1,0,0,149,149,204,899.822330298,9.94210131466E-06,900.585415659,0.763095624279,,,,,x,1,0.750648174435,2018_Dec_04_1105,59.9848401862,chinese_cond1,1,1069
images/swan.jpg,swan,z,sounds/greatgatsby_english.wav,,,,,,,,,0,1,1,0,0,150,150,54,901.676195996,9.94233414531E-06,902.73570328,1.05951786856,,,,,x,0,1.05040686484,2018_Dec_04_1105,59.9848401862,chinese_cond1,1,1069
images/fork01.jpg,cooking pot,x,sounds/greatgatsby_english.wav,,,,,,,,,0,1,1,0,0,151,151,160,903.829732507,9.30088572204E-06,905.002939716,1.17321715155,,,,,x,1,1.15053714113,2018_Dec_04_1105,59.9848401862,chinese_cond1,1,1069
images/butterfly.jpg,butterfly,z,sounds/greatgatsby_english.wav,,,,,,,,,0,1,1,0,0,152,152,91,906.110437564,9.30088572204E-06,907.370197063,1.25976944109,,,,,z,1,1.25057120179,2018_Dec_04_1105,59.9848401862,chinese_cond1,1,1069
images/cigar.jpg,crocodile,x,sounds/greatgatsby_english.wav,,,,,,,,,0,1,1,0,0,153,153,162,908.468655107,9.94233414531E-06,910.520810215,2.05216633296,,,,,z,0,2.03392700688,2018_Dec_04_1105,59.9848401862,chinese_cond1,1,1069
images/bowlingball.jpg,bowling ball,z,sounds/greatgatsby_english.wav,,,,,,,,,0,1,1,0,0,154,154,20,911.651612514,9.94233414531E-06,912.504633116,0.853030864848,,,,,z,1,0.833632778609,2018_Dec_04_1105,59.9848401862,chinese_cond1,1,1069
images/cherry01.jpg,highlighter,x,sounds/greatgatsby_english.wav,,,,,,,,,0,1,1,0,0,155,155,187,913.612349374,9.94233414531E-06,914.43861394,0.82627482852,,,,,x,1,0.817129828734,2018_Dec_04_1105,59.9848401862,chinese_cond1,1,1069
images/gorilla.jpg,gorilla,z,sounds/greatgatsby_english.wav,,,,,,,,,0,1,1,0,0,156,156,80,915.548756121,9.94233414531E-06,916.522435622,0.973689443432,,,,,z,1,0.950476076221,2018_Dec_04_1105,59.9848401862,chinese_cond1,1,1069
images/peach01.jpg,peach,z,sounds/greatgatsby_english.wav,,,,,,,,,0,1,1,0,0,157,157,106,917.650111226,9.30088572204E-06,918.456261217,0.806159934029,,,,,z,1,0.783785569482,2018_Dec_04_1105,59.9848401862,chinese_cond1,1,1069
images/beachumbrella01.jpg,beach umbrella,z,sounds/greatgatsby_english.wav,,,,,,,,,0,1,1,0,0,158,158,92,919.56171127,9.62149351835E-06,920.440085401,0.878384073265,,,,,z,1,0.86712553096,2018_Dec_04_1105,59.9848401862,chinese_cond1,1,1069
images/tape01a.jpg,tie,x,sounds/greatgatsby_english.wav,,,,,,,,,0,1,1,0,0,159,159,232,921.564507304,9.94233414531E-06,922.573933896,1.00943685486,,,,,x,1,1.00047306158,2018_Dec_04_1105,59.9848401862,chinese_cond1,1,1069
images/key03b.jpg,cigar,x,sounds/greatgatsby_english.wav,,,,,,,,,0,1,1,0,0,160,160,153,923.677481761,9.62149351835E-06,924.841159748,1.16368889157,,,,,z,0,1.15053489618,2018_Dec_04_1105,59.9848401862,chinese_cond1,1,1069
images/belt02a.jpg,snowman,x,sounds/greatgatsby_english.wav,,,,,,,,,0,1,1,0,0,161,161,224,925.943472842,9.30088572204E-06,926.774968986,0.831506086746,,,,,x,1,0.817117962055,2018_Dec_04_1105,59.9848401862,chinese_cond1,1,1069
images/pepper05a.jpg,lighter,x,sounds/greatgatsby_english.wav,,,,,,,,,0,1,1,0,0,162,162,198,927.895560214,9.30088572204E-06,928.725446666,0.829896074021,,,,,x,1,0.817109943833,2018_Dec_04_1105,59.9848401862,chinese_cond1,1,1069
images/lock02a.jpg,lock,z,sounds/greatgatsby_english.wav,,,,,,,,,0,1,1,0,0,163,163,65,929.836180575,9.94233414531E-06,930.859306065,1.02313511143,,,,,z,1,1.00048717321,2018_Dec_04_1105,59.9848401862,chinese_cond1,1,1069
images/showerhead01.jpg,skateboard,x,sounds/greatgatsby_english.wav,,,,,,,,,0,1,1,0,0,164,164,223,931.967169855,9.30088572204E-06,933.610068095,1.64290818316,,,,,x,1,1.63406498032,2018_Dec_04_1105,59.9848401862,chinese_cond1,1,1069
images/licenseplate.jpg,license plate,z,sounds/greatgatsby_english.wav,,,,,,,,,0,1,1,0,0,165,165,40,934.727591639,9.30088572204E-06,936.744101645,2.01652058959,,,,,z,1,2.00071392208,2018_Dec_04_1105,59.9848401862,chinese_cond1,1,1069
images/parrot01.jpg,chameleon,x,sounds/greatgatsby_english.wav,,,,,,,,,0,1,1,0,0,166,166,150,937.857452947,9.94233414531E-06,938.927963802,1.07052047667,,,,,x,1,1.0505011566,2018_Dec_04_1105,59.9848401862,chinese_cond1,1,1069
images/dragonfly02.jpg,dragon fly,z,sounds/greatgatsby_english.wav,,,,,,,,,0,1,1,0,0,167,167,29,940.024657568,9.621726349E-06,941.328573747,1.30392644228,,,,,z,1,1.28391353646,2018_Dec_04_1105,59.9848401862,chinese_cond1,1,1069
images/plant01.jpg,plant,z,sounds/greatgatsby_english.wav,,,,,,,,,0,1,1,0,0,168,168,47,942.43886378,9.30088572204E-06,943.362506527,0.923652368132,,,,,z,1,0.900580117712,2018_Dec_04_1105,59.9848401862,chinese_cond1,1,1069
images/blackolive.jpg,tank,x,sounds/greatgatsby_english.wav,,,,,,,,,0,1,1,0,0,169,169,229,944.476388299,9.30088572204E-06,945.562938664,1.08656094898,,,,,x,1,1.06717889872,2018_Dec_04_1105,59.9848401862,chinese_cond1,1,1069
images/cheetah.jpg,cheetah,z,sounds/greatgatsby_english.wav,,,,,,,,,0,1,1,0,0,170,170,82,946.665758816,9.30088572204E-06,947.713465863,1.04771698941,,,,,z,1,1.03382726293,2018_Dec_04_1105,59.9848401862,chinese_cond1,1,1069
images/lantern03.jpg,lantern,z,sounds/greatgatsby_english.wav,,,,,,,,,0,1,1,0,0,171,171,5,948.819020471,9.621726349E-06,950.264110702,1.44510049443,,,,,z,1,1.43394778948,2018_Dec_04_1105,59.9848401862,chinese_cond1,1,1069
images/screw03c.jpg,screw,z,sounds/greatgatsby_english.wav,,,,,,,,,0,1,1,0,0,172,172,84,951.358516454,9.30088572204E-06,952.381289473,1.02278328198,,,,,z,1,1.00050481269,2018_Dec_04_1105,59.9848401862,chinese_cond1,1,1069
images/icecube02 (2).jpg,aloe,x,sounds/greatgatsby_english.wav,,,,,,,,,0,1,1,0,0,173,173,122,953.491292783,1.02631747723E-05,954.248415645,0.757133125793,,,,,x,1,0.733767416561,2018_Dec_04_1105,59.9848401862,chinese_cond1,1,1069
images/pictureframe04.jpg,picture frame,z,sounds/greatgatsby_english.wav,,,,,,,,,0,1,1,0,0,174,174,41,955.369214378,9.621726349E-06,956.282265358,0.913060922641,,,,,z,1,0.900463375729,2018_Dec_04_1105,59.9848401862,chinese_cond1,1,1069
images/safe.jpg,safe,z,sounds/greatgatsby_english.wav,,,,,,,,,0,1,1,0,0,175,175,78,957.392561806,9.30088572204E-06,958.116043102,0.72349123843,,,,,z,1,0.700430534082,2018_Dec_04_1105,59.9848401862,chinese_cond1,1,1069
images/parkbench03.jpg,park bench,z,sounds/greatgatsby_english.wav,,,,,,,,,0,1,1,0,0,176,176,71,959.221757428,9.30088572204E-06,960.233220269,1.01147310389,,,,,z,1,1.0004926254,2018_Dec_04_1105,59.9848401862,chinese_cond1,1,1069
images/backpack01b.jpg,swallow,x,sounds/greatgatsby_english.wav,,,,,,,,,0,1,1,0,0,177,177,228,961.364364776,9.62149351835E-06,962.633812574,1.26945774001,,,,,x,1,1.25053945044,2018_Dec_04_1105,59.9848401862,chinese_cond1,1,1069
images/chameleon.jpg,50 dollar bill,x,sounds/greatgatsby_english.wav,,,,,,,,,0,1,1,0,0,178,178,120,963.742775149,9.30088572204E-06,964.667644006,0.924878479447,,,,,x,1,0.900470752269,2018_Dec_04_1105,59.9848401862,chinese_cond1,1,1069
images/dresser02.jpg,dresser,z,sounds/greatgatsby_english.wav,,,,,,,,,0,1,1,0,0,179,179,87,965.788596685,9.94233414531E-06,966.601457414,0.812871313188,,,,,z,1,0.80040878919,2018_Dec_04_1105,59.9848401862,chinese_cond1,1,1069
images/hammer02a.jpg,flower,x,sounds/greatgatsby_english.wav,,,,,,,,,0,1,1,0,0,180,180,176,967.695706013,9.30088572204E-06,968.568621175,0.872925424948,,,,,x,1,0.850466390606,2018_Dec_04_1105,59.9848401862,chinese_cond1,1,1069
images/crocodile.jpg,triangle ruler,x,sounds/greatgatsby_english.wav,,,,,,,,,0,1,1,0,0,181,181,235,969.665256569,9.62149351835E-06,970.835839009,1.17059238208,,,,,x,1,1.15052816109,2018_Dec_04_1105,59.9848401862,chinese_cond1,1,1069
images/parkfountain.jpg,park fountain,z,sounds/greatgatsby_english.wav,,,,,,,,,0,1,1,0,0,182,182,93,971.955631965,9.30088572204E-06,973.069748825,1.11412712303,,,,,z,1,1.10054624965,2018_Dec_04_1105,59.9848401862,chinese_cond1,1,1069
images/tent.jpg,tent,z,sounds/greatgatsby_english.wav,,,,,,,,,0,1,1,0,0,183,183,11,974.195374068,9.621726349E-06,975.687033112,1.49166898662,,,,,z,1,1.46727408818,2018_Dec_04_1105,59.9848401862,chinese_cond1,1,1069
images/triangleruler02.jpg,bottle of red wine,x,sounds/greatgatsby_english.wav,,,,,,,,,0,1,1,0,0,184,184,134,976.796826351,9.62149351835E-06,978.154312012,1.35749560292,,,,,x,1,1.33390988037,2018_Dec_04_1105,59.9848401862,chinese_cond1,1,1069
images/50dollarbill.jpg,cherry,x,sounds/greatgatsby_english.wav,,,,,,,,,0,1,1,0,0,185,185,151,979.276103372,9.621726349E-06,980.421532411,1.14543962339,,,,,x,1,1.13382251631,2018_Dec_04_1105,59.9848401862,chinese_cond1,1,1069
images/rubberglove02a.jpg,lady bug,x,sounds/greatgatsby_english.wav,,,,,,,,,0,1,1,0,0,186,186,192,981.525143137,9.94233414531E-06,982.37200977,0.846877216827,,,,,x,1,0.833780309651,2018_Dec_04_1105,59.9848401862,chinese_cond1,1,1069
images/squirrel.jpg,binder,x,sounds/greatgatsby_english.wav,,,,,,,,,0,1,1,0,0,187,187,132,983.474645509,9.621726349E-06,984.489330299,1.01469473261,,,,,x,1,1.00061834743,2018_Dec_04_1105,59.9848401862,chinese_cond1,1,1069
images/radio03a.jpg,radio,z,sounds/greatgatsby_english.wav,,,,,,,,,0,1,1,0,0,188,188,37,985.602091477,9.30088572204E-06,986.389685592,0.787604057463,,,,,z,1,0.767116486561,2018_Dec_04_1105,59.9848401862,chinese_cond1,1,1069
images/cauliflower01.jpg,glue stick,x,sounds/greatgatsby_english.wav,,,,,,,,,0,1,1,0,0,189,189,181,987.50452343,1.02629419416E-05,988.440179372,0.935666205129,,,,,x,1,0.917142080143,2018_Dec_04_1105,59.9848401862,chinese_cond1,1,1069
images/stapler03a.jpg,candy cane,x,sounds/greatgatsby_english.wav,,,,,,,,,0,1,1,0,0,190,190,145,989.551417132,9.62149351835E-06,990.507356347,0.955949477619,,,,,x,1,0.933808917645,2018_Dec_04_1105,59.9848401862,chinese_cond1,1,1069
images/knife04.jpg,tooth brush,x,sounds/greatgatsby_english.wav,,,,,,,,,0,1,1,0,0,191,191,233,991.603432727,9.30088572204E-06,992.607871166,1.00444838149,,,,,x,1,0.983820656082,2018_Dec_04_1105,59.9848401862,chinese_cond1,1,1069
images/baseball01a.jpg,baseball,z,sounds/greatgatsby_english.wav,,,,,,,,,0,1,1,0,0,192,192,74,993.739109003,9.30088572204E-06,995.508590155,1.76949077426,,,,,z,1,1.75068217074,2018_Dec_04_1105,59.9848401862,chinese_cond1,1,1069
images/table02.jpg,table,z,sounds/greatgatsby_english.wav,,,,,,,,,0,1,1,0,0,193,193,49,996.622123626,9.62149351835E-06,997.459077777,0.836964093382,,,,,z,1,0.817128545837,2018_Dec_04_1105,59.9848401862,chinese_cond1,1,1069
images/egg01b (1).jpg,egg,z,sounds/greatgatsby_english.wav,,,,,,,,,0,1,1,0,0,194,194,19,998.573027221,9.30088572204E-06,999.526243847,0.953226247337,,,,,z,1,0.93380827643,2018_Dec_04_1105,59.9848401862,chinese_cond1,1,1069
images/ladder.jpg,ladder,z,sounds/greatgatsby_english.wav,,,,,,,,,0,1,1,0,0,195,195,113,1000.61758352,9.94233414531E-06,1001.7267969,1.10922364029,,,,,z,1,1.10052315798,2018_Dec_04_1105,59.9848401862,chinese_cond1,1,1069
images/redfox.jpg,red fox,z,sounds/greatgatsby_english.wav,,,,,,,,,0,1,1,0,0,196,196,1,1002.83804781,9.94233414531E-06,1003.82731524,0.989277380053,,,,,z,1,0.967164081521,2018_Dec_04_1105,59.9848401862,chinese_cond1,1,1069
images/grasshopper.jpg,cauliflower,x,sounds/greatgatsby_english.wav,,,,,,,,,0,1,1,0,0,197,197,148,1004.92012541,8.98004509509E-06,1006.39462083,1.47450599563,,,,,x,1,1.45061558927,2018_Dec_04_1105,59.9848401862,chinese_cond1,1,1069
images/flashlight05.jpg,flash light,z,sounds/greatgatsby_english.wav,,,,,,,,,0,1,1,0,0,198,198,8,1007.49755644,9.621726349E-06,1008.6618316,1.16428607167,,,,,z,1,1.15052976483,2018_Dec_04_1105,59.9848401862,chinese_cond1,1,1069
images/croissant02b.jpg,croissant,z,sounds/greatgatsby_english.wav,,,,,,,,,0,1,1,0,0,199,199,39,1009.77203601,9.62149351835E-06,1011.19578812,1.42376205418,,,,,x,0,1.40058492846,2018_Dec_04_1105,59.9848401862,chinese_cond1,1,1069
images/daisy.jpg,daisy,z,sounds/greatgatsby_english.wav,,,,,,,,,0,1,1,0,0,200,200,6,1012.29678851,1.02629419416E-05,1013.12959896,0.832820716314,,,,,z,1,0.81711603771,2018_Dec_04_1105,59.9848401862,chinese_cond1,1,1069
images/grandpiano.jpg,tulip,x,sounds/greatgatsby_english.wav,,,,,,,,,0,1,1,0,0,201,201,236,1014.24447849,9.94233414531E-06,1015.51352379,1.26905587828,,,,,x,1,1.25056382501,2018_Dec_04_1105,59.9848401862,chinese_cond1,1,1069
images/electrictoothbrush01a.jpg,banjo,x,sounds/greatgatsby_english.wav,,,,,,,,,0,1,1,0,0,202,202,127,1016.60719156,9.30088572204E-06,1017.79741872,1.19023710163,,,,,z,0,1.16720333742,2018_Dec_04_1105,59.9848401862,chinese_cond1,1,1069
images/binder03b.jpg,dj mixer,x,sounds/greatgatsby_english.wav,,,,,,,,,0,1,1,0,0,203,203,167,1018.90943807,9.62149351835E-06,1019.74790763,0.838479493745,,,,,x,1,0.817121810745,2018_Dec_04_1105,59.9848401862,chinese_cond1,1,1069
images/glasses01b.jpg,calculator,x,sounds/greatgatsby_english.wav,,,,,,,,,0,1,1,0,0,204,204,142,1020.83979444,9.30088572204E-06,1021.64837068,0.808586498722,,,,,x,1,0.783779796446,2018_Dec_04_1105,59.9848401862,chinese_cond1,1,1069
images/bicycle.jpg,hand bag,x,sounds/greatgatsby_english.wav,,,,,,,,,0,1,1,0,0,205,205,186,1022.75911998,9.30088572204E-06,1023.74889576,0.989785720827,,,,,x,1,0.967162477784,2018_Dec_04_1105,59.9848401862,chinese_cond1,1,1069
images/watermelon01.jpg,orange,x,sounds/greatgatsby_english.wav,,,,,,,,,0,1,1,0,0,206,206,207,1024.8786012,9.62149351835E-06,1025.69937216,0.820781221613,,,,,x,1,0.800448879134,2018_Dec_04_1105,59.9848401862,chinese_cond1,1,1069
images/pen03c.jpg,pepper,x,sounds/greatgatsby_english.wav,,,,,,,,,0,1,1,0,0,207,207,211,1026.7925409,9.621726349E-06,1027.54982283,0.757292202674,,,,,x,1,0.73376132315,2018_Dec_04_1105,59.9848401862,chinese_cond1,1,1069
images/cat.jpg,black olive,x,sounds/greatgatsby_english.wav,,,,,,,,,0,1,1,0,0,208,208,133,1028.67973321,9.621726349E-06,1029.90040404,1.22068173462,,,,,x,1,1.20054022013,2018_Dec_04_1105,59.9848401862,chinese_cond1,1,1069
images/raisin.jpg,ruler,x,sounds/greatgatsby_english.wav,,,,,,,,,0,1,1,0,0,209,209,218,1031.00448045,9.621726349E-06,1031.80088281,0.796412622556,,,,,x,1,0.783784286585,2018_Dec_04_1105,59.9848401862,chinese_cond1,1,1069
images/cocktailshrimp01.jpg,cocktail shrimp,z,sounds/greatgatsby_english.wav,,,,,,,,,0,1,1,0,0,210,210,30,1032.91435535,9.621726349E-06,1033.83470879,0.920363709098,,,,,z,1,0.900467865635,2018_Dec_04_1105,59.9848401862,chinese_cond1,1,1069
images/lip.jpg,boxing glove,x,sounds/greatgatsby_english.wav,,,,,,,,,0,1,1,0,0,211,211,136,1034.93742535,8.98004509509E-06,1035.56847717,0.631061440799,,,,,x,1,0.617073253496,2018_Dec_04_1105,59.9848401862,chinese_cond1,1,1069
images/scooter.jpg,pen,x,sounds/greatgatsby_english.wav,,,,,,,,,0,1,1,0,0,212,212,212,1036.66004969,9.62149351835E-06,1037.36893279,0.708893363364,,,,,x,1,0.700437589781,2018_Dec_04_1105,59.9848401862,chinese_cond1,1,1069
images/bandaid01.jpg,door handle,x,sounds/greatgatsby_english.wav,,,,,,,,,0,1,1,0,0,213,213,170,1038.47522665,9.621726349E-06,1039.73640053,1.26118381484,,,,,x,1,1.25078031095,2018_Dec_04_1105,59.9848401862,chinese_cond1,1,1069
images/birthdaycandle.jpg,birthday candle,z,sounds/greatgatsby_english.wav,,,,,,,,,0,1,1,0,0,214,214,55,1040.83269532,9.30088572204E-06,1042.03673876,1.20405338332,,,,,z,1,1.18388140039,2018_Dec_04_1105,59.9848401862,chinese_cond1,1,1069
images/lollipop03b.jpg,lollipop,z,sounds/greatgatsby_english.wav,,,,,,,,,0,1,1,0,0,215,215,42,1043.1291166,9.94233414531E-06,1044.00387846,0.874771487201,,,,,z,1,0.850452599581,2018_Dec_04_1105,59.9848401862,chinese_cond1,1,1069
images/eyedrops.jpg,bicycle,x,sounds/greatgatsby_english.wav,,,,,,,,,0,1,1,0,0,216,216,131,1045.10376178,9.30088572204E-06,1045.88768366,0.783932138234,,,,,x,1,0.767106223619,2018_Dec_04_1105,59.9848401862,chinese_cond1,1,1069
images/mushroom01.jpg,shower head,x,sounds/greatgatsby_english.wav,,,,,,,,,0,1,1,0,0,217,217,222,1047.00302374,9.62149351835E-06,1047.88818815,0.885174670257,,,,,x,1,0.86714477418,2018_Dec_04_1105,59.9848401862,chinese_cond1,1,1069
images/coffeepot03b.jpg,coffee pot,z,sounds/greatgatsby_english.wav,,,,,,,,,0,1,1,0,0,218,218,107,1049.00883294,9.30088572204E-06,1049.8054566,0.796633919235,,,,,z,1,0.783923799638,2018_Dec_04_1105,59.9848401862,chinese_cond1,1,1069
images/plate01b.jpg,plate,z,sounds/greatgatsby_english.wav,,,,,,,,,0,1,1,0,0,219,219,3,1050.90377962,9.30088572204E-06,1052.22257719,1.31880847528,,,,,x,0,1.30056401761,2018_Dec_04_1105,59.9848401862,chinese_cond1,1,1069
images/candle08a.jpg,screw driver,x,sounds/greatgatsby_english.wav,,,,,,,,,0,1,1,0,0,220,220,221,1053.33553914,9.62149351835E-06,1054.43979996,1.10427076695,,,,,x,1,1.0838572823,2018_Dec_04_1105,59.9848401862,chinese_cond1,1,1069
,,,sounds/greatgatsby_english.wav,,,,,,,,,0,1,1,0,,,,,,,,,,,,,,,,2018_Dec_04_1105,59.9848401862,chinese_cond1,1,1069
