images,name,corrAns,sounds,trials_3.thisRepN,trials_3.thisTrialN,trials_3.thisN,trials_3.thisIndex,trials_4.thisRepN,trials_4.thisTrialN,trials_4.thisN,trials_4.thisIndex,trials_2.thisRepN,trials_2.thisTrialN,trials_2.thisN,trials_2.thisIndex,trials.thisRepN,trials.thisTrialN,trials.thisN,trials.thisIndex,begin_global,begin_routine,end_global,end_routine,key_resp_2.keys,key_resp_2.corr,key_resp_2.rt,begin_book,key_resp_1.keys,key_resp_1.corr,key_resp_1.rt,date,frameRate,expName,session,participant,
images/volleyball.jpg,volley ball,z,,0,0,0,0,,,,,,,,,,,,,,,,,,,,,,,,2018_Dec_06_1104,59.9889948757,spanish_cond2,001,1072,
images/puma.jpg,puma,z,,,,,,0,0,0,0,,,,,,,,,48.1751959918,9.30088572204e-06,50.7423197266,2.56713431864,x,0,2.55090269772,,,,,2018_Dec_06_1104,59.9889948757,spanish_cond2,001,1072,
images/candycane01a.jpg,lip,x,sounds/greatgatsby_spanish.wav,,,,,,,,,0,0,0,0,0,0,0,200,92.9131353295,9.30088572204e-06,95.9032767285,2.99015198252,,,,82.7386696164,None,0,,2018_Dec_06_1104,59.9889948757,spanish_cond2,001,1072,
images/pingpongpaddle01c (1).jpg,ping pong paddle,z,sounds/greatgatsby_spanish.wav,,,,,,,,,0,0,0,0,0,1,1,10,97.0214285622,9.30088572204e-06,98.720613742,1.69919512211,,,,,z,1,1.68380955909,2018_Dec_06_1104,59.9889948757,spanish_cond2,001,1072,
images/sportshorts02.jpg,tape,x,sounds/greatgatsby_spanish.wav,,,,,,,,,0,0,0,0,0,2,2,230,99.8291394964,8.65920446813e-06,100.85465082,1.02552094474,,,,,x,1,1.01715465239,2018_Dec_06_1104,59.9889948757,spanish_cond2,001,1072,
images/comb02a.jpg,diploma,x,sounds/greatgatsby_spanish.wav,,,,,,,,,0,0,0,0,0,3,3,166,101.959448208,9.30088572204e-06,102.888501816,0.929063870572,,,,,x,1,0.917161002522,2018_Dec_06_1104,59.9889948757,spanish_cond2,001,1072,
images/boxingglove02a.jpg,bracelet,x,sounds/greatgatsby_spanish.wav,,,,,,,,,0,0,0,0,0,4,4,135,104.000669983,8.98004509509e-06,105.322416892,1.32175717154,,,,,x,1,1.30057428055,2018_Dec_06_1104,59.9889948757,spanish_cond2,001,1072,
images/dresser02.jpg,dresser,z,sounds/greatgatsby_spanish.wav,,,,,,,,,0,0,0,0,0,5,5,87,106.446724939,9.30088572204e-06,107.522971865,1.07625783049,,,,,z,1,1.06719717965,2018_Dec_06_1104,59.9889948757,spanish_cond2,001,1072,
images/screwdriver02b.jpg,cola,x,sounds/greatgatsby_spanish.wav,,,,,,,,,0,0,0,0,0,6,6,158,108.617260233,9.30088572204e-06,109.60680349,0.989552878309,,,,,x,1,0.967141310219,2018_Dec_06_1104,59.9889948757,spanish_cond2,001,1072,
images/cookingpot.jpg,grasshopper,x,sounds/greatgatsby_spanish.wav,,,,,,,,,0,0,0,0,0,7,7,183,110.721933183,9.30088572204e-06,111.97405346,1.25213021971,,,,,x,1,1.23388800723,2018_Dec_06_1104,59.9889948757,spanish_cond2,001,1072,
images/birthdaycandle.jpg,birthday candle,z,sounds/greatgatsby_spanish.wav,,,,,,,,,0,0,0,0,0,8,8,55,113.071336387,9.30088572204e-06,114.474689447,1.40336268139,,,,,z,1,1.38393188175,2018_Dec_06_1104,59.9889948757,spanish_cond2,001,1072,
images/gamecontroller01.jpg,game controller,z,sounds/greatgatsby_spanish.wav,,,,,,,,,0,0,0,0,0,9,9,112,115.594969576,9.621726349e-06,116.541847178,0.946887864964,,,,,z,1,0.933780052932,2018_Dec_06_1104,59.9889948757,spanish_cond2,001,1072,
images/cupcake.jpg,scissors,x,sounds/greatgatsby_spanish.wav,,,,,,,,,0,0,0,0,0,10,10,219,117.662636931,9.30088572204e-06,118.392329605,0.729703257326,,,,,x,1,0.71711918083,2018_Dec_06_1104,59.9889948757,spanish_cond2,001,1072,
images/aloe02.jpg,broad sword,x,sounds/greatgatsby_spanish.wav,,,,,,,,,0,0,0,0,0,11,11,137,119.51396702,9.30088572204e-06,120.909601961,1.39564488386,,,,,x,1,1.3839341267,2018_Dec_06_1104,59.9889948757,spanish_cond2,001,1072,
images/panda.jpg,panda,z,sounds/greatgatsby_spanish.wav,,,,,,,,,0,0,0,0,0,12,12,83,122.019092761,9.30088572204e-06,123.593600104,1.57451696415,,,,,z,1,1.55065061175,2018_Dec_06_1104,59.9889948757,spanish_cond2,001,1072,
images/redfox.jpg,red fox,z,sounds/greatgatsby_spanish.wav,,,,,,,,,0,0,0,0,0,13,13,1,124.706634535,9.30088572204e-06,126.877751614,2.17112670094,,,,,z,1,2.15079179266,2018_Dec_06_1104,59.9889948757,spanish_cond2,001,1072,
images/bowlingball.jpg,bowling ball,z,sounds/greatgatsby_spanish.wav,,,,,,,,,0,0,0,0,0,14,14,20,128.009681243,8.98027792573e-06,129.345007742,1.33533676201,,,,,z,1,1.31723951455,2018_Dec_06_1104,59.9889948757,spanish_cond2,001,1072,
images/scissors04a.jpg,leek,x,sounds/greatgatsby_spanish.wav,,,,,,,,,0,0,0,0,0,15,15,194,130.438668141,8.98027792573e-06,131.27882564,0.840167120565,,,,,x,1,0.817131432239,2018_Dec_06_1104,59.9889948757,spanish_cond2,001,1072,
images/lettuce.jpg,mushroom,x,sounds/greatgatsby_spanish.wav,,,,,,,,,0,0,0,0,0,16,16,205,132.402568259,8.98027792573e-06,133.41268985,1.01013153349,,,,,x,1,1.00051411358,2018_Dec_06_1104,59.9889948757,spanish_cond2,001,1072,
images/tie01.jpg,bench,x,sounds/greatgatsby_spanish.wav,,,,,,,,,0,0,0,0,0,17,17,130,134.510609085,9.621726349e-06,135.713240397,1.20264125452,,,,,x,1,1.1838733824,2018_Dec_06_1104,59.9889948757,spanish_cond2,001,1072,
images/ladybug03.jpg,giraffe,x,sounds/greatgatsby_spanish.wav,,,,,,,,,0,0,0,0,0,18,18,178,136.817425532,9.621726349e-06,137.763746365,0.946331095649,,,,,x,1,0.933811483439,2018_Dec_06_1104,59.9889948757,spanish_cond2,001,1072,
images/coffeepot03b.jpg,coffee pot,z,sounds/greatgatsby_spanish.wav,,,,,,,,,0,0,0,0,0,19,19,107,138.884271203,8.98027792573e-06,140.181009677,1.29674873687,,,,,z,1,1.28387793666,2018_Dec_06_1104,59.9889948757,spanish_cond2,001,1072,
images/puma.jpg,puma,z,sounds/greatgatsby_spanish.wav,,,,,,,,,0,0,0,0,0,20,20,4,141.278254118,8.98004509509e-06,142.43157703,1.153333175,,,,,x,0,1.13387671812,2018_Dec_06_1104,59.9889948757,spanish_cond2,001,1072,
images/envelope02a.jpg,grand piano,x,sounds/greatgatsby_spanish.wav,,,,,,,,,0,0,0,0,0,21,21,182,143.581513142,9.621726349e-06,146.582436494,3.00093425647,,,,,None,0,,2018_Dec_06_1104,59.9889948757,spanish_cond2,001,1072,
images/ostrich.jpg,ostrich,z,sounds/greatgatsby_spanish.wav,,,,,,,,,0,0,0,0,0,22,22,76,147.683986597,9.30088572204e-06,148.649774791,0.965798136313,,,,,z,1,0.950486980611,2018_Dec_06_1104,59.9889948757,spanish_cond2,001,1072,
images/weight01.jpg,weight,z,sounds/greatgatsby_spanish.wav,,,,,,,,,0,0,0,0,0,23,23,67,149.754551012,9.30088572204e-06,150.550243619,0.795703190845,,,,,z,1,0.783786531538,2018_Dec_06_1104,59.9889948757,spanish_cond2,001,1072,
images/lollipop03b.jpg,lollipop,z,sounds/greatgatsby_spanish.wav,,,,,,,,,0,0,0,0,0,24,24,42,151.642990929,9.62149351835e-06,152.717438617,1.07445827243,,,,,z,1,1.05051013664,2018_Dec_06_1104,59.9889948757,spanish_cond2,001,1072,
images/bus.jpg,microphone,x,sounds/greatgatsby_spanish.wav,,,,,,,,,0,0,0,0,0,25,25,203,153.837274229,9.30088572204e-06,154.634579094,0.797314806841,,,,,x,1,0.783777230885,2018_Dec_06_1104,59.9889948757,spanish_cond2,001,1072,
images/computerkeyboard01a.jpg,computer keyboard,z,sounds/greatgatsby_spanish.wav,,,,,,,,,0,0,0,0,0,26,26,61,155.751549397,9.3006528914e-06,156.701769218,0.950230084127,,,,,z,1,0.933826878201,2018_Dec_06_1104,59.9889948757,spanish_cond2,001,1072,
images/lemon02.jpg,lemon,z,sounds/greatgatsby_spanish.wav,,,,,,,,,0,0,0,0,0,27,27,14,157.813620514,8.65943729877e-06,158.702259598,0.888648384716,,,,,z,1,0.867130341707,2018_Dec_06_1104,59.9889948757,spanish_cond2,001,1072,
images/djmixer01.jpg,light bulb,x,sounds/greatgatsby_spanish.wav,,,,,,,,,0,0,0,0,0,28,28,196,159.82333832,9.30088572204e-06,160.869447862,1.04611980543,,,,,x,1,1.03378428658,2018_Dec_06_1104,59.9889948757,spanish_cond2,001,1072,
images/icecube02 (2).jpg,aloe,x,sounds/greatgatsby_spanish.wav,,,,,,,,,0,0,0,0,0,29,29,122,161.979771571,8.98004509509e-06,163.353410276,1.37364896853,,,,,x,1,1.35057351086,2018_Dec_06_1104,59.9889948757,spanish_cond2,001,1072,
images/tulip02.jpg,sport shorts,x,sounds/greatgatsby_spanish.wav,,,,,,,,,0,0,0,0,0,30,30,225,164.447655988,9.30088572204e-06,165.520603992,1.07295794599,,,,,x,1,1.05052168248,2018_Dec_06_1104,59.9889948757,spanish_cond2,001,1072,
images/doorhandle.jpg,doll,x,sounds/greatgatsby_spanish.wav,,,,,,,,,0,0,0,0,0,31,31,168,166.622853904,9.30088572204e-06,167.887856207,1.26501256577,,,,,x,1,1.25053945044,2018_Dec_06_1104,59.9889948757,spanish_cond2,001,1072,
images/electricguitar02.jpg,electric guitar,z,sounds/greatgatsby_spanish.wav,,,,,,,,,0,0,0,0,0,32,32,100,168.989982001,9.30088572204e-06,170.005049089,1.01507703052,,,,,z,1,1.00047081662,2018_Dec_06_1104,59.9889948757,spanish_cond2,001,1072,
images/flashlight05.jpg,flash light,z,sounds/greatgatsby_spanish.wav,,,,,,,,,0,0,0,0,0,33,33,8,171.107991756,9.3006528914e-06,171.95551394,0.847531805746,,,,,z,1,0.833782554604,2018_Dec_06_1104,59.9889948757,spanish_cond2,001,1072,
images/glasses01b.jpg,calculator,x,sounds/greatgatsby_spanish.wav,,,,,,,,,0,0,0,0,0,34,34,142,173.048300058,9.30088572204e-06,174.006024077,0.957733961754,,,,,x,1,0.933818218531,2018_Dec_06_1104,59.9889948757,spanish_cond2,001,1072,
images/cactus.jpg,cactus,z,sounds/greatgatsby_spanish.wav,,,,,,,,,0,0,0,0,0,35,35,70,175.117502056,9.30088572204e-06,176.0565371,0.939045307459,,,,,z,1,0.917156833224,2018_Dec_06_1104,59.9889948757,spanish_cond2,001,1072,
images/cola.jpg,comb,x,sounds/greatgatsby_spanish.wav,,,,,,,,,0,0,0,0,0,36,36,157,177.177016397,9.62149351835e-06,178.073704261,0.896697806194,,,,,x,1,0.883810329018,2018_Dec_06_1104,59.9889948757,spanish_cond2,001,1072,
images/notebook02b.jpg,notebook,z,sounds/greatgatsby_spanish.wav,,,,,,,,,0,0,0,0,0,37,37,7,179.180297038,9.621726349e-06,179.974169881,0.793883427512,,,,,z,1,0.783778834157,2018_Dec_06_1104,59.9889948757,spanish_cond2,001,1072,
images/carrot02.jpg,corkscrew,x,sounds/greatgatsby_spanish.wav,,,,,,,,,0,0,0,0,0,38,38,161,181.076581116,9.30088572204e-06,182.074676362,0.998104867525,,,,,x,1,0.983828353463,2018_Dec_06_1104,59.9889948757,spanish_cond2,001,1072,
images/candy.jpg,candy,z,sounds/greatgatsby_spanish.wav,,,,,,,,,0,0,0,0,0,39,39,31,183.177137949,8.98027792573e-06,184.008487204,0.831358876312,,,,,z,1,0.81711250986,2018_Dec_06_1104,59.9889948757,spanish_cond2,001,1072,
images/magnifyingglass01b.jpg,magnifying glass,z,sounds/greatgatsby_spanish.wav,,,,,,,,,0,0,0,0,0,40,40,64,185.115218853,9.30088572204e-06,186.07566033,0.960451740073,,,,,z,1,0.950481207576,2018_Dec_06_1104,59.9889948757,spanish_cond2,001,1072,
images/atm.jpg,atm,z,sounds/greatgatsby_spanish.wav,,,,,,,,,0,0,0,0,0,41,41,96,187.213820258,8.65943729877e-06,188.44276758,1.22895726352,,,,,z,1,1.21706626192,2018_Dec_06_1104,59.9889948757,spanish_cond2,001,1072,
images/plate01b.jpg,plate,z,sounds/greatgatsby_spanish.wav,,,,,,,,,0,0,0,0,0,42,42,3,189.54216886,8.98004509509e-06,190.310063092,0.767904174048,,,,,z,1,0.750453818357,2018_Dec_06_1104,59.9889948757,spanish_cond2,001,1072,
images/nailpolish02b.jpg,nail polish,z,sounds/greatgatsby_spanish.wav,,,,,,,,,0,0,0,0,0,43,43,94,191.418433939,8.98004509509e-06,192.777348405,1.35892505036,,,,,z,1,1.35061327997,2018_Dec_06_1104,59.9889948757,spanish_cond2,001,1072,
images/cheetah.jpg,cheetah,z,sounds/greatgatsby_spanish.wav,,,,,,,,,0,0,0,0,0,44,44,82,193.879996331,9.62149351835e-06,195.127915181,1.24792879261,,,,,z,1,1.23390981625,2018_Dec_06_1104,59.9889948757,spanish_cond2,001,1072,
images/raisin.jpg,ruler,x,sounds/greatgatsby_spanish.wav,,,,,,,,,0,0,0,0,0,45,45,218,196.23382675,8.98027792573e-06,197.128390167,0.894572718069,,,,,x,1,0.883801669581,2018_Dec_06_1104,59.9889948757,spanish_cond2,001,1072,
images/8ball.jpg,nail clipper,x,sounds/greatgatsby_spanish.wav,,,,,,,,,0,0,0,0,0,46,46,206,198.245790555,8.98027792573e-06,199.395618585,1.14983765176,,,,,x,1,1.13387094508,2018_Dec_06_1104,59.9889948757,spanish_cond2,001,1072,
images/nametag01a.jpg,name tag,z,sounds/greatgatsby_spanish.wav,,,,,,,,,0,0,0,0,0,47,47,108,200.517081528,9.30088572204e-06,201.996263937,1.47919203038,,,,,z,1,1.46728820005,2018_Dec_06_1104,59.9889948757,spanish_cond2,001,1072,
images/radio03a.jpg,radio,z,sounds/greatgatsby_spanish.wav,,,,,,,,,0,0,0,0,0,48,48,37,203.110503312,9.621726349e-06,203.846733534,0.736239844467,,,,,z,1,0.717112445505,2018_Dec_06_1104,59.9889948757,spanish_cond2,001,1072,
images/apple06.jpg,apple,z,sounds/greatgatsby_spanish.wav,,,,,,,,,0,0,0,0,0,49,49,13,204.973908174,9.30088572204e-06,205.73051564,0.756617408479,,,,,z,1,0.733762284974,2018_Dec_06_1104,59.9889948757,spanish_cond2,001,1072,
images/toucan.jpg,toucan,z,sounds/greatgatsby_spanish.wav,,,,,,,,,0,0,0,0,0,50,50,81,206.914098451,8.98027792573e-06,208.781314745,1.86727402429,,,,,z,1,1.85070853401,2018_Dec_06_1104,59.9889948757,spanish_cond2,001,1072,
images/dragonfly02.jpg,dragon fly,z,sounds/greatgatsby_spanish.wav,,,,,,,,,0,0,0,0,0,51,51,29,209.879073621,9.621726349e-06,211.065178891,1.18611489213,,,,,z,1,1.16722450498,2018_Dec_06_1104,59.9889948757,spanish_cond2,001,1072,
images/graduationcap.jpg,graduation cap,z,sounds/greatgatsby_spanish.wav,,,,,,,,,0,0,0,0,0,52,52,35,212.167248559,9.30088572204e-06,213.132349772,0.965111155063,,,,,z,1,0.950478321407,2018_Dec_06_1104,59.9889948757,spanish_cond2,001,1072,
images/egg01b (1).jpg,egg,z,sounds/greatgatsby_spanish.wav,,,,,,,,,0,0,0,0,0,53,53,19,214.245276762,9.94233414531e-06,215.799662795,1.55439661723,,,,,z,1,1.53396517225,2018_Dec_06_1104,59.9889948757,spanish_cond2,001,1072,
images/banjo.jpg,knife,x,sounds/greatgatsby_spanish.wav,,,,,,,,,0,0,0,0,0,54,54,191,216.896068234,8.65943729877e-06,217.833508339,0.937449406367,,,,,x,1,0.917154908879,2018_Dec_06_1104,59.9889948757,spanish_cond2,001,1072,
images/broom02.jpg,broom,z,sounds/greatgatsby_spanish.wav,,,,,,,,,0,0,0,0,0,55,55,116,218.926565144,9.30088572204e-06,220.000899298,1.07434377563,,,,,z,1,1.05071347277,2018_Dec_06_1104,59.9889948757,spanish_cond2,001,1072,
images/daisy.jpg,daisy,z,sounds/greatgatsby_spanish.wav,,,,,,,,,0,0,0,0,0,56,56,6,221.102946515,9.94233414531e-06,221.984357541,0.881421929924,,,,,z,1,0.866961322492,2018_Dec_06_1104,59.9889948757,spanish_cond2,001,1072,
images/giraffe.jpg,lettuce,x,sounds/greatgatsby_spanish.wav,,,,,,,,,0,0,0,0,0,57,57,195,223.086020857,8.65943729877e-06,224.785212451,1.69920121552,,,,,x,1,1.68398499279,2018_Dec_06_1104,59.9889948757,spanish_cond2,001,1072,
images/honeycomb.jpg,honey comb,z,sounds/greatgatsby_spanish.wav,,,,,,,,,0,0,0,0,0,58,58,59,225.89870038,9.62149351835e-06,226.919080189,1.0203897513,,,,,z,1,1.00050866138,2018_Dec_06_1104,59.9889948757,spanish_cond2,001,1072,
images/globe.jpg,cloud,x,sounds/greatgatsby_spanish.wav,,,,,,,,,0,0,0,0,0,59,59,154,228.047027763,9.30088572204e-06,229.503054534,1.45603671344,,,,,x,1,1.4339442614,2018_Dec_06_1104,59.9889948757,spanish_cond2,001,1072,
images/doll.jpg,carrot,x,sounds/greatgatsby_spanish.wav,,,,,,,,,0,0,0,0,0,60,60,146,230.613814421,8.65943729877e-06,231.803619834,1.18981503462,,,,,x,1,1.16718954663,2018_Dec_06_1104,59.9889948757,spanish_cond2,001,1072,
images/medal01.jpg,medal,z,sounds/greatgatsby_spanish.wav,,,,,,,,,0,0,0,0,0,61,61,115,232.90637488,8.98004509509e-06,233.770773332,0.864407752641,,,,,z,1,0.850364401704,2018_Dec_06_1104,59.9889948757,spanish_cond2,001,1072,
images/pictureframe04.jpg,picture frame,z,sounds/greatgatsby_spanish.wav,,,,,,,,,0,0,0,0,0,62,62,41,234.893118896,9.621726349e-06,235.721264161,0.828155528521,,,,,z,1,0.817142657237,2018_Dec_06_1104,59.9889948757,spanish_cond2,001,1072,
images/hanger02a.jpg,hanger,z,sounds/greatgatsby_spanish.wav,,,,,,,,,0,0,0,0,0,63,63,88,236.814716093,8.98004509509e-06,237.988482958,1.17377648666,,,,,z,1,1.15054323501,2018_Dec_06_1104,59.9889948757,spanish_cond2,001,1072,
images/printer03a.jpg,printer,z,sounds/greatgatsby_spanish.wav,,,,,,,,,0,0,0,0,0,64,64,72,239.09789037,9.94210131466e-06,240.005635044,0.907755257329,,,,,z,1,0.883803273318,2018_Dec_06_1104,59.9889948757,spanish_cond2,001,1072,
images/croissant02b.jpg,croissant,z,sounds/greatgatsby_spanish.wav,,,,,,,,,0,0,0,0,0,65,65,39,241.116912573,9.30088572204e-06,242.222854289,1.10595101723,,,,,z,1,1.083853113,2018_Dec_06_1104,59.9889948757,spanish_cond2,001,1072,
images/ant.jpg,ant,z,sounds/greatgatsby_spanish.wav,,,,,,,,,0,0,0,0,0,66,66,98,243.317960172,1.02631747723e-05,244.056640372,0.73869046336,,,,,z,1,0.717093843734,2018_Dec_06_1104,59.9889948757,spanish_cond2,001,1072,
images/parrot01.jpg,chameleon,x,sounds/greatgatsby_spanish.wav,,,,,,,,,0,0,0,0,0,67,67,150,245.170441002,9.30088572204e-06,246.190517731,1.02008763328,,,,,x,1,1.00051571731,2018_Dec_06_1104,59.9889948757,spanish_cond2,001,1072,
images/corkscrew02a.jpg,masquerade mask,x,sounds/greatgatsby_spanish.wav,,,,,,,,,0,0,0,0,0,68,68,201,247.295851363,8.98027792573e-06,248.707790088,1.41194866691,,,,,x,1,1.40059839864,2018_Dec_06_1104,59.9889948757,spanish_cond2,001,1072,
images/orange.jpg,bat,x,sounds/greatgatsby_spanish.wav,,,,,,,,,0,0,0,0,0,69,69,128,249.832836753,9.30088572204e-06,250.674933643,0.84210683289,,,,,x,1,0.81712341425,2018_Dec_06_1104,59.9889948757,spanish_cond2,001,1072,
images/grandpiano.jpg,tulip,x,sounds/greatgatsby_spanish.wav,,,,,,,,,0,0,0,0,0,70,70,236,251.789661795,9.3006528914e-06,252.692108821,0.902457289631,,,,,x,1,0.883807442384,2018_Dec_06_1104,59.9889948757,spanish_cond2,001,1072,
images/swallow.jpg,mattress,x,sounds/greatgatsby_spanish.wav,,,,,,,,,0,0,0,0,0,71,71,202,253.795135838,8.98027792573e-06,254.675920497,0.880794922821,,,,,x,1,0.867124889512,2018_Dec_06_1104,59.9889948757,spanish_cond2,001,1072,
images/skateboard.jpg,key,x,sounds/greatgatsby_spanish.wav,,,,,,,,,0,0,0,0,0,72,72,189,255.766726171,8.98027792573e-06,256.793110493,1.0263939437,,,,,x,1,1.01716587762,2018_Dec_06_1104,59.9889948757,spanish_cond2,001,1072,
images/eyedrops.jpg,bicycle,x,sounds/greatgatsby_spanish.wav,,,,,,,,,0,0,0,0,0,73,73,131,257.894032626,9.62149351835e-06,258.877165659,0.983159011463,,,,,x,1,0.96726735332,2018_Dec_06_1104,59.9889948757,spanish_cond2,001,1072,
images/bullet (2).jpg,rubber glove,x,sounds/greatgatsby_spanish.wav,,,,,,,,,0,0,0,0,0,74,74,217,259.982545475,9.30088572204e-06,261.060826084,1.07829055144,,,,,x,1,1.06717472943,2018_Dec_06_1104,59.9889948757,spanish_cond2,001,1072,
images/dolphin01.jpg,dolphin,z,sounds/greatgatsby_spanish.wav,,,,,,,,,0,0,0,0,0,75,75,99,262.16095604,9.30088572204e-06,263.011323007,0.850376909832,,,,,z,1,0.83377742325,2018_Dec_06_1104,59.9889948757,spanish_cond2,001,1072,
images/desktopcomputer.jpg,desktop computer,z,sounds/greatgatsby_spanish.wav,,,,,,,,,0,0,0,0,0,76,76,16,264.146932252,9.30088572204e-06,264.861765985,0.714843995636,,,,,z,1,0.700428930577,2018_Dec_06_1104,59.9889948757,spanish_cond2,001,1072,
images/ceilingfan02.jpg,paper clip,x,sounds/greatgatsby_spanish.wav,,,,,,,,,0,0,0,0,0,77,77,208,265.960605044,8.65943729877e-06,266.912271952,0.951676850673,,,,,x,1,0.933791919844,2018_Dec_06_1104,59.9889948757,spanish_cond2,001,1072,
images/saltshaker03c.jpg,salt shaker,z,sounds/greatgatsby_spanish.wav,,,,,,,,,0,0,0,0,0,78,78,63,268.023840695,9.62149351835e-06,269.162821024,1.13899027184,,,,,z,1,1.11719288211,2018_Dec_06_1104,59.9889948757,spanish_cond2,001,1072,
images/hairband.jpg,hairband,z,sounds/greatgatsby_spanish.wav,,,,,,,,,0,0,0,0,0,79,79,66,270.272541459,9.62149351835e-06,271.48006535,1.20753383264,,,,,z,1,1.18388107955,2018_Dec_06_1104,59.9889948757,spanish_cond2,001,1072,
images/lamp04b.jpg,parking meter,x,sounds/greatgatsby_spanish.wav,,,,,,,,,0,0,0,0,0,80,80,209,272.60228455,9.621726349e-06,274.097425327,1.49515103968,,,,,x,1,1.48400218366,2018_Dec_06_1104,59.9889948757,spanish_cond2,001,1072,
images/chameleon.jpg,50 dollar bill,x,sounds/greatgatsby_spanish.wav,,,,,,,,,0,0,0,0,0,81,81,120,275.211072974,9.62149351835e-06,276.214569139,1.00350578642,,,,,x,1,0.983833163977,2018_Dec_06_1104,59.9889948757,spanish_cond2,001,1072,
images/parkingmeter.jpg,ear,x,sounds/greatgatsby_spanish.wav,,,,,,,,,0,0,0,0,0,82,82,171,277.31652431,9.30088572204e-06,278.26508569,0.948571963701,,,,,x,1,0.933832330396,2018_Dec_06_1104,59.9889948757,spanish_cond2,001,1072,
images/handfan01b.jpg,handfan,z,sounds/greatgatsby_spanish.wav,,,,,,,,,0,0,0,0,0,83,83,69,279.379403962,9.30088572204e-06,280.515644063,1.1362503639,,,,,z,1,1.11719769309,2018_Dec_06_1104,59.9889948757,spanish_cond2,001,1072,
images/coin01b.jpg,arrow,x,sounds/greatgatsby_spanish.wav,,,,,,,,,0,0,0,0,0,84,84,124,281.619192248,9.30088572204e-06,282.432763051,0.813580745133,,,,,x,1,0.800440861145,2018_Dec_06_1104,59.9889948757,spanish_cond2,001,1072,
images/blueberry02.jpg,blueberry,z,sounds/greatgatsby_spanish.wav,,,,,,,,,0,0,0,0,0,85,85,46,283.545597032,8.98027792573e-06,284.316583002,0.770995911676,,,,,z,1,0.750452856068,2018_Dec_06_1104,59.9889948757,spanish_cond2,001,1072,
images/bed.jpg,bed,z,sounds/greatgatsby_spanish.wav,,,,,,,,,0,0,0,0,0,86,86,103,285.437232921,8.98004509509e-06,286.133686531,0.696463552769,,,,,z,1,0.68376241345,2018_Dec_06_1104,59.9889948757,spanish_cond2,001,1072,
images/hand01a.jpg,cupcake,x,sounds/greatgatsby_spanish.wav,,,,,,,,,0,0,0,0,0,87,87,163,287.245557392,8.98004509509e-06,288.400910138,1.15536204749,,,,,x,1,1.13384849462,2018_Dec_06_1104,59.9889948757,spanish_cond2,001,1072,
images/lychee02a.jpg,lychee,z,sounds/greatgatsby_spanish.wav,,,,,,,,,0,0,0,0,0,88,88,62,289.525065844,9.62149351835e-06,290.501422071,0.976366810966,,,,,z,1,0.967158949934,2018_Dec_06_1104,59.9889948757,spanish_cond2,001,1072,
images/charcoalbarbecue.jpg,charcoal barbecue,z,sounds/greatgatsby_spanish.wav,,,,,,,,,0,0,0,0,0,89,89,77,291.620472561,8.98004509509e-06,293.202092183,1.58162892214,,,,,z,1,1.56730013085,2018_Dec_06_1104,59.9889948757,spanish_cond2,001,1072,
images/headphones02b.jpg,headphones,z,sounds/greatgatsby_spanish.wav,,,,,,,,,0,0,0,0,0,90,90,101,294.391396311,8.98004509509e-06,295.169260754,0.777874064865,,,,,z,1,0.767126749735,2018_Dec_06_1104,59.9889948757,spanish_cond2,001,1072,
images/arrow02.jpg,hammer,x,sounds/greatgatsby_spanish.wav,,,,,,,,,0,0,0,0,0,91,91,184,296.26782656,9.30088572204e-06,297.369787183,1.10197088635,,,,,x,1,1.08384445356,2018_Dec_06_1104,59.9889948757,spanish_cond2,001,1072,
images/battery03b.jpg,battery,z,sounds/greatgatsby_spanish.wav,,,,,,,,,0,0,0,0,0,92,92,34,298.47881326,9.30088572204e-06,299.470298474,0.99149483582,,,,,z,1,0.967160232831,2018_Dec_06_1104,59.9889948757,spanish_cond2,001,1072,
images/dice05a.jpg,band aid,x,sounds/greatgatsby_spanish.wav,,,,,,,,,0,0,0,0,0,93,93,126,300.583033033,9.30088572204e-06,301.520808932,0.937785520684,,,,,x,1,0.91714689089,2018_Dec_06_1104,59.9889948757,spanish_cond2,001,1072,
images/bowl02b (1).jpg,bowl,z,sounds/greatgatsby_spanish.wav,,,,,,,,,0,0,0,0,0,94,94,24,302.638801689,9.30088572204e-06,303.454615925,0.815824178979,,,,,z,1,0.800452086376,2018_Dec_06_1104,59.9889948757,spanish_cond2,001,1072,
images/plant01.jpg,plant,z,sounds/greatgatsby_spanish.wav,,,,,,,,,0,0,0,0,0,95,95,47,304.566662219,9.62149351835e-06,305.271743188,0.705091231968,,,,,z,1,0.683767865645,2018_Dec_06_1104,59.9889948757,spanish_cond2,001,1072,
images/mailbox01.jpg,mail box,z,sounds/greatgatsby_spanish.wav,,,,,,,,,0,0,0,0,0,96,96,73,306.478774132,9.30088572204e-06,307.63898963,1.16022511944,,,,,z,1,1.15054002777,2018_Dec_06_1104,59.9889948757,spanish_cond2,001,1072,
images/mushroom01.jpg,shower head,x,sounds/greatgatsby_spanish.wav,,,,,,,,,0,0,0,0,0,97,97,222,308.755787065,8.65943729877e-06,309.606133827,0.850356704323,,,,,x,1,0.833795383573,2018_Dec_06_1104,59.9889948757,spanish_cond2,001,1072,
images/tank.jpg,wallet,x,sounds/greatgatsby_spanish.wav,,,,,,,,,0,0,0,0,0,98,98,237,310.710632626,9.621726349e-06,311.52328617,0.812664128374,,,,,x,1,0.800459783524,2018_Dec_06_1104,59.9889948757,spanish_cond2,001,1072,
images/scooter.jpg,pen,x,sounds/greatgatsby_spanish.wav,,,,,,,,,0,0,0,0,0,99,99,212,312.616623284,9.94233414531e-06,313.307092266,0.690479886485,,,,,x,1,0.667124761268,2018_Dec_06_1104,59.9889948757,spanish_cond2,001,1072,
images/treadmill.jpg,lily,x,sounds/greatgatsby_spanish.wav,,,,,,,,,0,0,0,0,0,100,100,199,314.413492611,8.98027792573e-06,315.224243968,0.810809727293,,,,,x,1,0.800464273663,2018_Dec_06_1104,59.9889948757,spanish_cond2,001,1072,
images/rhinoceros01.jpg,envelope,x,sounds/greatgatsby_spanish.wav,,,,,,,,,0,0,0,0,0,101,101,173,316.338575068,8.65943729877e-06,317.224698427,0.886132660089,,,,,x,1,0.867141566938,2018_Dec_06_1104,59.9889948757,spanish_cond2,001,1072,
images/lion.jpg,lion,z,sounds/greatgatsby_spanish.wav,,,,,,,,,0,0,0,0,0,102,102,44,318.337315282,8.65943729877e-06,319.125166293,0.78786063334,,,,,z,1,0.767122580437,2018_Dec_06_1104,59.9889948757,spanish_cond2,001,1072,
images/knife04.jpg,tooth brush,x,sounds/greatgatsby_spanish.wav,,,,,,,,,0,0,0,0,0,103,103,233,320.222140367,9.30088572204e-06,321.008945833,0.786816049367,,,,,x,1,0.767108147964,2018_Dec_06_1104,59.9889948757,spanish_cond2,001,1072,
images/acousticguitar02.jpg,acoustic guitar,z,sounds/greatgatsby_spanish.wav,,,,,,,,,0,0,0,0,0,104,104,97,322.123200602,9.30088572204e-06,323.042784963,0.919594302541,,,,,z,1,0.900480694603,2018_Dec_06_1104,59.9889948757,spanish_cond2,001,1072,
images/highlighter03b.jpg,coin,x,sounds/greatgatsby_spanish.wav,,,,,,,,,0,0,0,0,0,105,105,156,324.14489889,9.94233414531e-06,325.009945837,0.865057209972,,,,,x,1,0.850475691259,2018_Dec_06_1104,59.9889948757,spanish_cond2,001,1072,
images/lipstick04.jpg,lipstick,z,sounds/greatgatsby_spanish.wav,,,,,,,,,0,0,0,0,0,106,106,56,326.109797728,8.65943729877e-06,327.360536025,1.25074791815,,,,,z,1,1.23390949564,2018_Dec_06_1104,59.9889948757,spanish_cond2,001,1072,
images/diploma01.jpg,glasses,x,sounds/greatgatsby_spanish.wav,,,,,,,,,0,0,0,0,0,107,107,179,328.491504778,9.62149351835e-06,329.34435604,0.852861524792,,,,,x,1,0.833807891468,2018_Dec_06_1104,59.9889948757,spanish_cond2,001,1072,
images/leaf01a.jpg,leaf,z,sounds/greatgatsby_spanish.wav,,,,,,,,,0,0,0,0,0,108,108,68,330.44744271,8.98004509509e-06,331.744942572,1.29750980437,,,,,z,1,1.2839193095,2018_Dec_06_1104,59.9889948757,spanish_cond2,001,1072,
images/nailclipper03a.jpg,aquarium,x,sounds/greatgatsby_spanish.wav,,,,,,,,,0,0,0,0,0,109,109,123,332.91977615,9.30088572204e-06,334.078837058,1.15907117026,,,,,x,1,1.15053778258,2018_Dec_06_1104,59.9889948757,spanish_cond2,001,1072,
images/basketball01.jpg,basket ball,z,sounds/greatgatsby_spanish.wav,,,,,,,,,0,0,0,0,0,110,110,33,335.218578776,8.98004509509e-06,335.779255404,0.560686571058,,,,,z,1,0.550388263073,2018_Dec_06_1104,59.9889948757,spanish_cond2,001,1072,
images/diaper01a.jpg,camera,x,sounds/greatgatsby_spanish.wav,,,,,,,,,0,0,0,0,0,111,111,143,336.899695252,8.98004509509e-06,337.979812623,1.0801273128,,,,,x,1,1.06718980311,2018_Dec_06_1104,59.9889948757,spanish_cond2,001,1072,
images/lightswitch02a.jpg,fork,x,sounds/greatgatsby_spanish.wav,,,,,,,,,0,0,0,0,0,112,112,177,339.09167322,9.30088572204e-06,339.963632637,0.871969039086,,,,,x,1,0.850452920189,2018_Dec_06_1104,59.9889948757,spanish_cond2,001,1072,
images/triangleruler02.jpg,bottle of red wine,x,sounds/greatgatsby_spanish.wav,,,,,,,,,0,0,0,0,0,113,113,134,341.074455707,8.98004509509e-06,342.047479657,0.973033571616,,,,,x,1,0.950496281497,2018_Dec_06_1104,59.9889948757,spanish_cond2,001,1072,
images/lantern03.jpg,lantern,z,sounds/greatgatsby_spanish.wav,,,,,,,,,0,0,0,0,0,114,114,5,343.155668014,9.94233414531e-06,343.881256759,0.725598687539,,,,,z,1,0.717101861956,2018_Dec_06_1104,59.9889948757,spanish_cond2,001,1072,
images/table02.jpg,table,z,sounds/greatgatsby_spanish.wav,,,,,,,,,0,0,0,0,0,115,115,49,344.996046489,9.621726349e-06,345.748378441,0.752342536347,,,,,z,1,0.733754908666,2018_Dec_06_1104,59.9889948757,spanish_cond2,001,1072,
images/floorlamp.jpg,floor lamp,z,sounds/greatgatsby_spanish.wav,,,,,,,,,0,0,0,0,0,116,116,26,346.841342237,8.98004509509e-06,348.032291657,1.19095904147,,,,,z,1,1.16722033569,2018_Dec_06_1104,59.9889948757,spanish_cond2,001,1072,
images/licenseplate.jpg,license plate,z,sounds/greatgatsby_spanish.wav,,,,,,,,,0,0,0,0,0,117,117,40,349.149819691,9.30088572204e-06,350.449543103,1.29973303294,,,,,z,1,1.28390295268,2018_Dec_06_1104,59.9889948757,spanish_cond2,001,1072,
images/mitten01.jpg,mitten,z,sounds/greatgatsby_spanish.wav,,,,,,,,,0,0,0,0,0,118,118,102,351.57001406,9.30088572204e-06,353.033508147,1.46350338752,,,,,z,1,1.45060211909,2018_Dec_06_1104,59.9889948757,spanish_cond2,001,1072,
images/microphone01.jpg,diaper,x,sounds/greatgatsby_spanish.wav,,,,,,,,,0,0,0,0,0,119,119,164,354.133068825,9.30088572204e-06,355.034002055,0.900943172397,,,,,x,1,0.883801028132,2018_Dec_06_1104,59.9889948757,spanish_cond2,001,1072,
images/radish01.jpg,raisin,x,sounds/greatgatsby_spanish.wav,,,,,,,,,0,0,0,0,0,120,120,214,356.14465386,9.621726349e-06,357.634651577,1.49000797956,,,,,x,1,1.46726446669,2018_Dec_06_1104,59.9889948757,spanish_cond2,001,1072,
images/pen03c.jpg,pepper,x,sounds/greatgatsby_spanish.wav,,,,,,,,,0,0,0,0,0,121,121,211,358.72899158,9.30088572204e-06,359.7019485,0.972966862144,,,,,x,1,0.950602760306,2018_Dec_06_1104,59.9889948757,spanish_cond2,001,1072,
images/donut.jpg,rhinoceros,x,sounds/greatgatsby_spanish.wav,,,,,,,,,0,0,0,0,0,122,122,216,360.827513769,9.30088572204e-06,361.95238949,1.12488630484,,,,,x,1,1.10052347858,2018_Dec_06_1104,59.9889948757,spanish_cond2,001,1072,
images/screw03c.jpg,screw,z,sounds/greatgatsby_spanish.wav,,,,,,,,,0,0,0,0,0,123,123,84,363.046983824,8.98004509509e-06,364.152921371,1.10594748915,,,,,z,1,1.08385664085,2018_Dec_06_1104,59.9889948757,spanish_cond2,001,1072,
images/banana04a.jpg,banana,z,sounds/greatgatsby_spanish.wav,,,,,,,,,0,0,0,0,0,124,124,118,365.260323003,9.62149351835e-06,365.853339076,0.593026336282,,,,,z,1,0.583730598213,2018_Dec_06_1104,59.9889948757,spanish_cond2,001,1072,
images/ladder.jpg,ladder,z,sounds/greatgatsby_spanish.wav,,,,,,,,,0,0,0,0,0,125,125,113,366.945746103,9.30088572204e-06,367.937192189,0.99145602854,,,,,z,1,0.967163760914,2018_Dec_06_1104,59.9889948757,spanish_cond2,001,1072,
images/blackolive.jpg,tank,x,sounds/greatgatsby_spanish.wav,,,,,,,,,0,0,0,0,0,126,126,229,369.052599625,9.30088572204e-06,370.004374937,0.951785574434,,,,,x,1,0.933823670726,2018_Dec_06_1104,59.9889948757,spanish_cond2,001,1072,
images/hat05.jpg,hat,z,sounds/greatgatsby_spanish.wav,,,,,,,,,0,0,0,0,0,127,127,15,371.108533131,9.30088572204e-06,372.054878338,0.946355149616,,,,,z,1,0.933808597038,2018_Dec_06_1104,59.9889948757,spanish_cond2,001,1072,
images/aquarium.jpg,computer mouse,x,sounds/greatgatsby_spanish.wav,,,,,,,,,0,0,0,0,0,128,128,159,373.191952952,9.30088572204e-06,375.289002395,2.09705938562,,,,,z,0,2.08409910486,2018_Dec_06_1104,59.9889948757,spanish_cond2,001,1072,
images/bull.jpg,button,x,sounds/greatgatsby_spanish.wav,,,,,,,,,0,0,0,0,0,129,129,141,376.394914285,8.65943729877e-06,377.589570903,1.19466656051,,,,,x,1,1.18387915543,2018_Dec_06_1104,59.9889948757,spanish_cond2,001,1072,
images/dryingmachine01.jpg,drying machine,z,sounds/greatgatsby_spanish.wav,,,,,,,,,0,0,0,0,0,130,130,18,378.712143857,8.98004509509e-06,379.990365582,1.27823166735,,,,,z,1,1.2674423377,2018_Dec_06_1104,59.9889948757,spanish_cond2,001,1072,
images/camera01a.jpg,bull,x,sounds/greatgatsby_spanish.wav,,,,,,,,,0,0,0,0,0,131,131,138,381.101244136,8.98004509509e-06,382.074007341,0.97277378873,,,,,x,1,0.950489867246,2018_Dec_06_1104,59.9889948757,spanish_cond2,001,1072,
images/remotecontrol01c.jpg,remote control,z,sounds/greatgatsby_spanish.wav,,,,,,,,,0,0,0,0,0,132,132,85,383.18379641,9.30088572204e-06,384.04115699,0.857370522339,,,,,z,1,0.833769725868,2018_Dec_06_1104,59.9889948757,spanish_cond2,001,1072,
images/gluestick.jpg,squirrel,x,sounds/greatgatsby_spanish.wav,,,,,,,,,0,0,0,0,0,133,133,226,385.149262602,8.98027792573e-06,386.575118955,1.42586565437,,,,,x,1,1.41726683988,2018_Dec_06_1104,59.9889948757,spanish_cond2,001,1072,
images/corn01.jpg,corn,z,sounds/greatgatsby_spanish.wav,,,,,,,,,0,0,0,0,0,134,134,22,387.675100417,8.98027792573e-06,388.525609784,0.850519309286,,,,,z,1,0.833797307685,2018_Dec_06_1104,59.9889948757,spanish_cond2,001,1072,
images/feather03b.jpg,feather,z,sounds/greatgatsby_spanish.wav,,,,,,,,,0,0,0,0,0,135,135,114,389.626298754,9.30088572204e-06,390.442737432,0.816448299447,,,,,z,1,0.800444388995,2018_Dec_06_1104,59.9889948757,spanish_cond2,001,1072,
images/marker01a.jpg,marker,z,sounds/greatgatsby_spanish.wav,,,,,,,,,0,0,0,0,0,136,136,95,391.541504008,8.98027792573e-06,392.710039936,1.16854522866,,,,,z,1,1.1505201431,2018_Dec_06_1104,59.9889948757,spanish_cond2,001,1072,
images/puzzle.jpg,puzzle,z,sounds/greatgatsby_spanish.wav,,,,,,,,,0,0,0,0,0,137,137,57,393.829985234,9.30088572204e-06,394.877008827,1.04703385639,,,,,z,1,1.03368358058,2018_Dec_06_1104,59.9889948757,spanish_cond2,001,1072,
images/bicycle.jpg,hand bag,x,sounds/greatgatsby_spanish.wav,,,,,,,,,0,0,0,0,0,138,138,186,395.987762942,8.98004509509e-06,396.944352897,0.956599576399,,,,,x,1,0.933829443995,2018_Dec_06_1104,59.9889948757,spanish_cond2,001,1072,
images/hairpin.jpg,hair pin,z,sounds/greatgatsby_spanish.wav,,,,,,,,,0,0,0,0,0,139,139,28,398.035504627,9.30088572204e-06,398.91150864,0.876013955101,,,,,z,1,0.867145736236,2018_Dec_06_1104,59.9889948757,spanish_cond2,001,1072,
images/pineapple01a.jpg,pineapple,z,sounds/greatgatsby_spanish.wav,,,,,,,,,0,0,0,0,0,140,140,51,400.024843264,9.30088572204e-06,400.828464382,0.803631700808,,,,,z,1,0.783604683587,2018_Dec_06_1104,59.9889948757,spanish_cond2,001,1072,
images/flamingo.jpg,flamingo,z,sounds/greatgatsby_spanish.wav,,,,,,,,,0,0,0,0,0,141,141,52,401.926897409,8.98027792573e-06,402.779252197,0.852364088641,,,,,z,1,0.833928161301,2018_Dec_06_1104,59.9889948757,spanish_cond2,001,1072,
images/peach01.jpg,peach,z,sounds/greatgatsby_spanish.wav,,,,,,,,,0,0,0,0,0,142,142,106,403.907854039,8.98004509509e-06,404.612934046,0.705089307623,,,,,z,1,0.683782939566,2018_Dec_06_1104,59.9889948757,spanish_cond2,001,1072,
images/lily.jpg,kiwi,x,sounds/greatgatsby_spanish.wav,,,,,,,,,0,0,0,0,0,143,143,190,405.712550529,9.30088572204e-06,406.563374522,0.85083361459,,,,,x,1,0.833772291662,2018_Dec_06_1104,59.9889948757,spanish_cond2,001,1072,
images/teapot.jpg,light switch,x,sounds/greatgatsby_spanish.wav,,,,,,,,,0,0,0,0,0,144,144,197,407.680816924,8.98004509509e-06,408.797282735,1.11647511157,,,,,x,1,1.10053630732,2018_Dec_06_1104,59.9889948757,spanish_cond2,001,1072,
images/gorilla.jpg,gorilla,z,sounds/greatgatsby_spanish.wav,,,,,,,,,0,0,0,0,0,145,145,80,409.907962763,8.98027792573e-06,410.647726675,0.73977353354,,,,,z,1,0.717104427516,2018_Dec_06_1104,59.9889948757,spanish_cond2,001,1072,
images/gps.jpg,gps,z,sounds/greatgatsby_spanish.wav,,,,,,,,,0,0,0,0,0,146,146,21,411.766576395,9.62149351835e-06,412.631550538,0.864983765176,,,,,z,1,0.850459655514,2018_Dec_06_1104,59.9889948757,spanish_cond2,001,1072,
images/swan.jpg,swan,z,sounds/greatgatsby_spanish.wav,,,,,,,,,0,0,0,0,0,147,147,54,413.723781169,9.30088572204e-06,414.798762856,1.07499130862,,,,,z,1,1.05049955286,2018_Dec_06_1104,59.9889948757,spanish_cond2,001,1072,
images/flower01.jpg,bus,x,sounds/greatgatsby_spanish.wav,,,,,,,,,0,0,0,0,0,148,148,140,415.912938728,9.621726349e-06,416.749226424,0.836297958856,,,,,x,1,0.817120848456,2018_Dec_06_1104,59.9889948757,spanish_cond2,001,1072,
images/cat.jpg,black olive,x,sounds/greatgatsby_spanish.wav,,,,,,,,,0,0,0,0,0,149,149,133,417.880548931,9.94233414531e-06,418.783074213,0.902535866015,,,,,x,1,0.883814819157,2018_Dec_06_1104,59.9889948757,spanish_cond2,001,1072,
images/seagull.jpg,seagull,z,sounds/greatgatsby_spanish.wav,,,,,,,,,0,0,0,0,0,150,150,50,419.891292398,8.98027792573e-06,420.716873189,0.825590733672,,,,,z,1,0.817120207008,2018_Dec_06_1104,59.9889948757,spanish_cond2,001,1072,
images/masquerademask02b.jpg,mirror,x,sounds/greatgatsby_spanish.wav,,,,,,,,,0,0,0,0,0,151,151,204,421.822418175,9.30088572204e-06,423.134157027,1.31174879428,,,,,x,1,1.30059673102,2018_Dec_06_1104,59.9889948757,spanish_cond2,001,1072,
images/paintbrush03a.jpg,paint brush,z,sounds/greatgatsby_spanish.wav,,,,,,,,,0,0,0,0,0,152,152,0,424.234778967,8.98004509509e-06,425.134640993,0.899871968664,,,,,z,1,0.883815781213,2018_Dec_06_1104,59.9889948757,spanish_cond2,001,1072,
images/lightbulb03b.jpg,treadmill,x,sounds/greatgatsby_spanish.wav,,,,,,,,,0,0,0,0,0,153,153,234,426.237910794,8.98004509509e-06,427.201814119,0.963912946405,,,,,x,1,0.950495319441,2018_Dec_06_1104,59.9889948757,spanish_cond2,001,1072,
images/mirror02.jpg,8 ball,x,sounds/greatgatsby_spanish.wav,,,,,,,,,0,0,0,0,0,154,154,121,428.305172438,9.62149351835e-06,428.502150746,0.196988570737,,,,,z,0,0.183654651744,2018_Dec_06_1104,59.9889948757,spanish_cond2,001,1072,
images/safe.jpg,safe,z,sounds/greatgatsby_spanish.wav,,,,,,,,,0,0,0,0,0,155,155,78,429.613900054,9.30088572204e-06,431.002756585,1.38886647415,,,,,z,1,1.36726857186,2018_Dec_06_1104,59.9889948757,spanish_cond2,001,1072,
images/key03b.jpg,cigar,x,sounds/greatgatsby_spanish.wav,,,,,,,,,0,0,0,0,0,156,156,153,432.104261466,9.30088572204e-06,433.069932277,0.965681394562,,,,,x,1,0.950500771636,2018_Dec_06_1104,59.9889948757,spanish_cond2,001,1072,
images/toothbrush03a.jpg,parrot,x,sounds/greatgatsby_spanish.wav,,,,,,,,,0,0,0,0,0,157,157,210,434.162269386,9.30088572204e-06,435.370500464,1.20824166085,,,,,x,1,1.18386728875,2018_Dec_06_1104,59.9889948757,spanish_cond2,001,1072,
images/sock03.jpg,sock,z,sounds/greatgatsby_spanish.wav,,,,,,,,,0,0,0,0,0,158,158,90,436.476683361,9.621726349e-06,437.471033885,0.994360145181,,,,,z,1,0.983796922956,2018_Dec_06_1104,59.9889948757,spanish_cond2,001,1072,
images/wallet01.jpg,lamp,x,sounds/greatgatsby_spanish.wav,,,,,,,,,0,0,0,0,0,159,159,193,438.629682346,8.98004509509e-06,439.821602905,1.1919311427,,,,,x,1,1.16722386354,2018_Dec_06_1104,59.9889948757,spanish_cond2,001,1072,
images/rubberglove02a.jpg,lady bug,x,sounds/greatgatsby_spanish.wav,,,,,,,,,0,0,0,0,0,160,160,192,440.926704978,9.30088572204e-06,442.505582125,1.57888741069,,,,,x,1,1.56730846944,2018_Dec_06_1104,59.9889948757,spanish_cond2,001,1072,
images/squirrel.jpg,binder,x,sounds/greatgatsby_spanish.wav,,,,,,,,,0,0,0,0,0,161,161,132,443.609109464,8.98027792573e-06,444.606107849,0.997008006554,,,,,x,1,0.983835088322,2018_Dec_06_1104,59.9889948757,spanish_cond2,001,1072,
images/paperclip04.jpg,eye drops,x,sounds/greatgatsby_spanish.wav,,,,,,,,,0,0,0,0,0,162,162,174,445.712772467,9.30088572204e-06,446.890007595,1.17724571098,,,,,x,1,1.16722033569,2018_Dec_06_1104,59.9889948757,spanish_cond2,001,1072,
images/bat.jpg,hand,x,sounds/greatgatsby_spanish.wav,,,,,,,,,0,0,0,0,0,163,163,185,447.987975579,9.30088572204e-06,448.873829854,0.885863896925,,,,,x,1,0.867136755958,2018_Dec_06_1104,59.9889948757,spanish_cond2,001,1072,
images/sunglasses03a.jpg,sun glasses,z,sounds/greatgatsby_spanish.wav,,,,,,,,,0,0,0,0,0,164,164,17,449.98294445,9.94233414531e-06,450.940992076,0.958057888551,,,,,z,1,0.933798334096,2018_Dec_06_1104,59.9889948757,spanish_cond2,001,1072,
images/binder03b.jpg,dj mixer,x,sounds/greatgatsby_spanish.wav,,,,,,,,,0,0,0,0,0,165,165,167,452.053895653,9.621726349e-06,453.324914336,1.2710292663,,,,,x,1,1.25055356207,2018_Dec_06_1104,59.9889948757,spanish_cond2,001,1072,
images/lip.jpg,boxing glove,x,sounds/greatgatsby_spanish.wav,,,,,,,,,0,0,0,0,0,166,166,136,454.43008857,8.98004509509e-06,455.292081625,0.862003317336,,,,,x,1,0.850478577893,2018_Dec_06_1104,59.9889948757,spanish_cond2,001,1072,
images/worldmap.jpg,scooter,x,sounds/greatgatsby_spanish.wav,,,,,,,,,0,0,0,0,0,167,167,220,456.422705604,9.30088572204e-06,457.475957893,1.05326383538,,,,,x,1,1.03385676933,2018_Dec_06_1104,59.9889948757,spanish_cond2,001,1072,
images/butterfly.jpg,butterfly,z,sounds/greatgatsby_spanish.wav,,,,,,,,,0,0,0,0,0,168,168,91,458.584484931,8.98004509509e-06,460.076678935,1.49220426753,,,,,z,1,1.46737511503,2018_Dec_06_1104,59.9889948757,spanish_cond2,001,1072,
images/barrel01.jpg,barrel,z,sounds/greatgatsby_spanish.wav,,,,,,,,,0,0,0,0,0,169,169,9,461.206773727,8.98027792573e-06,462.227111522,1.02034773701,,,,,z,1,1.00050128484,2018_Dec_06_1104,59.9889948757,spanish_cond2,001,1072,
images/computermouse02a.jpg,world map,x,sounds/greatgatsby_spanish.wav,,,,,,,,,0,0,0,0,0,170,170,239,463.328924935,9.30088572204e-06,464.294308702,0.965394350467,,,,,x,1,0.950505261775,2018_Dec_06_1104,59.9889948757,spanish_cond2,001,1072,
images/axe01.jpg,axe,z,sounds/greatgatsby_spanish.wav,,,,,,,,,0,0,0,0,0,171,171,104,465.399162216,8.98027792573e-06,466.378167908,0.979015955236,,,,,z,1,0.96718396619,2018_Dec_06_1104,59.9889948757,spanish_cond2,001,1072,
images/ruler02b.jpg,watermelon,x,sounds/greatgatsby_spanish.wav,,,,,,,,,0,0,0,0,0,172,172,238,467.480530073,9.30088572204e-06,468.878747128,1.39822699758,,,,,x,1,1.3838677376,2018_Dec_06_1104,59.9889948757,spanish_cond2,001,1072,
images/snowman.jpg,globe,x,sounds/greatgatsby_spanish.wav,,,,,,,,,0,0,0,0,0,173,173,180,469.990483928,8.98027792573e-06,471.379366438,1.38889245247,,,,,z,0,1.36724932888,2018_Dec_06_1104,59.9889948757,spanish_cond2,001,1072,
images/cauliflower01.jpg,glue stick,x,sounds/greatgatsby_spanish.wav,,,,,,,,,0,0,0,0,0,174,174,181,472.495878753,8.98004509509e-06,473.529910314,1.03404150368,,,,,x,1,1.01718479977,2018_Dec_06_1104,59.9889948757,spanish_cond2,001,1072,
images/fryingpan01.jpg,frying pan,z,sounds/greatgatsby_spanish.wav,,,,,,,,,0,0,0,0,0,175,175,45,474.630727893,9.30088572204e-06,475.78046548,1.14974849159,,,,,z,1,1.13386966195,2018_Dec_06_1104,59.9889948757,spanish_cond2,001,1072,
images/shotglass.jpg,shot glass,z,sounds/greatgatsby_spanish.wav,,,,,,,,,0,0,0,0,0,176,176,86,476.889230491,9.3006528914e-06,477.930996207,1.0417759784,,,,,z,1,1.01717838552,2018_Dec_06_1104,59.9889948757,spanish_cond2,001,1072,
images/straw.jpg,straw,z,sounds/greatgatsby_spanish.wav,,,,,,,,,0,0,0,0,0,177,177,109,479.022840049,9.30088572204e-06,480.264893899,1.24206347158,,,,,z,1,1.23389345943,2018_Dec_06_1104,59.9889948757,spanish_cond2,001,1072,
images/fireextinguisher02.jpg,fire extinguisher,x,sounds/greatgatsby_spanish.wav,,,,,,,,,0,0,0,0,0,178,178,175,481.375736853,8.98027792573e-06,482.182041432,0.806314521004,,,,,z,0,0.783775947755,2018_Dec_06_1104,59.9889948757,spanish_cond2,001,1072,
images/stapler03a.jpg,candy cane,x,sounds/greatgatsby_spanish.wav,,,,,,,,,0,0,0,0,0,179,179,145,483.292762512,8.98004509509e-06,485.516207247,2.22345499718,,,,,z,0,2.20081700129,2018_Dec_06_1104,59.9889948757,spanish_cond2,001,1072,
images/cocktailshrimp01.jpg,cocktail shrimp,z,sounds/greatgatsby_spanish.wav,,,,,,,,,0,0,0,0,0,180,180,30,486.630920966,8.98027792573e-06,487.833433612,1.20252290904,,,,,z,1,1.18387306179,2018_Dec_06_1104,59.9889948757,spanish_cond2,001,1072,
images/bench02.jpg,electric toothbrush,x,sounds/greatgatsby_spanish.wav,,,,,,,,,0,0,0,0,0,181,181,172,488.942668798,8.98027792573e-06,490.017316616,1.07465743949,,,,,x,1,1.05049538356,2018_Dec_06_1104,59.9889948757,spanish_cond2,001,1072,
images/hammer02a.jpg,flower,x,sounds/greatgatsby_spanish.wav,,,,,,,,,0,0,0,0,0,182,182,176,491.113024489,9.621726349e-06,492.03445876,0.921444213483,,,,,x,1,0.90046273428,2018_Dec_06_1104,59.9889948757,spanish_cond2,001,1072,
images/electrictoothbrush01a.jpg,banjo,x,sounds/greatgatsby_spanish.wav,,,,,,,,,0,0,0,0,0,183,183,127,493.129219548,8.98004509509e-06,494.21833567,1.08912606467,,,,,x,1,1.06718178513,2018_Dec_06_1104,59.9889948757,spanish_cond2,001,1072,
images/50dollarbill.jpg,cherry,x,sounds/greatgatsby_spanish.wav,,,,,,,,,0,0,0,0,0,184,184,151,495.340431394,9.621726349e-06,496.418903793,1.07848266256,,,,,x,1,1.06720583932,2018_Dec_06_1104,59.9889948757,spanish_cond2,001,1072,
images/tent.jpg,tent,z,sounds/greatgatsby_spanish.wav,,,,,,,,,0,0,0,0,0,185,185,11,497.545524229,9.30088572204e-06,498.469381216,0.923866608879,,,,,z,1,0.90047844965,2018_Dec_06_1104,59.9889948757,spanish_cond2,001,1072,
images/beermug01b.jpg,beer mug,z,sounds/greatgatsby_spanish.wav,,,,,,,,,0,0,0,0,0,186,186,111,499.586266528,9.30088572204e-06,500.553238178,0.966981271282,,,,,z,1,0.95047318982,2018_Dec_06_1104,59.9889948757,spanish_cond2,001,1072,
images/mattress.jpg,cat,x,sounds/greatgatsby_spanish.wav,,,,,,,,,0,0,0,0,0,187,187,147,501.657642364,9.30088572204e-06,502.803792702,1.14616028033,,,,,x,1,1.13387415209,2018_Dec_06_1104,59.9889948757,spanish_cond2,001,1072,
images/candle08a.jpg,screw driver,x,sounds/greatgatsby_spanish.wav,,,,,,,,,0,0,0,0,0,188,188,221,503.917541055,8.98027792573e-06,504.920966983,1.00343522802,,,,,x,1,0.98382482538,2018_Dec_06_1104,59.9889948757,spanish_cond2,001,1072,
images/leek.jpg,donut,x,sounds/greatgatsby_spanish.wav,,,,,,,,,0,0,0,0,0,189,189,169,506.022446526,9.30088572204e-06,507.504952874,1.48251628946,,,,,x,1,1.46729365224,2018_Dec_06_1104,59.9889948757,spanish_cond2,001,1072,
images/lock02a.jpg,lock,z,sounds/greatgatsby_spanish.wav,,,,,,,,,0,0,0,0,0,190,190,65,508.616286849,9.30088572204e-06,509.905537481,1.28926089522,,,,,z,1,1.26723964303,2018_Dec_06_1104,59.9889948757,spanish_cond2,001,1072,
images/beachumbrella01.jpg,beach umbrella,z,sounds/greatgatsby_spanish.wav,,,,,,,,,0,0,0,0,0,191,191,92,511.011188305,8.98004509509e-06,512.272807336,1.26162865269,,,,,x,0,1.25055805221,2018_Dec_06_1104,59.9889948757,spanish_cond2,001,1072,
images/hairdryer03a.jpg,hairdryer,z,sounds/greatgatsby_spanish.wav,,,,,,,,,0,0,0,0,0,192,192,119,513.372614006,9.30088572204e-06,514.489998999,1.11739493557,,,,,z,1,1.10051193275,2018_Dec_06_1104,59.9889948757,spanish_cond2,001,1072,
images/bandaid01.jpg,door handle,x,sounds/greatgatsby_spanish.wav,,,,,,,,,0,0,0,0,0,193,193,170,515.597169713,9.62149351835e-06,516.640530047,1.04337091721,,,,,x,1,1.0338346397,2018_Dec_06_1104,59.9889948757,spanish_cond2,001,1072,
images/razor04a.jpg,razor,z,sounds/greatgatsby_spanish.wav,,,,,,,,,0,0,0,0,0,194,194,36,517.740774499,9.30088572204e-06,518.857756669,1.11699243239,,,,,z,1,1.10052379942,2018_Dec_06_1104,59.9889948757,spanish_cond2,001,1072,
images/fork01.jpg,cooking pot,x,sounds/greatgatsby_spanish.wav,,,,,,,,,0,0,0,0,0,195,195,160,519.951859019,9.62149351835e-06,520.741618313,0.789769235766,,,,,x,1,0.767171971267,2018_Dec_06_1104,59.9889948757,spanish_cond2,001,1072,
images/umbrella01.jpg,umbrella,z,sounds/greatgatsby_spanish.wav,,,,,,,,,0,0,0,0,0,196,196,53,521.854403224,8.98027792573e-06,523.05877861,1.20438596932,,,,,z,1,1.18387530674,2018_Dec_06_1104,59.9889948757,spanish_cond2,001,1072,
images/parkbench03.jpg,park bench,z,sounds/greatgatsby_spanish.wav,,,,,,,,,0,0,0,0,0,197,197,71,524.16502052,9.30088572204e-06,525.542726912,1.377716335,,,,,z,1,1.36725221528,2018_Dec_06_1104,59.9889948757,spanish_cond2,001,1072,
images/drink.jpg,drink,z,sounds/greatgatsby_spanish.wav,,,,,,,,,0,0,0,0,0,198,198,117,526.643260654,8.98004509509e-06,527.59323737,0.949986978667,,,,,z,1,0.933817577083,2018_Dec_06_1104,59.9889948757,spanish_cond2,001,1072,
images/pepper05a.jpg,lighter,x,sounds/greatgatsby_spanish.wav,,,,,,,,,0,0,0,0,0,199,199,198,528.714724046,9.30088572204e-06,529.593726467,0.879012363264,,,,,x,1,0.867137076799,2018_Dec_06_1104,59.9889948757,spanish_cond2,001,1072,
images/bottleofredwine02.jpg,pipe,x,sounds/greatgatsby_spanish.wav,,,,,,,,,0,0,0,0,0,200,200,213,530.692443332,9.621726349e-06,532.244403763,1.55197101482,,,,,x,1,1.53397768037,2018_Dec_06_1104,59.9889948757,spanish_cond2,001,1072,
images/cockroach02.jpg,belt,x,sounds/greatgatsby_spanish.wav,,,,,,,,,0,0,0,0,0,201,201,129,533.343617423,9.62149351835e-06,534.328223521,0.984616361558,,,,,x,1,0.967151894001,2018_Dec_06_1104,59.9889948757,spanish_cond2,001,1072,
images/bowtie.jpg,bowtie,z,sounds/greatgatsby_spanish.wav,,,,,,,,,0,0,0,0,0,202,202,89,535.438687705,9.3006528914e-06,536.395417814,0.956740051508,,,,,z,1,0.933830726659,2018_Dec_06_1104,59.9889948757,spanish_cond2,001,1072,
images/tissuebox03.jpg,tissue box,z,sounds/greatgatsby_spanish.wav,,,,,,,,,0,0,0,0,0,203,203,58,537.521531193,8.98004509509e-06,538.495927502,0.974405610235,,,,,z,1,0.950492753647,2018_Dec_06_1104,59.9889948757,spanish_cond2,001,1072,
images/spoon02b.jpg,spoon,z,sounds/greatgatsby_spanish.wav,,,,,,,,,0,0,0,0,0,204,204,38,539.587611306,9.30088572204e-06,540.363044373,0.77544333064,,,,,z,1,0.767102375161,2018_Dec_06_1104,59.9889948757,spanish_cond2,001,1072,
images/kiwi03.jpg,backpack,x,sounds/greatgatsby_spanish.wav,,,,,,,,,0,0,0,0,0,205,205,125,541.492050964,9.30088572204e-06,542.21352231,0.721481609158,,,,,x,1,0.7004468909,2018_Dec_06_1104,59.9889948757,spanish_cond2,001,1072,
images/lighter02b.jpg,stapler,x,sounds/greatgatsby_spanish.wav,,,,,,,,,0,0,0,0,0,206,206,227,543.315449578,8.98004509509e-06,544.230676962,0.915236684727,,,,,x,1,0.900456640637,2018_Dec_06_1104,59.9889948757,spanish_cond2,001,1072,
images/flipflop01b.jpg,flip flop,z,sounds/greatgatsby_spanish.wav,,,,,,,,,0,0,0,0,0,207,207,27,545.348111988,8.98027792573e-06,546.464565932,1.11646356573,,,,,z,1,1.10053117573,2018_Dec_06_1104,59.9889948757,spanish_cond2,001,1072,
images/ear.jpg,bullet,x,sounds/greatgatsby_spanish.wav,,,,,,,,,0,0,0,0,0,208,208,139,547.647983572,8.98027792573e-06,549.03188306,1.38390943129,,,,,x,1,1.36728107999,2018_Dec_06_1104,59.9889948757,spanish_cond2,001,1072,
images/handbag02a.jpg,candle,x,sounds/greatgatsby_spanish.wav,,,,,,,,,0,0,0,0,0,209,209,144,550.14802751,9.30088572204e-06,551.032346821,0.884329253342,,,,,x,1,0.867132266052,2018_Dec_06_1104,59.9889948757,spanish_cond2,001,1072,
images/cherry01.jpg,highlighter,x,sounds/greatgatsby_spanish.wav,,,,,,,,,0,0,0,0,0,210,210,187,552.141809398,9.30088572204e-06,553.032836239,0.891037104651,,,,,x,1,0.86713258666,2018_Dec_06_1104,59.9889948757,spanish_cond2,001,1072,
images/crocodile.jpg,triangle ruler,x,sounds/greatgatsby_spanish.wav,,,,,,,,,0,0,0,0,0,211,211,235,554.131027124,8.65943729877e-06,555.100022515,0.969004691346,,,,,x,1,0.95046966197,2018_Dec_06_1104,59.9889948757,spanish_cond2,001,1072,
images/backpack01b.jpg,swallow,x,sounds/greatgatsby_spanish.wav,,,,,,,,,0,0,0,0,0,212,212,228,556.2324762,9.30088572204e-06,557.583975307,1.35150969145,,,,,x,1,1.33390827663,2018_Dec_06_1104,59.9889948757,spanish_cond2,001,1072,
images/belt02a.jpg,snowman,x,sounds/greatgatsby_spanish.wav,,,,,,,,,0,0,0,0,0,213,213,224,558.687779748,9.30088572204e-06,559.584468895,0.896699409932,,,,,x,1,0.883687493391,2018_Dec_06_1104,59.9889948757,spanish_cond2,001,1072,
images/apricot.jpg,apricot,z,sounds/greatgatsby_spanish.wav,,,,,,,,,0,0,0,0,0,214,214,32,560.703013289,9.30088572204e-06,562.468517198,1.76551352977,,,,,z,1,1.75070077227,2018_Dec_06_1104,59.9889948757,spanish_cond2,001,1072,
,,,sounds/greatgatsby_spanish.wav,,,,,,,,,0,0,0,0,,,,,,,,,,,,,,,,2018_Dec_06_1104,59.9889948757,spanish_cond2,001,1072,
images/bowlingball.jpg,bowling ball,z,sounds/animalfarm_english.wav,,,,,,,,,0,1,1,1,0,0,0,20,583.625678803,9.30088572204e-06,585.274152114,1.6484854978,,,,573.471390204,z,1,1.63401591033,2018_Dec_06_1104,59.9889948757,spanish_cond2,001,1072,
images/bullet (2).jpg,rubber glove,x,sounds/animalfarm_english.wav,,,,,,,,,0,1,1,1,0,1,1,217,586.375993429,9.30088572204e-06,587.80808778,1.43210429279,,,,,x,1,1.41725529428,2018_Dec_06_1104,59.9889948757,spanish_cond2,001,1072,
images/pen03c.jpg,pepper,x,sounds/animalfarm_english.wav,,,,,,,,,0,1,1,1,0,2,2,211,588.899409812,9.30088572204e-06,589.858582843,0.959182973253,,,,,x,1,0.950482169865,2018_Dec_06_1104,59.9889948757,spanish_cond2,001,1072,
images/comb02a.jpg,diploma,x,sounds/animalfarm_english.wav,,,,,,,,,0,1,1,1,0,3,3,166,590.960333715,9.62149351835e-06,591.99245924,1.03213578765,,,,,x,1,1.01718159276,2018_Dec_06_1104,59.9889948757,spanish_cond2,001,1072,
images/ear.jpg,bullet,x,sounds/animalfarm_english.wav,,,,,,,,,0,1,1,1,0,4,4,139,593.093541412,9.62149351835e-06,593.992962449,0.899431620492,,,,,x,1,0.883823799202,2018_Dec_06_1104,59.9889948757,spanish_cond2,001,1072,
images/arrow02.jpg,hammer,x,sounds/animalfarm_english.wav,,,,,,,,,0,1,1,1,0,5,5,184,595.088698225,9.30088572204e-06,596.393540001,1.30485139787,,,,,x,1,1.28391193296,2018_Dec_06_1104,59.9889948757,spanish_cond2,001,1072,
images/medal01.jpg,medal,z,sounds/animalfarm_english.wav,,,,,,,,,0,1,1,1,0,6,6,115,597.492220945,9.621726349e-06,598.344016398,0.851805715822,,,,,z,1,0.833796345629,2018_Dec_06_1104,59.9889948757,spanish_cond2,001,1072,
images/tulip02.jpg,sport shorts,x,sounds/animalfarm_english.wav,,,,,,,,,0,1,1,1,0,7,7,225,599.436708544,9.30088572204e-06,600.51122198,1.07452337863,,,,,x,1,1.05052039982,2018_Dec_06_1104,59.9889948757,spanish_cond2,001,1072,
images/parkbench03.jpg,park bench,z,sounds/animalfarm_english.wav,,,,,,,,,0,1,1,1,0,8,8,71,601.614132896,8.98027792573e-06,602.9284885,1.31436490454,,,,,z,1,1.30058358144,2018_Dec_06_1104,59.9889948757,spanish_cond2,001,1072,
images/acousticguitar02.jpg,acoustic guitar,z,sounds/animalfarm_english.wav,,,,,,,,,0,1,1,1,0,9,9,97,604.040859041,8.98004509509e-06,604.778935005,0.738085585879,,,,,z,1,0.717093523126,2018_Dec_06_1104,59.9889948757,spanish_cond2,001,1072,
images/shotglass.jpg,shot glass,z,sounds/animalfarm_english.wav,,,,,,,,,0,1,1,1,0,10,10,86,605.884801032,9.30088572204e-06,607.079534944,1.19474385399,,,,,z,1,1.18388492824,2018_Dec_06_1104,59.9889948757,spanish_cond2,001,1072,
images/screw03c.jpg,screw,z,sounds/animalfarm_english.wav,,,,,,,,,0,1,1,1,0,11,11,84,608.171285136,9.621726349e-06,609.546781129,1.37550593517,,,,,z,1,1.36726183677,2018_Dec_06_1104,59.9889948757,spanish_cond2,001,1072,
images/marker01a.jpg,marker,z,sounds/animalfarm_english.wav,,,,,,,,,0,1,1,1,0,12,12,95,610.642570786,9.621726349e-06,611.780850985,1.13829014101,,,,,z,1,1.11738242744,2018_Dec_06_1104,59.9889948757,spanish_cond2,001,1072,
images/nailpolish02b.jpg,nail polish,z,sounds/animalfarm_english.wav,,,,,,,,,0,1,1,1,0,13,13,94,612.887545109,9.30088572204e-06,614.081229947,1.19369510072,,,,,z,1,1.18387466529,2018_Dec_06_1104,59.9889948757,spanish_cond2,001,1072,
images/hammer02a.jpg,flower,x,sounds/animalfarm_english.wav,,,,,,,,,0,1,1,1,0,14,14,176,615.173943261,8.98027792573e-06,615.915024368,0.741090729134,,,,,x,1,0.717098975321,2018_Dec_06_1104,59.9889948757,spanish_cond2,001,1072,
images/croissant02b.jpg,croissant,z,sounds/animalfarm_english.wav,,,,,,,,,0,1,1,1,0,15,15,39,617.023925365,9.30088572204e-06,617.83214945,0.80823402782,,,,,z,1,0.783775627147,2018_Dec_06_1104,59.9889948757,spanish_cond2,001,1072,
images/knife04.jpg,tooth brush,x,sounds/animalfarm_english.wav,,,,,,,,,0,1,1,1,0,16,16,233,618.92751704,9.30088572204e-06,619.665940023,0.738432604587,,,,,x,1,0.717095768312,2018_Dec_06_1104,59.9889948757,spanish_cond2,001,1072,
images/bench02.jpg,electric toothbrush,x,sounds/animalfarm_english.wav,,,,,,,,,0,1,1,1,0,17,17,172,620.772728439,9.30088572204e-06,621.88315574,1.11043724371,,,,,x,1,1.10052604438,2018_Dec_06_1104,59.9889948757,spanish_cond2,001,1072,
images/gamecontroller01.jpg,game controller,z,sounds/animalfarm_english.wav,,,,,,,,,0,1,1,1,0,18,18,112,623.00136819,9.30088572204e-06,623.78362072,0.78226215113,,,,,z,1,0.767103658058,2018_Dec_06_1104,59.9889948757,spanish_cond2,001,1072,
images/ant.jpg,ant,z,sounds/animalfarm_english.wav,,,,,,,,,0,1,1,1,0,19,19,98,624.875916136,9.3006528914e-06,625.634086148,0.758179954486,,,,,z,1,0.733754266985,2018_Dec_06_1104,59.9889948757,spanish_cond2,001,1072,
images/djmixer01.jpg,light bulb,x,sounds/animalfarm_english.wav,,,,,,,,,0,1,1,1,0,20,20,196,626.753608417,9.30088572204e-06,627.851293206,1.09769537277,,,,,x,1,1.08385888604,2018_Dec_06_1104,59.9889948757,spanish_cond2,001,1072,
images/atm.jpg,atm,z,sounds/animalfarm_english.wav,,,,,,,,,0,1,1,1,0,21,21,96,628.988529462,9.3006528914e-06,629.735085895,0.746566375485,,,,,z,1,0.733765171608,2018_Dec_06_1104,59.9889948757,spanish_cond2,001,1072,
images/apple06.jpg,apple,z,sounds/animalfarm_english.wav,,,,,,,,,0,1,1,1,0,22,22,13,630.859942052,9.30088572204e-06,631.418840291,0.558908822015,,,,,z,1,0.550392432604,2018_Dec_06_1104,59.9889948757,spanish_cond2,001,1072,
images/ashtray02b.jpg,ashtray,z,sounds/animalfarm_english.wav,,,,,,,,,0,1,1,1,0,23,23,43,632.53292123,9.30088572204e-06,633.48602849,0.953117202502,,,,,x,0,0.933824312408,2018_Dec_06_1104,59.9889948757,spanish_cond2,001,1072,
images/cocktailshrimp01.jpg,cocktail shrimp,z,sounds/animalfarm_english.wav,,,,,,,,,0,1,1,1,0,24,24,30,634.598630912,9.30088572204e-06,635.269790006,0.671169356676,,,,,z,1,0.6504168713,2018_Dec_06_1104,59.9889948757,spanish_cond2,001,1072,
images/coin01b.jpg,arrow,x,sounds/animalfarm_english.wav,,,,,,,,,0,1,1,1,0,25,25,124,636.370800337,9.621726349e-06,637.153855948,0.783065233147,,,,,x,1,0.767377552576,2018_Dec_06_1104,59.9889948757,spanish_cond2,001,1072,
images/beermug01b.jpg,beer mug,z,sounds/animalfarm_english.wav,,,,,,,,,0,1,1,1,0,26,26,111,638.268185766,9.30088572204e-06,638.937364416,0.669188592117,,,,,z,1,0.650413664058,2018_Dec_06_1104,59.9889948757,spanish_cond2,001,1072,
images/lighter02b.jpg,stapler,x,sounds/animalfarm_english.wav,,,,,,,,,0,1,1,1,0,27,27,227,640.03658481,9.621726349e-06,641.47132606,1.43475119211,,,,,x,1,1.41726363287,2018_Dec_06_1104,59.9889948757,spanish_cond2,001,1072,
images/table02.jpg,table,z,sounds/animalfarm_english.wav,,,,,,,,,0,1,1,1,0,28,28,49,642.585663575,8.98027792573e-06,643.355119712,0.769465758232,,,,,z,1,0.750439385884,2018_Dec_06_1104,59.9889948757,spanish_cond2,001,1072,
images/grandpiano.jpg,tulip,x,sounds/animalfarm_english.wav,,,,,,,,,0,1,1,1,0,29,29,236,644.467244582,8.98004509509e-06,645.372288155,0.90505351522,,,,,x,1,0.883814498316,2018_Dec_06_1104,59.9889948757,spanish_cond2,001,1072,
images/key03b.jpg,cigar,x,sounds/animalfarm_english.wav,,,,,,,,,0,1,1,1,0,30,30,153,646.471695209,9.621726349e-06,647.522818241,1.05113297421,,,,,x,1,1.03385131713,2018_Dec_06_1104,59.9889948757,spanish_cond2,001,1072,
images/lollipop03b.jpg,lollipop,z,sounds/animalfarm_english.wav,,,,,,,,,0,1,1,1,0,31,31,42,648.614359645,8.98004509509e-06,649.456616895,0.842266551452,,,,,z,1,0.833773895167,2018_Dec_06_1104,59.9889948757,spanish_cond2,001,1072,
images/safe.jpg,safe,z,sounds/animalfarm_english.wav,,,,,,,,,0,1,1,1,0,32,32,78,650.5653075,8.65943729877e-06,651.290431843,0.7251342854,,,,,z,1,0.700448494405,2018_Dec_06_1104,59.9889948757,spanish_cond2,001,1072,
images/sock03.jpg,sock,z,sounds/animalfarm_english.wav,,,,,,,,,0,1,1,1,0,33,33,90,652.394295937,9.30088572204e-06,653.457621068,1.06333507365,,,,,z,1,1.05052521056,2018_Dec_06_1104,59.9889948757,spanish_cond2,001,1072,
images/wallet01.jpg,lamp,x,sounds/animalfarm_english.wav,,,,,,,,,0,1,1,1,0,34,34,193,654.560909792,9.30088572204e-06,655.474789832,0.913890303578,,,,,x,1,0.900486146798,2018_Dec_06_1104,59.9889948757,spanish_cond2,001,1072,
images/triangleruler02.jpg,bottle of red wine,x,sounds/animalfarm_english.wav,,,,,,,,,0,1,1,1,0,35,35,134,656.583906673,8.98004509509e-06,657.492016005,0.908124726498,,,,,x,1,0.883813536027,2018_Dec_06_1104,59.9889948757,spanish_cond2,001,1072,
images/corn01.jpg,corn,z,sounds/animalfarm_english.wav,,,,,,,,,0,1,1,1,0,36,36,22,658.589177059,8.98027792573e-06,659.425744422,0.836577305803,,,,,z,1,0.817122451961,2018_Dec_06_1104,59.9889948757,spanish_cond2,001,1072,
images/hat05.jpg,hat,z,sounds/animalfarm_english.wav,,,,,,,,,0,1,1,1,0,37,37,15,660.527447187,8.98027792573e-06,661.192858985,0.665421419311,,,,,z,1,0.650379026541,2018_Dec_06_1104,59.9889948757,spanish_cond2,001,1072,
images/camera01a.jpg,bull,x,sounds/animalfarm_english.wav,,,,,,,,,0,1,1,1,0,38,38,138,662.301564342,8.98027792573e-06,663.210009788,0.908455068013,,,,,x,1,0.883804555982,2018_Dec_06_1104,59.9889948757,spanish_cond2,001,1072,
images/computerkeyboard01a.jpg,computer keyboard,z,sounds/animalfarm_english.wav,,,,,,,,,0,1,1,1,0,39,39,61,664.324857889,8.98004509509e-06,665.210504659,0.88565639127,,,,,z,1,0.86713643535,2018_Dec_06_1104,59.9889948757,spanish_cond2,001,1072,
images/ceilingfan02.jpg,paper clip,x,sounds/animalfarm_english.wav,,,,,,,,,0,1,1,1,0,40,40,208,666.308538391,8.98004509509e-06,667.427720055,1.11919096531,,,,,x,1,1.10052572354,2018_Dec_06_1104,59.9889948757,spanish_cond2,001,1072,
images/bandaid01.jpg,door handle,x,sounds/animalfarm_english.wav,,,,,,,,,0,1,1,1,0,41,41,170,668.532195441,9.62149351835e-06,669.594772975,1.06258843839,,,,,x,1,1.05035875691,2018_Dec_06_1104,59.9889948757,spanish_cond2,001,1072,
images/broom02.jpg,broom,z,sounds/animalfarm_english.wav,,,,,,,,,0,1,1,1,0,42,42,116,670.686292891,9.30088572204e-06,671.478718969,0.79243601975,,,,,z,1,0.783777230652,2018_Dec_06_1104,59.9889948757,spanish_cond2,001,1072,
images/daisy.jpg,daisy,z,sounds/animalfarm_english.wav,,,,,,,,,0,1,1,1,0,43,43,6,672.578513452,9.62149351835e-06,673.362524808,0.784021298401,,,,,z,1,0.767119372962,2018_Dec_06_1104,59.9889948757,spanish_cond2,001,1072,
images/cloud.jpg,ceiling fan,x,sounds/animalfarm_english.wav,,,,,,,,,0,1,1,1,0,44,44,149,674.467188135,9.62149351835e-06,675.8298005,1.36262230645,,,,,x,1,1.35059082974,2018_Dec_06_1104,59.9889948757,spanish_cond2,001,1072,
images/stapler03a.jpg,candy cane,x,sounds/animalfarm_english.wav,,,,,,,,,0,1,1,1,0,45,45,145,676.939176482,8.98004509509e-06,677.913644953,0.974478092743,,,,,x,1,0.950493395096,2018_Dec_06_1104,59.9889948757,spanish_cond2,001,1072,
images/hanger02a.jpg,hanger,z,sounds/animalfarm_english.wav,,,,,,,,,0,1,1,1,0,46,46,88,679.005092707,8.98004509509e-06,679.730967213,0.725883807056,,,,,z,1,0.717309367377,2018_Dec_06_1104,59.9889948757,spanish_cond2,001,1072,
images/nametag01a.jpg,name tag,z,sounds/animalfarm_english.wav,,,,,,,,,0,1,1,1,0,47,47,108,680.850536628,9.30088572204e-06,681.681247971,0.830720965052,,,,,z,1,0.817137205042,2018_Dec_06_1104,59.9889948757,spanish_cond2,001,1072,
images/rubberglove02a.jpg,lady bug,x,sounds/animalfarm_english.wav,,,,,,,,,0,1,1,1,0,48,48,192,682.78375446,8.98027792573e-06,683.71508646,0.931342263008,,,,,x,1,0.917166775558,2018_Dec_06_1104,59.9889948757,spanish_cond2,001,1072,
images/bull.jpg,button,x,sounds/animalfarm_english.wav,,,,,,,,,0,1,1,1,0,49,49,141,684.818897956,9.30088572204e-06,685.632205768,0.813318075612,,,,,x,1,0.800445030443,2018_Dec_06_1104,59.9889948757,spanish_cond2,001,1072,
images/snowman.jpg,globe,x,sounds/animalfarm_english.wav,,,,,,,,,0,1,1,1,0,50,50,180,686.741656478,9.30088572204e-06,687.716067541,0.974421004765,,,,,x,1,0.950499488739,2018_Dec_06_1104,59.9889948757,spanish_cond2,001,1072,
images/saltshaker03c.jpg,salt shaker,z,sounds/animalfarm_english.wav,,,,,,,,,0,1,1,1,0,51,51,63,688.825282843,8.98027792573e-06,689.566529762,0.741256861947,,,,,z,1,0.717115011299,2018_Dec_06_1104,59.9889948757,spanish_cond2,001,1072,
images/highheelshoe02a.jpg,high heel shoe,z,sounds/animalfarm_english.wav,,,,,,,,,0,1,1,1,0,52,52,75,690.67224922,8.98004509509e-06,691.683720399,1.01148112165,,,,,z,1,1.00051058573,2018_Dec_06_1104,59.9889948757,spanish_cond2,001,1072,
images/8ball.jpg,nail clipper,x,sounds/animalfarm_english.wav,,,,,,,,,0,1,1,1,0,53,53,206,692.798932517,8.98027792573e-06,693.700867675,0.901944779791,,,,,x,1,0.883806800935,2018_Dec_06_1104,59.9889948757,spanish_cond2,001,1072,
images/giraffe.jpg,lettuce,x,sounds/animalfarm_english.wav,,,,,,,,,0,1,1,1,0,54,54,195,694.799631365,9.30088572204e-06,695.951435669,1.15181424702,,,,,x,1,1.13387896307,2018_Dec_06_1104,59.9889948757,spanish_cond2,001,1072,
images/notebook02b.jpg,notebook,z,sounds/animalfarm_english.wav,,,,,,,,,0,1,1,1,0,55,55,7,697.055935109,9.62149351835e-06,697.70185934,0.645933852298,,,,,z,1,0.633748109452,2018_Dec_06_1104,59.9889948757,spanish_cond2,001,1072,
images/cookingpot.jpg,grasshopper,x,sounds/animalfarm_english.wav,,,,,,,,,0,1,1,1,0,56,56,183,698.81393482,8.98027792573e-06,699.952427335,1.13850277802,,,,,x,1,1.11718999571,2018_Dec_06_1104,59.9889948757,spanish_cond2,001,1072,
images/swallow.jpg,mattress,x,sounds/animalfarm_english.wav,,,,,,,,,0,1,1,1,0,57,57,202,701.052616303,9.62149351835e-06,702.303009826,1.25040378585,,,,,x,1,1.23388896952,2018_Dec_06_1104,59.9889948757,spanish_cond2,001,1072,
images/toucan.jpg,toucan,z,sounds/animalfarm_english.wav,,,,,,,,,0,1,1,1,0,58,58,81,703.40169975,9.30088572204e-06,704.670245363,1.26855523512,,,,,x,0,1.25055741053,2018_Dec_06_1104,59.9889948757,spanish_cond2,001,1072,
images/tape01a.jpg,tie,x,sounds/animalfarm_english.wav,,,,,,,,,0,1,1,1,0,59,59,232,705.795476763,9.30088572204e-06,706.804114063,1.00864756387,,,,,x,1,0.983846955234,2018_Dec_06_1104,59.9889948757,spanish_cond2,001,1072,
images/axe01.jpg,axe,z,sounds/animalfarm_english.wav,,,,,,,,,0,1,1,1,0,60,60,104,707.90653973,9.30088572204e-06,708.587878465,0.681348677259,,,,,z,1,0.667087557958,2018_Dec_06_1104,59.9889948757,spanish_cond2,001,1072,
images/printer03a.jpg,printer,z,sounds/animalfarm_english.wav,,,,,,,,,0,1,1,1,0,61,61,72,709.695211463,8.98027792573e-06,710.438349987,0.743148145732,,,,,z,1,0.733785376884,2018_Dec_06_1104,59.9889948757,spanish_cond2,001,1072,
images/boxingglove02a.jpg,bracelet,x,sounds/animalfarm_english.wav,,,,,,,,,0,1,1,1,0,62,62,135,711.54795368,8.98027792573e-06,712.63889566,1.09095192165,,,,,x,1,1.0672032733,2018_Dec_06_1104,59.9889948757,spanish_cond2,001,1072,
images/clothespin02a.jpg,clothes pin,z,sounds/animalfarm_english.wav,,,,,,,,,0,1,1,1,0,63,63,79,713.74319465,9.621726349e-06,715.006145309,1.26296092221,,,,,x,0,1.25057954038,2018_Dec_06_1104,59.9889948757,spanish_cond2,001,1072,
images/seagull.jpg,seagull,z,sounds/animalfarm_english.wav,,,,,,,,,0,1,1,1,0,64,64,50,716.111756363,8.98004509509e-06,716.806583605,0.694836862618,,,,,z,1,0.683767865645,2018_Dec_06_1104,59.9889948757,spanish_cond2,001,1072,
images/cigar.jpg,crocodile,x,sounds/animalfarm_english.wav,,,,,,,,,0,1,1,1,0,65,65,162,717.904653899,9.30088572204e-06,718.740372958,0.835729002254,,,,,x,1,0.817111226963,2018_Dec_06_1104,59.9889948757,spanish_cond2,001,1072,
images/tissuebox03.jpg,tissue box,z,sounds/animalfarm_english.wav,,,,,,,,,0,1,1,1,0,66,66,58,719.863436293,9.62149351835e-06,720.657524981,0.794098950922,,,,,z,1,0.783780117054,2018_Dec_06_1104,59.9889948757,spanish_cond2,001,1072,
images/tank.jpg,wallet,x,sounds/animalfarm_english.wav,,,,,,,,,0,1,1,1,0,67,67,237,721.760386506,9.30088572204e-06,722.941427613,1.18105104961,,,,,x,1,1.16722578788,2018_Dec_06_1104,59.9889948757,spanish_cond2,001,1072,
images/volleyball.jpg,volley ball,z,sounds/animalfarm_english.wav,,,,,,,,,0,1,1,1,0,68,68,2,724.071745947,8.98004509509e-06,724.958586435,0.886850430397,,,,,z,1,0.867140284041,2018_Dec_06_1104,59.9889948757,spanish_cond2,001,1072,
images/squirrel.jpg,binder,x,sounds/animalfarm_english.wav,,,,,,,,,0,1,1,1,0,69,69,132,726.059568542,9.30088572204e-06,727.175789965,1.11623136466,,,,,x,1,1.10051193275,2018_Dec_06_1104,59.9889948757,spanish_cond2,001,1072,
images/pineapple01a.jpg,pineapple,z,sounds/animalfarm_english.wav,,,,,,,,,0,1,1,1,0,70,70,51,728.286949469,8.98004509509e-06,728.95958259,0.672642742749,,,,,z,1,0.650427134475,2018_Dec_06_1104,59.9889948757,spanish_cond2,001,1072,
images/worldmap.jpg,scooter,x,sounds/animalfarm_english.wav,,,,,,,,,0,1,1,1,0,71,71,220,730.08890573,9.30088572204e-06,730.910039423,0.821143314242,,,,,x,1,0.800439578481,2018_Dec_06_1104,59.9889948757,spanish_cond2,001,1072,
images/mitten01.jpg,mitten,z,sounds/animalfarm_english.wav,,,,,,,,,0,1,1,1,0,72,72,102,732.028583817,8.65943729877e-06,732.710542504,0.681968949037,,,,,z,1,0.667138872901,2018_Dec_06_1104,59.9889948757,spanish_cond2,001,1072,
images/apricot.jpg,apricot,z,sounds/animalfarm_english.wav,,,,,,,,,0,1,1,1,0,73,73,32,733.825770657,8.98027792573e-06,734.477600619,0.651839583647,,,,,z,1,0.633749392349,2018_Dec_06_1104,59.9889948757,spanish_cond2,001,1072,
images/baseball01a.jpg,baseball,z,sounds/animalfarm_english.wav,,,,,,,,,0,1,1,1,0,74,74,74,735.609543077,9.30088572204e-06,736.211351359,0.601818223717,,,,,z,1,0.583701412426,2018_Dec_06_1104,59.9889948757,spanish_cond2,001,1072,
images/cheetah.jpg,cheetah,z,sounds/animalfarm_english.wav,,,,,,,,,0,1,1,1,0,75,75,82,737.311885742,8.98004509509e-06,738.178496518,0.866620718269,,,,,z,1,0.850438808557,2018_Dec_06_1104,59.9889948757,spanish_cond2,001,1072,
images/banjo.jpg,knife,x,sounds/animalfarm_english.wav,,,,,,,,,0,1,1,1,0,76,76,191,739.273562631,8.65943729877e-06,739.978947,0.7053939912,,,,,x,1,0.683756319806,2018_Dec_06_1104,59.9889948757,spanish_cond2,001,1072,
images/dolphin01.jpg,dolphin,z,sounds/animalfarm_english.wav,,,,,,,,,0,1,1,1,0,77,77,99,741.077034934,9.621726349e-06,741.929429491,0.852404820034,,,,,z,1,0.833786724135,2018_Dec_06_1104,59.9889948757,spanish_cond2,001,1072,
images/umbrella01.jpg,umbrella,z,sounds/animalfarm_english.wav,,,,,,,,,0,1,1,1,0,78,78,53,743.040894,9.30088572204e-06,743.829917883,0.789033825742,,,,,z,1,0.767131881323,2018_Dec_06_1104,59.9889948757,spanish_cond2,001,1072,
images/mattress.jpg,cat,x,sounds/animalfarm_english.wav,,,,,,,,,0,1,1,1,0,79,79,147,744.932073183,9.30088572204e-06,745.663678949,0.731615708675,,,,,x,1,0.717060168507,2018_Dec_06_1104,59.9889948757,spanish_cond2,001,1072,
images/envelope02a.jpg,grand piano,x,sounds/animalfarm_english.wav,,,,,,,,,0,1,1,1,0,80,80,182,746.78461463,1.05837825686e-05,747.597491074,0.812886066269,,,,,x,1,0.80043669208,2018_Dec_06_1104,59.9889948757,spanish_cond2,001,1072,
images/carrot02.jpg,corkscrew,x,sounds/animalfarm_english.wav,,,,,,,,,0,1,1,1,0,81,81,161,748.697715322,8.98027792573e-06,750.014761122,1.31705574249,,,,,x,1,1.3005832606,2018_Dec_06_1104,59.9889948757,spanish_cond2,001,1072,
images/lightbulb03b.jpg,treadmill,x,sounds/animalfarm_english.wav,,,,,,,,,0,1,1,1,0,82,82,234,751.115375043,8.98004509509e-06,752.298653811,1.18328838982,,,,,x,1,1.16721071419,2018_Dec_06_1104,59.9889948757,spanish_cond2,001,1072,
images/fork01.jpg,cooking pot,x,sounds/animalfarm_english.wav,,,,,,,,,0,1,1,1,0,83,83,160,753.390912345,8.98004509509e-06,754.465881844,1.0749791211,,,,,x,1,1.05053868075,2018_Dec_06_1104,59.9889948757,spanish_cond2,001,1072,
images/lettuce.jpg,mushroom,x,sounds/animalfarm_english.wav,,,,,,,,,0,1,1,1,0,84,84,205,755.587355051,9.621726349e-06,756.683084412,1.09573962446,,,,,x,1,1.08387428056,2018_Dec_06_1104,59.9889948757,spanish_cond2,001,1072,
images/bottleofredwine02.jpg,pipe,x,sounds/animalfarm_english.wav,,,,,,,,,0,1,1,1,0,85,85,213,757.779709223,9.621726349e-06,758.700239706,0.920540104853,,,,,x,1,0.900476525305,2018_Dec_06_1104,59.9889948757,spanish_cond2,001,1072,
images/hairdryer03a.jpg,hairdryer,z,sounds/animalfarm_english.wav,,,,,,,,,0,1,1,1,0,86,86,119,759.797835656,9.62149351835e-06,760.85076466,1.05293926736,,,,,z,1,1.03383977106,2018_Dec_06_1104,59.9889948757,spanish_cond2,001,1072,
images/teapot.jpg,light switch,x,sounds/animalfarm_english.wav,,,,,,,,,0,1,1,1,0,87,87,197,761.965626552,3.78449913114e-05,762.934610076,0.968999239383,,,,,x,1,0.950494357385,2018_Dec_06_1104,59.9889948757,spanish_cond2,001,1072,
images/honeycomb.jpg,honey comb,z,sounds/animalfarm_english.wav,,,,,,,,,0,1,1,1,0,88,88,59,764.046436997,9.30088572204e-06,764.901760045,0.855332990177,,,,,z,1,0.833792496938,2018_Dec_06_1104,59.9889948757,spanish_cond2,001,1072,
images/gluestick.jpg,squirrel,x,sounds/animalfarm_english.wav,,,,,,,,,0,1,1,1,0,89,89,226,766.008823318,9.62149351835e-06,767.185685448,1.17687239335,,,,,x,1,1.16722707078,2018_Dec_06_1104,59.9889948757,spanish_cond2,001,1072,
images/egg01b (1).jpg,egg,z,sounds/animalfarm_english.wav,,,,,,,,,0,1,1,1,0,90,90,19,768.296519743,9.62149351835e-06,768.952769863,0.656260062475,,,,,z,1,0.63374843006,2018_Dec_06_1104,59.9889948757,spanish_cond2,001,1072,
images/beachumbrella01.jpg,beach umbrella,z,sounds/animalfarm_english.wav,,,,,,,,,0,1,1,1,0,91,91,92,770.056819013,9.30088572204e-06,770.936625478,0.879816728178,,,,,z,1,0.867172035156,2018_Dec_06_1104,59.9889948757,spanish_cond2,001,1072,
images/kiwi03.jpg,backpack,x,sounds/animalfarm_english.wav,,,,,,,,,0,1,1,1,0,92,92,125,772.063964647,9.30088572204e-06,772.803704184,0.73974947934,,,,,x,1,0.717087429482,2018_Dec_06_1104,59.9889948757,spanish_cond2,001,1072,
images/lily.jpg,kiwi,x,sounds/animalfarm_english.wav,,,,,,,,,0,1,1,1,0,93,93,190,773.901667357,8.98004509509e-06,774.787545045,0.88588730921,,,,,x,1,0.867132266052,2018_Dec_06_1104,59.9889948757,spanish_cond2,001,1072,
images/radish01.jpg,raisin,x,sounds/animalfarm_english.wav,,,,,,,,,0,1,1,1,0,94,94,214,775.896535201,9.30088572204e-06,777.654933887,1.75840862747,,,,,x,1,1.73403778346,2018_Dec_06_1104,59.9889948757,spanish_cond2,001,1072,
images/straw.jpg,straw,z,sounds/animalfarm_english.wav,,,,,,,,,0,1,1,1,0,95,95,109,778.744870731,9.621726349e-06,779.772106243,1.0272457751,,,,,z,1,1.01717004669,2018_Dec_06_1104,59.9889948757,spanish_cond2,001,1072,
images/fryingpan01.jpg,frying pan,z,sounds/animalfarm_english.wav,,,,,,,,,0,1,1,1,0,96,96,45,780.870684557,9.30088572204e-06,781.622549221,0.751874606125,,,,,z,1,0.733764851,2018_Dec_06_1104,59.9889948757,spanish_cond2,001,1072,
images/flipflop01b.jpg,flip flop,z,sounds/animalfarm_english.wav,,,,,,,,,0,1,1,1,0,97,97,27,782.737554795,8.98004509509e-06,783.573047106,0.83550225338,,,,,z,1,0.817140091443,2018_Dec_06_1104,59.9889948757,spanish_cond2,001,1072,
images/globe.jpg,cloud,x,sounds/animalfarm_english.wav,,,,,,,,,0,1,1,1,0,98,98,154,784.699611095,9.30088572204e-06,785.92363537,1.22403453756,,,,,x,1,1.20056299143,2018_Dec_06_1104,59.9889948757,spanish_cond2,001,1072,
images/electrictoothbrush01a.jpg,banjo,x,sounds/animalfarm_english.wav,,,,,,,,,0,1,1,1,0,99,99,127,787.016807954,9.62149351835e-06,788.007483031,0.990685339319,,,,,x,1,0.967176910257,2018_Dec_06_1104,59.9889948757,spanish_cond2,001,1072,
images/plant01.jpg,plant,z,sounds/animalfarm_english.wav,,,,,,,,,0,1,1,1,0,100,100,47,789.117212125,8.98004509509e-06,790.274689319,1.15748713585,,,,,z,1,1.13386645494,2018_Dec_06_1104,59.9889948757,spanish_cond2,001,1072,
images/bracelet02a.jpg,chess knight,x,sounds/animalfarm_english.wav,,,,,,,,,0,1,1,1,0,101,101,152,791.382554391,1.02629419416e-05,794.175672581,2.79312941548,,,,,x,1,2.78428974049,2018_Dec_06_1104,59.9889948757,spanish_cond2,001,1072,
images/grasshopper.jpg,cauliflower,x,sounds/animalfarm_english.wav,,,,,,,,,0,1,1,1,0,102,102,148,795.269562615,9.621726349e-06,796.593073161,1.32352080895,,,,,x,1,1.30072886753,2018_Dec_06_1104,59.9889948757,spanish_cond2,001,1072,
images/puma.jpg,puma,z,sounds/animalfarm_english.wav,,,,,,,,,0,1,1,1,0,103,103,4,797.691189639,9.30088572204e-06,799.1435663,1.45238692407,,,,,z,1,1.43396222172,2018_Dec_06_1104,59.9889948757,spanish_cond2,001,1072,
images/pictureframe04.jpg,picture frame,z,sounds/animalfarm_english.wav,,,,,,,,,0,1,1,1,0,104,104,41,800.266716549,8.98004509509e-06,801.160723838,0.89401691081,,,,,x,0,0.883821233409,2018_Dec_06_1104,59.9889948757,spanish_cond2,001,1072,
images/handbag02a.jpg,candle,x,sounds/animalfarm_english.wav,,,,,,,,,0,1,1,1,0,105,105,144,802.276406452,9.621726349e-06,803.227896644,0.951499813469,,,,,x,1,0.933822067222,2018_Dec_06_1104,59.9889948757,spanish_cond2,001,1072,
images/scooter.jpg,pen,x,sounds/animalfarm_english.wav,,,,,,,,,0,1,1,1,0,106,106,212,804.320271919,8.98004509509e-06,805.211723073,0.891461096006,,,,,z,0,0.867152471328,2018_Dec_06_1104,59.9889948757,spanish_cond2,001,1072,
images/hand01a.jpg,cupcake,x,sounds/animalfarm_english.wav,,,,,,,,,0,1,1,1,0,107,107,163,806.323795666,9.30088572204e-06,807.262223588,0.938437864417,,,,,x,1,0.917161643971,2018_Dec_06_1104,59.9889948757,spanish_cond2,001,1072,
images/headphones02b.jpg,headphones,z,sounds/animalfarm_english.wav,,,,,,,,,0,1,1,1,0,108,108,101,808.369599242,9.94233414531e-06,809.762850915,1.39326257841,,,,,z,1,1.38394759689,2018_Dec_06_1104,59.9889948757,spanish_cond2,001,1072,
images/coffeepot03b.jpg,coffee pot,z,sounds/animalfarm_english.wav,,,,,,,,,0,1,1,1,0,109,109,107,810.884272165,8.98004509509e-06,811.613303515,0.729040971259,,,,,z,1,0.717118539149,2018_Dec_06_1104,59.9889948757,spanish_cond2,001,1072,
images/drink.jpg,drink,z,sounds/animalfarm_english.wav,,,,,,,,,0,1,1,1,0,110,110,117,812.713135201,9.30088572204e-06,813.98056022,1.2674349614,,,,,z,1,1.25058082328,2018_Dec_06_1104,59.9889948757,spanish_cond2,001,1072,
images/parkfountain.jpg,park fountain,z,sounds/animalfarm_english.wav,,,,,,,,,0,1,1,1,0,111,111,93,815.102502319,8.98027792573e-06,816.014368561,0.91187586356,,,,,z,1,0.900473318063,2018_Dec_06_1104,59.9889948757,spanish_cond2,001,1072,
images/raisin.jpg,ruler,x,sounds/animalfarm_english.wav,,,,,,,,,0,1,1,1,0,112,112,218,817.119388208,8.65943729877e-06,818.231591975,1.11221306818,,,,,x,1,1.10053502442,2018_Dec_06_1104,59.9889948757,spanish_cond2,001,1072,
images/barrel01.jpg,barrel,z,sounds/animalfarm_english.wav,,,,,,,,,0,1,1,1,0,113,113,9,819.362031541,9.30088572204e-06,820.498804037,1.13678243803,,,,,z,1,1.11716145161,2018_Dec_06_1104,59.9889948757,spanish_cond2,001,1072,
images/hairband.jpg,hairband,z,sounds/animalfarm_english.wav,,,,,,,,,0,1,1,1,0,114,114,66,821.608075785,9.621726349e-06,822.882735277,1.27466911357,,,,,z,1,1.25057088095,2018_Dec_06_1104,59.9889948757,spanish_cond2,001,1072,
images/bat.jpg,hand,x,sounds/animalfarm_english.wav,,,,,,,,,0,1,1,1,0,115,115,185,823.980466891,8.98027792573e-06,825.199980885,1.21952393674,,,,,x,1,1.20056683989,2018_Dec_06_1104,59.9889948757,spanish_cond2,001,1072,
images/charcoalbarbecue.jpg,charcoal barbecue,z,sounds/animalfarm_english.wav,,,,,,,,,0,1,1,1,0,116,116,77,826.316839257,8.98027792573e-06,827.117106929,0.800277614966,,,,,z,1,0.783780117286,2018_Dec_06_1104,59.9889948757,spanish_cond2,001,1072,
images/doll.jpg,carrot,x,sounds/animalfarm_english.wav,,,,,,,,,0,1,1,1,0,117,117,146,828.228193951,8.98004509509e-06,829.084262672,0.856078663608,,,,,x,1,0.83379185549,2018_Dec_06_1104,59.9889948757,spanish_cond2,001,1072,
images/lightswitch02a.jpg,fork,x,sounds/animalfarm_english.wav,,,,,,,,,0,1,1,1,0,118,118,177,830.195380803,8.98004509509e-06,831.084759146,0.889388284879,,,,,x,1,0.867138039088,2018_Dec_06_1104,59.9889948757,spanish_cond2,001,1072,
images/mushroom01.jpg,shower head,x,sounds/animalfarm_english.wav,,,,,,,,,0,1,1,1,0,119,119,222,832.201272423,9.30088572204e-06,833.051932849,0.850670689018,,,,,x,1,0.833820720436,2018_Dec_06_1104,59.9889948757,spanish_cond2,001,1072,
images/pingpongpaddle01c (1).jpg,ping pong paddle,z,sounds/animalfarm_english.wav,,,,,,,,,0,1,1,1,0,120,120,10,834.163185683,9.621726349e-06,835.11909924,0.955923820147,,,,,z,1,0.933832651237,2018_Dec_06_1104,59.9889948757,spanish_cond2,001,1072,
images/broadsword.jpg,teapot,x,sounds/animalfarm_english.wav,,,,,,,,,0,1,1,1,0,121,121,231,836.212860024,9.30088572204e-06,837.186258254,0.973408492981,,,,,x,1,0.950490508461,2018_Dec_06_1104,59.9889948757,spanish_cond2,001,1072,
images/banana04a.jpg,banana,z,sounds/animalfarm_english.wav,,,,,,,,,0,1,1,1,0,122,122,118,838.291704779,8.98004509509e-06,838.986703284,0.695008127019,,,,,z,1,0.68375022593,2018_Dec_06_1104,59.9889948757,spanish_cond2,001,1072,
images/parkingmeter.jpg,ear,x,sounds/animalfarm_english.wav,,,,,,,,,0,1,1,1,0,123,123,171,840.088017658,8.98004509509e-06,840.887175319,0.799167283578,,,,,x,1,0.783784286585,2018_Dec_06_1104,59.9889948757,spanish_cond2,001,1072,
images/panda.jpg,panda,z,sounds/animalfarm_english.wav,,,,,,,,,0,1,1,1,0,124,124,83,841.995963743,9.94233414531e-06,842.754307265,0.75835346384,,,,,z,1,0.73376837885,2018_Dec_06_1104,59.9889948757,spanish_cond2,001,1072,
images/cockroach02.jpg,belt,x,sounds/animalfarm_english.wav,,,,,,,,,0,1,1,1,0,125,125,129,843.853161398,9.94210131466e-06,844.704803546,0.8516533738,,,,,x,1,0.833812702447,2018_Dec_06_1104,59.9889948757,spanish_cond2,001,1072,
images/orange.jpg,bat,x,sounds/animalfarm_english.wav,,,,,,,,,0,1,1,1,0,126,126,128,845.829317496,6.1257276684e-05,846.671952554,0.842645962723,,,,,x,1,0.833782875445,2018_Dec_06_1104,59.9889948757,spanish_cond2,001,1072,
images/leaf01a.jpg,leaf,z,sounds/animalfarm_english.wav,,,,,,,,,0,1,1,1,0,127,127,68,847.774490793,9.62149351835e-06,849.139499896,1.36502032704,,,,,z,1,1.35087178019,2018_Dec_06_1104,59.9889948757,spanish_cond2,001,1072,
images/cupcake.jpg,scissors,x,sounds/animalfarm_english.wav,,,,,,,,,0,1,1,1,0,128,128,219,850.257790601,8.98027792573e-06,851.189727478,0.931946498808,,,,,x,1,0.917159399018,2018_Dec_06_1104,59.9889948757,spanish_cond2,001,1072,
images/weight01.jpg,weight,z,sounds/animalfarm_english.wav,,,,,,,,,0,1,1,1,0,129,129,67,852.294667266,9.621726349e-06,852.973488673,0.678831669735,,,,,z,1,0.667086274829,2018_Dec_06_1104,59.9889948757,spanish_cond2,001,1072,
images/rhinoceros01.jpg,envelope,x,sounds/animalfarm_english.wav,,,,,,,,,0,1,1,1,0,130,130,173,854.085516686,9.30088572204e-06,855.057353011,0.971846267581,,,,,x,1,0.950508789625,2018_Dec_06_1104,59.9889948757,spanish_cond2,001,1072,
images/doorhandle.jpg,doll,x,sounds/animalfarm_english.wav,,,,,,,,,0,1,1,1,0,131,131,168,856.160227044,9.30088572204e-06,857.47459259,1.31437516748,,,,,x,1,1.30057684635,2018_Dec_06_1104,59.9889948757,spanish_cond2,001,1072,
images/lamp04b.jpg,parking meter,x,sounds/animalfarm_english.wav,,,,,,,,,0,1,1,1,0,132,132,209,858.594340645,8.98027792573e-06,859.858518057,1.26418703352,,,,,x,1,1.25055163773,2018_Dec_06_1104,59.9889948757,spanish_cond2,001,1072,
images/antelope.jpg,antelope,z,sounds/animalfarm_english.wav,,,,,,,,,0,1,1,1,0,133,133,12,860.963697423,9.30088572204e-06,862.775917034,1.812229553,,,,,z,1,1.80070160632,2018_Dec_06_1104,59.9889948757,spanish_cond2,001,1072,
images/gps.jpg,gps,z,sounds/animalfarm_english.wav,,,,,,,,,0,1,1,1,0,134,134,21,863.894345969,9.30088572204e-06,864.726409787,0.832073760452,,,,,z,1,0.817139129387,2018_Dec_06_1104,59.9889948757,spanish_cond2,001,1072,
images/scissors04a.jpg,leek,x,sounds/animalfarm_english.wav,,,,,,,,,0,1,1,1,0,135,135,194,865.820289558,8.98027792573e-06,866.510162643,0.689883027226,,,,,x,1,0.667091085808,2018_Dec_06_1104,59.9889948757,spanish_cond2,001,1072,
images/bicycle.jpg,hand bag,x,sounds/animalfarm_english.wav,,,,,,,,,0,1,1,1,0,136,136,186,867.620131957,8.98027792573e-06,868.627364185,1.0072421704,,,,,x,1,0.983846955234,2018_Dec_06_1104,59.9889948757,spanish_cond2,001,1072,
images/bowtie.jpg,bowtie,z,sounds/animalfarm_english.wav,,,,,,,,,0,1,1,1,0,137,137,89,869.736615407,8.98004509509e-06,870.677690549,0.941085404949,,,,,z,1,0.916982040973,2018_Dec_06_1104,59.9889948757,spanish_cond2,001,1072,
images/butterfly.jpg,butterfly,z,sounds/animalfarm_english.wav,,,,,,,,,0,1,1,1,0,138,138,91,871.785230091,8.98004509509e-06,872.795048923,1.00982877403,,,,,z,1,1.00050994428,2018_Dec_06_1104,59.9889948757,spanish_cond2,001,1072,
images/ostrich.jpg,ostrich,z,sounds/animalfarm_english.wav,,,,,,,,,0,1,1,1,0,139,139,76,873.895181765,9.62149351835e-06,874.645530387,0.750359205995,,,,,z,1,0.733800771646,2018_Dec_06_1104,59.9889948757,spanish_cond2,001,1072,
images/crocodile.jpg,triangle ruler,x,sounds/animalfarm_english.wav,,,,,,,,,0,1,1,1,0,140,140,235,875.743229608,9.30088572204e-06,876.512626412,0.769406745676,,,,,x,1,0.750435858034,2018_Dec_06_1104,59.9889948757,spanish_cond2,001,1072,
images/birthdaycandle.jpg,birthday candle,z,sounds/animalfarm_english.wav,,,,,,,,,0,1,1,1,0,141,141,55,877.608592464,9.62149351835e-06,878.496442578,0.887860376621,,,,,z,1,0.867130983155,2018_Dec_06_1104,59.9889948757,spanish_cond2,001,1072,
images/lock02a.jpg,lock,z,sounds/animalfarm_english.wav,,,,,,,,,0,1,1,1,0,142,142,65,879.607414461,3.11096664518e-05,880.463608583,0.856219459325,,,,,z,1,0.833801797824,2018_Dec_06_1104,59.9889948757,spanish_cond2,001,1072,
images/redfox.jpg,red fox,z,sounds/animalfarm_english.wav,,,,,,,,,0,1,1,1,0,143,143,1,881.574528831,9.30088572204e-06,882.547456244,0.972937355749,,,,,z,1,0.950485056266,2018_Dec_06_1104,59.9889948757,spanish_cond2,001,1072,
images/cat.jpg,black olive,x,sounds/animalfarm_english.wav,,,,,,,,,0,1,1,1,0,144,144,133,883.675973737,9.30088572204e-06,884.981395695,1.30543190031,,,,,x,1,1.28390712221,2018_Dec_06_1104,59.9889948757,spanish_cond2,001,1072,
images/basketball01.jpg,basket ball,z,sounds/animalfarm_english.wav,,,,,,,,,0,1,1,1,0,145,145,33,886.118586088,8.98004509509e-06,886.831855992,0.713279845892,,,,,z,1,0.700442721369,2018_Dec_06_1104,59.9889948757,spanish_cond2,001,1072,
images/dresser02.jpg,dresser,z,sounds/animalfarm_english.wav,,,,,,,,,0,1,1,1,0,146,146,87,887.952187436,9.621726349e-06,888.615610131,0.663431995315,,,,,z,1,0.650417512748,2018_Dec_06_1104,59.9889948757,spanish_cond2,001,1072,
images/masquerademask02b.jpg,mirror,x,sounds/animalfarm_english.wav,,,,,,,,,0,1,1,1,0,147,147,204,889.719124961,9.30088572204e-06,891.149575624,1.430460284,,,,,x,1,1.41728031007,2018_Dec_06_1104,59.9889948757,spanish_cond2,001,1072,
images/puzzle.jpg,puzzle,z,sounds/animalfarm_english.wav,,,,,,,,,0,1,1,1,0,148,148,57,892.26867326,9.62149351835e-06,893.116927006,0.84826368792,,,,,z,1,0.834007699974,2018_Dec_06_1104,59.9889948757,spanish_cond2,001,1072,
images/flamingo.jpg,flamingo,z,sounds/animalfarm_english.wav,,,,,,,,,0,1,1,1,0,149,149,52,894.213360988,9.30088572204e-06,894.967366456,0.754015409853,,,,,z,1,0.733961452032,2018_Dec_06_1104,59.9889948757,spanish_cond2,001,1072,
images/eraser.jpg,eraser,z,sounds/animalfarm_english.wav,,,,,,,,,0,1,1,1,0,150,150,110,896.074128573,8.98004509509e-06,897.017691537,0.943572585704,,,,,z,1,0.933830085211,2018_Dec_06_1104,59.9889948757,spanish_cond2,001,1072,
images/flashlight05.jpg,flash light,z,sounds/animalfarm_english.wav,,,,,,,,,0,1,1,1,0,151,151,8,898.119588016,8.98004509509e-06,898.951513925,0.831936171511,,,,,z,1,0.817140412284,2018_Dec_06_1104,59.9889948757,spanish_cond2,001,1072,
images/treadmill.jpg,lily,x,sounds/animalfarm_english.wav,,,,,,,,,0,1,1,1,0,152,152,199,900.056062756,8.98027792573e-06,900.901968834,0.84591569961,,,,,x,1,0.833790251752,2018_Dec_06_1104,59.9889948757,spanish_cond2,001,1072,
images/handfan01b.jpg,handfan,z,sounds/animalfarm_english.wav,,,,,,,,,0,1,1,1,0,153,153,69,902.014900635,8.98004509509e-06,902.869136764,0.85424607154,,,,,z,1,0.833809495205,2018_Dec_06_1104,59.9889948757,spanish_cond2,001,1072,
images/desktopcomputer.jpg,desktop computer,z,sounds/animalfarm_english.wav,,,,,,,,,0,1,1,1,0,154,154,16,904.002943565,9.62149351835e-06,904.652896355,0.649963052943,,,,,z,1,0.633740732679,2018_Dec_06_1104,59.9889948757,spanish_cond2,001,1072,
images/showerhead01.jpg,skateboard,x,sounds/animalfarm_english.wav,,,,,,,,,0,1,1,1,0,155,155,223,905.76037496,9.30088572204e-06,906.670079231,0.909713892499,,,,,x,1,0.900483901845,2018_Dec_06_1104,59.9889948757,spanish_cond2,001,1072,
images/paintbrush03a.jpg,paint brush,z,sounds/animalfarm_english.wav,,,,,,,,,0,1,1,1,0,156,156,0,907.769576406,9.94233414531e-06,908.520523171,0.750956706703,,,,,z,1,0.733766775345,2018_Dec_06_1104,59.9889948757,spanish_cond2,001,1072,
images/aquarium.jpg,computer mouse,x,sounds/animalfarm_english.wav,,,,,,,,,0,1,1,1,0,157,157,159,909.655646205,8.98004509509e-06,911.704633244,2.04899633978,,,,,x,1,2.03408127301,2018_Dec_06_1104,59.9889948757,spanish_cond2,001,1072,
images/pepper05a.jpg,lighter,x,sounds/animalfarm_english.wav,,,,,,,,,0,1,1,1,0,158,158,198,912.825969824,8.98027792573e-06,913.905186293,1.07922641141,,,,,x,1,1.06717793667,2018_Dec_06_1104,59.9889948757,spanish_cond2,001,1072,
images/bed.jpg,bed,z,sounds/animalfarm_english.wav,,,,,,,,,0,1,1,1,0,159,159,103,915.022576739,9.30088572204e-06,915.772324011,0.749757215148,,,,,z,1,0.733777358895,2018_Dec_06_1104,59.9889948757,spanish_cond2,001,1072,
images/leek.jpg,donut,x,sounds/animalfarm_english.wav,,,,,,,,,0,1,1,1,0,160,160,169,916.871954607,8.98027792573e-06,917.7394557,0.867511036107,,,,,x,1,0.850458372384,2018_Dec_06_1104,59.9889948757,spanish_cond2,001,1072,
images/razor04a.jpg,razor,z,sounds/animalfarm_english.wav,,,,,,,,,0,1,1,1,0,161,161,36,918.837729331,8.98027792573e-06,920.190067441,1.35234805266,,,,,z,1,1.33391533257,2018_Dec_06_1104,59.9889948757,spanish_cond2,001,1072,
images/tie01.jpg,bench,x,sounds/animalfarm_english.wav,,,,,,,,,0,1,1,1,0,162,162,130,921.28739591,9.30088572204e-06,922.0905414,0.803155753063,,,,,x,1,0.783780758502,2018_Dec_06_1104,59.9889948757,spanish_cond2,001,1072,
images/dreamcatcher.jpg,dream catcher,z,sounds/animalfarm_english.wav,,,,,,,,,0,1,1,1,0,163,163,48,923.189132864,9.30088572204e-06,925.491375849,2.3022529271,,,,,z,1,2.28414605837,2018_Dec_06_1104,59.9889948757,spanish_cond2,001,1072,
images/microphone01.jpg,diaper,x,sounds/animalfarm_english.wav,,,,,,,,,0,1,1,1,0,164,164,164,926.588985589,9.621726349e-06,927.508559687,0.919584360206,,,,,x,1,0.900488071144,2018_Dec_06_1104,59.9889948757,spanish_cond2,001,1072,
images/fireextinguisher02.jpg,fire extinguisher,x,sounds/animalfarm_english.wav,,,,,,,,,0,1,1,1,0,165,165,175,928.617622647,8.98027792573e-06,930.309240767,1.69162806286,,,,,z,0,1.66734862351,2018_Dec_06_1104,59.9889948757,spanish_cond2,001,1072,
images/paperclip04.jpg,eye drops,x,sounds/animalfarm_english.wav,,,,,,,,,0,1,1,1,0,166,166,174,931.416527261,9.30088572204e-06,933.576706517,2.16018855758,,,,,x,1,2.15079307556,2018_Dec_06_1104,59.9889948757,spanish_cond2,001,1072,
images/chameleon.jpg,50 dollar bill,x,sounds/animalfarm_english.wav,,,,,,,,,0,1,1,1,0,167,167,120,934.685143432,8.98027792573e-06,935.793931535,1.10880606342,,,,,x,1,1.100548174,2018_Dec_06_1104,59.9889948757,spanish_cond2,001,1072,
images/thumbtack02a.jpg,thumb tack,z,sounds/animalfarm_english.wav,,,,,,,,,0,1,1,1,0,168,168,60,936.905719971,9.30088572204e-06,938.194538273,1.28882824443,,,,,z,1,1.26720949518,2018_Dec_06_1104,59.9889948757,spanish_cond2,001,1072,
images/donut.jpg,rhinoceros,x,sounds/animalfarm_english.wav,,,,,,,,,0,1,1,1,0,169,169,216,939.318569218,9.30088572204e-06,940.178342252,0.859782654559,,,,,x,1,0.850479539949,2018_Dec_06_1104,59.9889948757,spanish_cond2,001,1072,
images/feather03b.jpg,feather,z,sounds/animalfarm_english.wav,,,,,,,,,0,1,1,1,0,170,170,114,941.277477656,9.62149351835e-06,942.112152452,0.834685701178,,,,,z,1,0.817129187053,2018_Dec_06_1104,59.9889948757,spanish_cond2,001,1072,
images/button07.jpg,radish,x,sounds/animalfarm_english.wav,,,,,,,,,0,1,1,1,0,171,171,215,943.224397913,9.3006528914e-06,944.679458035,1.45507038501,,,,,x,1,1.43396350462,2018_Dec_06_1104,59.9889948757,spanish_cond2,001,1072,
images/parrot01.jpg,chameleon,x,sounds/animalfarm_english.wav,,,,,,,,,0,1,1,1,0,172,172,150,945.791488614,9.30088572204e-06,946.996690173,1.2052115018,,,,,x,1,1.18388492847,2018_Dec_06_1104,59.9889948757,spanish_cond2,001,1072,
images/corkscrew02a.jpg,masquerade mask,x,sounds/animalfarm_english.wav,,,,,,,,,0,1,1,1,0,173,173,201,948.099361191,8.98027792573e-06,949.697386584,1.59803597722,,,,,x,1,1.5839551019,2018_Dec_06_1104,59.9889948757,spanish_cond2,001,1072,
images/floorlamp.jpg,floor lamp,z,sounds/animalfarm_english.wav,,,,,,,,,0,1,1,1,0,174,174,26,950.788251911,9.621726349e-06,951.531143802,0.742901833029,,,,,z,1,0.73378281109,2018_Dec_06_1104,59.9889948757,spanish_cond2,001,1072,
images/blueberry02.jpg,blueberry,z,sounds/animalfarm_english.wav,,,,,,,,,0,1,1,1,0,175,175,46,952.642292401,8.98004509509e-06,953.248232514,0.605950054945,,,,,z,1,0.583743747557,2018_Dec_06_1104,59.9889948757,spanish_cond2,001,1072,
images/dryingmachine01.jpg,drying machine,z,sounds/animalfarm_english.wav,,,,,,,,,0,1,1,1,0,176,176,18,954.368452027,9.30088572204e-06,955.415428475,1.04698671051,,,,,z,1,1.03385612788,2018_Dec_06_1104,59.9889948757,spanish_cond2,001,1072,
images/computermouse02a.jpg,world map,x,sounds/animalfarm_english.wav,,,,,,,,,0,1,1,1,0,177,177,239,956.515709169,9.30088572204e-06,957.432832647,0.917149777524,,,,,z,0,0.900651638163,2018_Dec_06_1104,59.9889948757,spanish_cond2,001,1072,
images/50dollarbill.jpg,cherry,x,sounds/animalfarm_english.wav,,,,,,,,,0,1,1,1,0,178,178,151,958.552658317,9.94233414531e-06,959.483116677,0.930468622828,,,,,x,1,0.917171906913,2018_Dec_06_1104,59.9889948757,spanish_cond2,001,1072,
images/dice05a.jpg,band aid,x,sounds/animalfarm_english.wav,,,,,,,,,0,1,1,1,0,179,179,126,960.593921465,9.621726349e-06,961.333554523,0.739643321373,,,,,x,1,0.717110842001,2018_Dec_06_1104,59.9889948757,spanish_cond2,001,1072,
images/radio03a.jpg,radio,z,sounds/animalfarm_english.wav,,,,,,,,,0,1,1,1,0,180,180,37,962.446027374,9.30088572204e-06,963.150658373,0.704640941462,,,,,z,1,0.683755678358,2018_Dec_06_1104,59.9889948757,spanish_cond2,001,1072,
images/battery03b.jpg,battery,z,sounds/animalfarm_english.wav,,,,,,,,,0,1,1,1,0,181,181,34,964.258435568,8.98027792573e-06,964.934448433,0.676023127744,,,,,z,1,0.667100707302,2018_Dec_06_1104,59.9889948757,spanish_cond2,001,1072,
images/icecube02 (2).jpg,aloe,x,sounds/animalfarm_english.wav,,,,,,,,,0,1,1,1,0,182,182,122,966.044072652,9.621726349e-06,966.934936889,0.890873858472,,,,,x,1,0.86714477418,2018_Dec_06_1104,59.9889948757,spanish_cond2,001,1072,
images/sportshorts02.jpg,tape,x,sounds/animalfarm_english.wav,,,,,,,,,0,1,1,1,0,183,183,230,968.041264751,9.30088572204e-06,969.335528232,1.29427566752,,,,,x,1,1.28389717988,2018_Dec_06_1104,59.9889948757,spanish_cond2,001,1072,
images/pipe.jpg,icecube,x,sounds/animalfarm_english.wav,,,,,,,,,0,1,1,1,0,184,184,188,970.444383044,9.30088572204e-06,971.569419125,1.12504570256,,,,,x,1,1.1005440047,2018_Dec_06_1104,59.9889948757,spanish_cond2,001,1072,
images/flower01.jpg,bus,x,sounds/animalfarm_english.wav,,,,,,,,,0,1,1,1,0,185,185,140,972.682345474,8.98027792573e-06,973.486542925,0.804207072128,,,,,x,1,0.783771137008,2018_Dec_06_1104,59.9889948757,spanish_cond2,001,1072,
images/eyedrops.jpg,bicycle,x,sounds/animalfarm_english.wav,,,,,,,,,0,1,1,1,0,186,186,131,974.585798278,9.62149351835e-06,975.387016243,0.801227586344,,,,,x,1,0.783789097331,2018_Dec_06_1104,59.9889948757,spanish_cond2,001,1072,
images/sunglasses03a.jpg,sun glasses,z,sounds/animalfarm_english.wav,,,,,,,,,0,1,1,1,0,187,187,17,976.494833527,8.98004509509e-06,977.287511369,0.792688105255,,,,,z,1,0.783816679381,2018_Dec_06_1104,59.9889948757,spanish_cond2,001,1072,
images/cauliflower01.jpg,glue stick,x,sounds/animalfarm_english.wav,,,,,,,,,0,1,1,1,0,188,188,181,978.402407578,8.98004509509e-06,979.271511629,0.869113672059,,,,,x,1,0.850670689018,2018_Dec_06_1104,59.9889948757,spanish_cond2,001,1072,
images/magnifyingglass01b.jpg,magnifying glass,z,sounds/animalfarm_english.wav,,,,,,,,,0,1,1,1,0,189,189,64,980.37678689,9.30088572204e-06,981.305136197,0.928359891055,,,,,z,1,0.917149135843,2018_Dec_06_1104,59.9889948757,spanish_cond2,001,1072,
images/lemon02.jpg,lemon,z,sounds/animalfarm_english.wav,,,,,,,,,0,1,1,1,0,190,190,14,982.415482035,9.621726349e-06,983.172272953,0.756800860167,,,,,z,1,0.733773189597,2018_Dec_06_1104,59.9889948757,spanish_cond2,001,1072,
images/plate01b.jpg,plate,z,sounds/animalfarm_english.wav,,,,,,,,,0,1,1,1,0,191,191,3,984.27075024,3.33548523486e-05,985.072736329,0.802012708271,,,,,z,1,0.783776268363,2018_Dec_06_1104,59.9889948757,spanish_cond2,001,1072,
images/peach01.jpg,peach,z,sounds/animalfarm_english.wav,,,,,,,,,0,1,1,1,0,192,192,106,986.200681016,8.98027792573e-06,986.92318957,0.72251881659,,,,,z,1,0.700422836933,2018_Dec_06_1104,59.9889948757,spanish_cond2,001,1072,
images/pouch01b.jpg,pouch,z,sounds/animalfarm_english.wav,,,,,,,,,0,1,1,1,0,193,193,25,988.035227204,9.30088572204e-06,989.240438385,1.20522112329,,,,,z,1,1.18389262562,2018_Dec_06_1104,59.9889948757,spanish_cond2,001,1072,
images/gorilla.jpg,gorilla,z,sounds/animalfarm_english.wav,,,,,,,,,0,1,1,1,0,194,194,80,990.350578642,8.98004509509e-06,991.324273859,0.973705158569,,,,,z,1,0.950488904957,2018_Dec_06_1104,59.9889948757,spanish_cond2,001,1072,
images/lychee02a.jpg,lychee,z,sounds/animalfarm_english.wav,,,,,,,,,0,1,1,1,0,195,195,62,992.446805119,8.98004509509e-06,993.274767254,0.827972397674,,,,,z,1,0.817130149342,2018_Dec_06_1104,59.9889948757,spanish_cond2,001,1072,
images/highlighter03b.jpg,coin,x,sounds/animalfarm_english.wav,,,,,,,,,0,1,1,1,0,196,196,156,994.375452696,9.30088572204e-06,995.558662509,1.183219756,,,,,x,1,1.1672139212,2018_Dec_06_1104,59.9889948757,spanish_cond2,001,1072,
images/ruler02b.jpg,watermelon,x,sounds/animalfarm_english.wav,,,,,,,,,0,1,1,1,0,197,197,238,996.660093624,8.98027792573e-06,997.9259128,1.26582847652,,,,,x,1,1.25057665398,2018_Dec_06_1104,59.9889948757,spanish_cond2,001,1072,
images/belt02a.jpg,snowman,x,sounds/animalfarm_english.wav,,,,,,,,,0,1,1,1,0,198,198,224,999.027927625,8.98004509509e-06,1000.05989824,1.03197991778,,,,,x,1,1.01730571128,2018_Dec_06_1104,59.9889948757,spanish_cond2,001,1072,
images/cake.jpg,cake,z,sounds/animalfarm_english.wav,,,,,,,,,0,1,1,1,0,199,199,23,1001.17354621,9.30088572204e-06,1002.54371216,1.37017589551,,,,,x,0,1.3505863396,2018_Dec_06_1104,59.9889948757,spanish_cond2,001,1072,
images/calculator02b.jpg,dice,x,sounds/animalfarm_english.wav,,,,,,,,,0,1,1,1,0,200,200,165,1003.64488606,9.62149351835e-06,1005.64447907,1.99960326985,,,,,x,1,1.98406761023,2018_Dec_06_1104,59.9889948757,spanish_cond2,001,1072,
images/cherry01.jpg,highlighter,x,sounds/animalfarm_english.wav,,,,,,,,,0,1,1,1,0,201,201,187,1006.75199584,8.98004509509e-06,1007.67830569,0.926319472725,,,,,x,1,0.917142400751,2018_Dec_06_1104,59.9889948757,spanish_cond2,001,1072,
images/lantern03.jpg,lantern,z,sounds/animalfarm_english.wav,,,,,,,,,0,1,1,1,0,202,202,5,1008.78404311,8.98027792573e-06,1009.59544392,0.811410435243,,,,,z,1,0.800447917078,2018_Dec_06_1104,59.9889948757,spanish_cond2,001,1072,
images/remotecontrol01c.jpg,remote control,z,sounds/animalfarm_english.wav,,,,,,,,,0,1,1,1,0,203,203,85,1010.70335838,9.30088572204e-06,1011.5125876,0.809239804745,,,,,z,1,0.800454331329,2018_Dec_06_1104,59.9889948757,spanish_cond2,001,1072,
images/chessknight02b (1).jpg,cockroach,x,sounds/animalfarm_english.wav,,,,,,,,,0,1,1,1,0,204,204,155,1012.62150816,9.621726349e-06,1013.7298216,1.10832338035,,,,,x,1,1.08387684636,2018_Dec_06_1104,59.9889948757,spanish_cond2,001,1072,
images/aloe02.jpg,broad sword,x,sounds/animalfarm_english.wav,,,,,,,,,0,1,1,1,0,205,205,137,1014.85007543,9.30088572204e-06,1015.63026702,0.780201206682,,,,,x,1,0.76710526133,2018_Dec_06_1104,59.9889948757,spanish_cond2,001,1072,
images/graduationcap.jpg,graduation cap,z,sounds/animalfarm_english.wav,,,,,,,,,0,1,1,1,0,206,206,35,1016.7314438,9.62149351835e-06,1017.44739204,0.715958175482,,,,,z,1,0.700400386471,2018_Dec_06_1104,59.9889948757,spanish_cond2,001,1072,
images/hairpin.jpg,hair pin,z,sounds/animalfarm_english.wav,,,,,,,,,0,1,1,1,0,207,207,28,1018.53701746,8.98004509509e-06,1019.44788081,0.910872973269,,,,,z,1,0.900477487361,2018_Dec_06_1104,59.9889948757,spanish_cond2,001,1072,
images/ladder.jpg,ladder,z,sounds/animalfarm_english.wav,,,,,,,,,0,1,1,1,0,208,208,113,1020.53920894,8.98027792573e-06,1021.26499268,0.725794326514,,,,,z,1,0.717083260184,2018_Dec_06_1104,59.9889948757,spanish_cond2,001,1072,
images/skateboard.jpg,key,x,sounds/animalfarm_english.wav,,,,,,,,,0,1,1,1,0,209,209,189,1022.35482497,9.30088572204e-06,1023.09878614,0.743970791576,,,,,x,1,0.7337719067,2018_Dec_06_1104,59.9889948757,spanish_cond2,001,1072,
images/diaper01a.jpg,camera,x,sounds/animalfarm_english.wav,,,,,,,,,0,1,1,1,0,210,210,143,1024.21756691,9.94233414531e-06,1025.09927235,0.881715708878,,,,,x,1,0.867134190397,2018_Dec_06_1104,59.9889948757,spanish_cond2,001,1072,
images/candy.jpg,candy,z,sounds/animalfarm_english.wav,,,,,,,,,0,1,1,1,0,211,211,31,1026.19988563,8.98004509509e-06,1027.03308255,0.833207183518,,,,,z,1,0.817122451961,2018_Dec_06_1104,59.9889948757,spanish_cond2,001,1072,
images/cola.jpg,comb,x,sounds/animalfarm_english.wav,,,,,,,,,0,1,1,1,0,212,212,157,1028.15239924,8.98004509509e-06,1029.00024246,0.847852846142,,,,,x,1,0.833801797824,2018_Dec_06_1104,59.9889948757,spanish_cond2,001,1072,
images/bowl02b (1).jpg,bowl,z,sounds/animalfarm_english.wav,,,,,,,,,0,1,1,1,0,213,213,24,1030.1161483,8.98004509509e-06,1031.01740898,0.901270306204,,,,,z,1,0.883812253363,2018_Dec_06_1104,59.9889948757,spanish_cond2,001,1072,
images/spoon02b.jpg,spoon,z,sounds/animalfarm_english.wav,,,,,,,,,0,1,1,1,0,214,214,38,1032.1075854,9.30088572204e-06,1032.85120276,0.743627300719,,,,,z,1,0.733760040021,2018_Dec_06_1104,59.9889948757,spanish_cond2,001,1072,
images/licenseplate.jpg,license plate,z,sounds/animalfarm_english.wav,,,,,,,,,0,1,1,1,0,215,215,40,1033.96688922,9.62149351835e-06,1034.91836659,0.95148794679,,,,,z,1,0.933819822269,2018_Dec_06_1104,59.9889948757,spanish_cond2,001,1072,
images/glasses01b.jpg,calculator,x,sounds/animalfarm_english.wav,,,,,,,,,0,1,1,1,0,216,216,142,1036.00959272,9.30088572204e-06,1036.86884876,0.859265975421,,,,,x,1,0.850473767146,2018_Dec_06_1104,59.9889948757,spanish_cond2,001,1072,
images/lion.jpg,lion,z,sounds/animalfarm_english.wav,,,,,,,,,0,1,1,1,0,217,217,44,1037.97960832,8.98027792573e-06,1038.81931778,0.839719396085,,,,,z,1,0.817119244719,2018_Dec_06_1104,59.9889948757,spanish_cond2,001,1072,
