images,name,corrAns,sounds,trials_3.thisRepN,trials_3.thisTrialN,trials_3.thisN,trials_3.thisIndex,trials_4.thisRepN,trials_4.thisTrialN,trials_4.thisN,trials_4.thisIndex,trials_2.thisRepN,trials_2.thisTrialN,trials_2.thisN,trials_2.thisIndex,trials.thisRepN,trials.thisTrialN,trials.thisN,trials.thisIndex,begin_global,begin_routine,end_global,end_routine,key_resp_2.keys,key_resp_2.corr,key_resp_2.rt,begin_book,key_resp_1.keys,key_resp_1.corr,key_resp_1.rt,date,frameRate,expName,session,participant,
images/volleyball.jpg,volley ball,z,,0,0,0,0,,,,,,,,,,,,,,,,,,,,,,,,2018_Nov_14_1236,59.9852439087,spanish_cond2,001,1014,
images/puma.jpg,puma,z,,,,,,0,0,0,0,,,,,,,,,48.1818589719,1.05838989839e-05,49.237844814,1.05599674664,z,1,1.03385045752,,,,,2018_Nov_14_1236,59.9852439087,spanish_cond2,001,1014,
images/stapler03a.jpg,candy cane,x,sounds/greatgatsby_spanish.wav,,,,,,,,,0,0,0,0,0,0,0,145,91.4282901997,1.02631747723e-05,92.4490073442,1.02072772838,,,,81.23435951,x,1,1.00048557564,2018_Nov_14_1236,59.9852439087,spanish_cond2,001,1014,
images/radio03a.jpg,radio,z,sounds/greatgatsby_spanish.wav,,,,,,,,,0,0,0,0,0,1,1,37,93.5706289614,9.62160993367e-06,94.3494887183,0.77887034067,,,,,z,1,0.767083425657,2018_Nov_14_1236,59.9852439087,spanish_cond2,001,1014,
images/corkscrew02a.jpg,masquerade mask,x,sounds/greatgatsby_spanish.wav,,,,,,,,,0,0,0,0,0,2,2,201,95.4548409868,9.621726349e-06,96.7334488152,1.2786180916,,,,,x,1,1.26720257453,2018_Nov_14_1236,59.9852439087,spanish_cond2,001,1014,
images/electricguitar02.jpg,electric guitar,z,sounds/greatgatsby_spanish.wav,,,,,,,,,0,0,0,0,0,3,3,100,97.8370925887,9.621726349e-06,98.6506142338,0.813531266875,,,,,z,1,0.80044189305,2018_Nov_14_1236,59.9852439087,spanish_cond2,001,1014,
images/battery03b.jpg,battery,z,sounds/greatgatsby_spanish.wav,,,,,,,,,0,0,0,0,0,4,4,34,99.7615275298,9.62160993367e-06,100.484439931,0.722922664834,,,,,z,1,0.700430314988,2018_Nov_14_1236,59.9852439087,spanish_cond2,001,1014,
images/showerhead01.jpg,skateboard,x,sounds/greatgatsby_spanish.wav,,,,,,,,,0,0,0,0,0,5,5,223,101.591705316,9.621726349e-06,102.351566687,0.759871312883,,,,,x,1,0.750424718368,2018_Nov_14_1236,59.9852439087,spanish_cond2,001,1014,
images/ostrich.jpg,ostrich,z,sounds/greatgatsby_spanish.wav,,,,,,,,,0,0,0,0,0,6,6,76,103.453382336,9.621726349e-06,104.335438777,0.882066383958,,,,,z,1,0.867138301488,2018_Nov_14_1236,59.9852439087,spanish_cond2,001,1014,
images/hand01a.jpg,cupcake,x,sounds/greatgatsby_spanish.wav,,,,,,,,,0,0,0,0,0,7,7,163,105.448138825,9.621726349e-06,106.202406133,0.754277250846,,,,,x,1,0.733593140962,2018_Nov_14_1236,59.9852439087,spanish_cond2,001,1014,
images/pictureframe04.jpg,picture frame,z,sounds/greatgatsby_spanish.wav,,,,,,,,,0,0,0,0,0,8,8,41,107.325741697,9.30100213736e-06,108.169744277,0.844012522371,,,,,z,1,0.833769250195,2018_Nov_14_1236,59.9852439087,spanish_cond2,001,1014,
images/rubberglove02a.jpg,lady bug,x,sounds/greatgatsby_spanish.wav,,,,,,,,,0,0,0,0,0,9,9,192,109.275248569,9.62160993367e-06,110.186934103,0.911695156014,,,,,x,1,0.900433265604,2018_Nov_14_1236,59.9852439087,spanish_cond2,001,1014,
images/masquerademask02b.jpg,mirror,x,sounds/greatgatsby_spanish.wav,,,,,,,,,0,0,0,0,0,10,10,204,111.292896388,9.30088572204e-06,112.154111886,0.861225119443,,,,,x,1,0.850453936146,2018_Nov_14_1236,59.9852439087,spanish_cond2,001,1014,
images/squirrel.jpg,binder,x,sounds/greatgatsby_spanish.wav,,,,,,,,,0,0,0,0,0,11,11,132,113.25867325,9.62160993367e-06,114.254650413,0.995986784808,,,,,x,1,0.98381724651,2018_Nov_14_1236,59.9852439087,spanish_cond2,001,1014,
images/dice05a.jpg,band aid,x,sounds/greatgatsby_spanish.wav,,,,,,,,,0,0,0,0,0,12,12,126,115.368850164,9.94245056063e-06,116.188493141,0.819653239916,,,,,x,1,0.800443817396,2018_Nov_14_1236,59.9852439087,spanish_cond2,001,1014,
images/carrot02.jpg,corkscrew,x,sounds/greatgatsby_spanish.wav,,,,,,,,,0,0,0,0,0,13,13,161,117.291963723,9.30100213736e-06,118.172345025,0.880391565152,,,,,x,1,0.867081533419,2018_Nov_14_1236,59.9852439087,spanish_cond2,001,1014,
images/apple06.jpg,apple,z,sounds/greatgatsby_spanish.wav,,,,,,,,,0,0,0,0,0,14,14,13,119.30034295,9.30088572204e-06,119.906117772,0.605784443556,,,,,z,1,0.583713524509,2018_Nov_14_1236,59.9852439087,spanish_cond2,001,1014,
images/thumbtack02a.jpg,thumb tack,z,sounds/greatgatsby_spanish.wav,,,,,,,,,0,0,0,0,0,15,15,60,121.017173469,9.621726349e-06,121.706577304,0.689413778018,,,,,z,1,0.667062867316,2018_Nov_14_1236,59.9852439087,spanish_cond2,001,1014,
images/graduationcap.jpg,graduation cap,z,sounds/greatgatsby_spanish.wav,,,,,,,,,0,0,0,0,0,16,16,35,122.810364441,9.94245056063e-06,123.473712046,0.663357867626,,,,,z,1,0.650400952669,2018_Nov_14_1236,59.9852439087,spanish_cond2,001,1014,
images/lychee02a.jpg,lychee,z,sounds/greatgatsby_spanish.wav,,,,,,,,,0,0,0,0,0,17,17,62,124.598526467,1.02631747723e-05,125.574258591,0.975741745555,,,,,z,1,0.967141861562,2018_Nov_14_1236,59.9852439087,spanish_cond2,001,1014,
images/seagull.jpg,seagull,z,sounds/greatgatsby_spanish.wav,,,,,,,,,0,0,0,0,0,18,18,50,126.683022397,9.30088572204e-06,127.708145002,1.02513254702,,,,,z,1,1.00048782071,2018_Nov_14_1236,59.9852439087,spanish_cond2,001,1014,
images/marker01a.jpg,marker,z,sounds/greatgatsby_spanish.wav,,,,,,,,,0,0,0,0,0,19,19,95,128.807553299,9.621726349e-06,129.458592812,0.651049135136,,,,,z,1,0.633726529893,2018_Nov_14_1236,59.9852439087,spanish_cond2,001,1014,
images/flower01.jpg,bus,x,sounds/greatgatsby_spanish.wav,,,,,,,,,0,0,0,0,0,20,20,140,130.573751848,9.621726349e-06,131.74252337,1.16878114431,,,,,x,1,1.1505290817,2018_Nov_14_1236,59.9852439087,spanish_cond2,001,1014,
images/blueberry02.jpg,blueberry,z,sounds/greatgatsby_spanish.wav,,,,,,,,,0,0,0,0,0,21,21,46,132.856474881,9.94233414531e-06,133.726358898,0.869893959141,,,,,z,1,0.85044463526,2018_Nov_14_1236,59.9852439087,spanish_cond2,001,1014,
images/razor04a.jpg,razor,z,sounds/greatgatsby_spanish.wav,,,,,,,,,0,0,0,0,0,22,22,36,134.827286142,9.62160993367e-06,135.743558025,0.916281183483,,,,,z,1,0.900464375853,2018_Nov_14_1236,59.9852439087,spanish_cond2,001,1014,
images/nailclipper03a.jpg,aquarium,x,sounds/greatgatsby_spanish.wav,,,,,,,,,0,0,0,0,0,23,23,123,136.84420656,9.621726349e-06,138.177526316,1.33332969854,,,,,x,1,1.31724797294,2018_Nov_14_1236,59.9852439087,spanish_cond2,001,1014,
images/lamp04b.jpg,parking meter,x,sounds/greatgatsby_spanish.wav,,,,,,,,,0,0,0,0,0,24,24,209,139.298825285,9.30100213736e-06,140.678163434,1.37934809073,,,,,x,1,1.36724782852,2018_Nov_14_1236,59.9852439087,spanish_cond2,001,1014,
images/sportshorts02.jpg,tape,x,sounds/greatgatsby_spanish.wav,,,,,,,,,0,0,0,0,0,25,25,230,141.785793802,9.621726349e-06,142.578665334,0.792881474365,,,,,x,1,0.783746943926,2018_Nov_14_1236,59.9852439087,spanish_cond2,001,1014,
images/candle08a.jpg,screw driver,x,sounds/greatgatsby_spanish.wav,,,,,,,,,0,0,0,0,0,26,26,221,143.69492349,9.94245056063e-06,144.512367264,0.817454037955,,,,,x,1,0.800307189114,2018_Nov_14_1236,59.9852439087,spanish_cond2,001,1014,
images/icecube02 (2).jpg,aloe,x,sounds/greatgatsby_spanish.wav,,,,,,,,,0,0,0,0,0,27,27,122,145.624817468,9.621726349e-06,146.296141791,0.671334264916,,,,,x,1,0.650248929742,2018_Nov_14_1236,59.9852439087,spanish_cond2,001,1014,
images/pingpongpaddle01c (1).jpg,ping pong paddle,z,sounds/greatgatsby_spanish.wav,,,,,,,,,0,0,0,0,0,28,28,10,147.409470136,9.94245056063e-06,148.196792186,0.787332313717,,,,,z,1,0.767094651004,2018_Nov_14_1236,59.9852439087,spanish_cond2,001,1014,
images/table02.jpg,table,z,sounds/greatgatsby_spanish.wav,,,,,,,,,0,0,0,0,0,29,29,49,149.311650704,9.94245056063e-06,150.013936405,0.702295964467,,,,,z,1,0.683739855886,2018_Nov_14_1236,59.9852439087,spanish_cond2,001,1014,
images/hammer02a.jpg,flower,x,sounds/greatgatsby_spanish.wav,,,,,,,,,0,0,0,0,0,30,30,176,151.109247778,9.30088572204e-06,151.997769688,0.88853153144,,,,,x,1,0.867118737311,2018_Nov_14_1236,59.9852439087,spanish_cond2,001,1014,
images/button07.jpg,radish,x,sounds/greatgatsby_spanish.wav,,,,,,,,,0,0,0,0,0,31,31,215,153.10965221,9.30100213736e-06,153.781575965,0.671933376812,,,,,x,1,0.650399349048,2018_Nov_14_1236,59.9852439087,spanish_cond2,001,1014,
images/lock02a.jpg,lock,z,sounds/greatgatsby_spanish.wav,,,,,,,,,0,0,0,0,0,32,32,65,154.893347197,9.621726349e-06,155.765413738,0.872075842228,,,,,z,1,0.85045072902,2018_Nov_14_1236,59.9852439087,spanish_cond2,001,1014,
images/tent.jpg,tent,z,sounds/greatgatsby_spanish.wav,,,,,,,,,0,0,0,0,0,33,33,11,156.893833414,9.621726349e-06,157.649242499,0.755418706336,,,,,z,1,0.733755106223,2018_Nov_14_1236,59.9852439087,spanish_cond2,001,1014,
images/candy.jpg,candy,z,sounds/greatgatsby_spanish.wav,,,,,,,,,0,0,0,0,0,34,34,31,158.751634809,9.30100213736e-06,159.54972708,0.798102214001,,,,,z,1,0.783753037686,2018_Nov_14_1236,59.9852439087,spanish_cond2,001,1014,
images/butterfly.jpg,butterfly,z,sounds/greatgatsby_spanish.wav,,,,,,,,,0,0,0,0,0,35,35,91,160.658660549,9.94233414531e-06,161.416888795,0.758238187991,,,,,z,1,0.733750936924,2018_Nov_14_1236,59.9852439087,spanish_cond2,001,1014,
images/tape01a.jpg,tie,x,sounds/greatgatsby_spanish.wav,,,,,,,,,0,0,0,0,0,36,36,232,162.544101267,9.621726349e-06,163.367231472,0.823140468332,,,,,x,1,0.800254911068,2018_Nov_14_1236,59.9852439087,spanish_cond2,001,1014,
images/ruler02b.jpg,watermelon,x,sounds/greatgatsby_spanish.wav,,,,,,,,,0,0,0,0,0,37,37,238,164.471393855,9.621726349e-06,165.334564485,0.863180250861,,,,,x,1,0.850446559605,2018_Nov_14_1236,59.9852439087,spanish_cond2,001,1014,
images/blackolive.jpg,tank,x,sounds/greatgatsby_spanish.wav,,,,,,,,,0,0,0,0,0,38,38,229,166.450328084,9.30100213736e-06,167.251721564,0.801403422607,,,,,x,1,0.783763942309,2018_Nov_14_1236,59.9852439087,spanish_cond2,001,1014,
images/aquarium.jpg,computer mouse,x,sounds/greatgatsby_spanish.wav,,,,,,,,,0,0,0,0,0,39,39,159,168.388276075,9.30100213736e-06,169.435618735,1.04735196114,,,,,x,1,1.03382415813,2018_Nov_14_1236,59.9852439087,spanish_cond2,001,1014,
images/pouch01b.jpg,pouch,z,sounds/greatgatsby_spanish.wav,,,,,,,,,0,0,0,0,0,40,40,25,170.549299876,9.621726349e-06,171.452819466,0.903529531788,,,,,z,1,0.883804064826,2018_Nov_14_1236,59.9852439087,spanish_cond2,001,1014,
images/belt02a.jpg,snowman,x,sounds/greatgatsby_spanish.wav,,,,,,,,,0,0,0,0,0,41,41,224,172.557884045,9.30100213736e-06,173.419991475,0.862117372686,,,,,x,1,0.850455539883,2018_Nov_14_1236,59.9852439087,spanish_cond2,001,1014,
images/candycane01a.jpg,lip,x,sounds/greatgatsby_spanish.wav,,,,,,,,,0,0,0,0,0,42,42,200,174.516124542,9.621726349e-06,175.637228832,1.12111423246,,,,,x,1,1.10051222774,2018_Nov_14_1236,59.9852439087,spanish_cond2,001,1014,
images/safe.jpg,safe,z,sounds/greatgatsby_spanish.wav,,,,,,,,,0,0,0,0,0,43,43,78,176.749713033,9.30100213736e-06,177.471235418,0.721548043191,,,,,z,1,0.70054417185,2018_Nov_14_1236,59.9852439087,spanish_cond2,001,1014,
images/hat05.jpg,hat,z,sounds/greatgatsby_spanish.wav,,,,,,,,,0,0,0,0,0,44,44,15,178.576286206,9.30100213736e-06,179.221492398,0.64521581342,,,,,z,1,0.633722360362,2018_Nov_14_1236,59.9852439087,spanish_cond2,001,1014,
images/boxingglove02a.jpg,bracelet,x,sounds/greatgatsby_spanish.wav,,,,,,,,,0,0,0,0,0,45,45,135,180.334843835,9.621726349e-06,181.055296607,0.720463035163,,,,,x,1,0.700402091257,2018_Nov_14_1236,59.9852439087,spanish_cond2,001,1014,
images/bicycle.jpg,hand bag,x,sounds/greatgatsby_spanish.wav,,,,,,,,,0,0,0,0,0,46,46,186,182.16702422,9.621726349e-06,182.889119097,0.722104498884,,,,,x,1,0.700418448192,2018_Nov_14_1236,59.9852439087,spanish_cond2,001,1014,
images/djmixer01.jpg,light bulb,x,sounds/greatgatsby_spanish.wav,,,,,,,,,0,0,0,0,0,47,47,196,184.012222458,9.621726349e-06,184.772938877,0.760726041393,,,,,x,1,0.750407078536,2018_Nov_14_1236,59.9852439087,spanish_cond2,001,1014,
images/ashtray02b.jpg,ashtray,z,sounds/greatgatsby_spanish.wav,,,,,,,,,0,0,0,0,0,48,48,43,185.886951967,9.621726349e-06,186.840137539,0.953195193433,,,,,z,1,0.933809052105,2018_Nov_14_1236,59.9852439087,spanish_cond2,001,1014,
images/elbow.jpg,elbow,z,sounds/greatgatsby_spanish.wav,,,,,,,,,0,0,0,0,0,49,49,105,187.953710917,9.94245056063e-06,188.657279834,0.703578538378,,,,,z,1,0.683745628921,2018_Nov_14_1236,59.9852439087,spanish_cond2,001,1014,
images/atm.jpg,atm,z,sounds/greatgatsby_spanish.wav,,,,,,,,,0,0,0,0,0,50,50,96,189.795602173,1.02631747723e-05,190.441068792,0.645476882346,,,,,z,1,0.63372781279,2018_Nov_14_1236,59.9852439087,spanish_cond2,001,1014,
images/toothbrush03a.jpg,parrot,x,sounds/greatgatsby_spanish.wav,,,,,,,,,0,0,0,0,0,51,51,210,191.535413183,9.30100213736e-06,192.341569731,0.806166489609,,,,,x,1,0.783780940692,2018_Nov_14_1236,59.9852439087,spanish_cond2,001,1014,
images/globe.jpg,cloud,x,sounds/greatgatsby_spanish.wav,,,,,,,,,0,0,0,0,0,52,52,154,193.471215212,9.621726349e-06,194.125342653,0.654137062607,,,,,x,1,0.633699268335,2018_Nov_14_1236,59.9852439087,spanish_cond2,001,1014,
images/puzzle.jpg,puzzle,z,sounds/greatgatsby_spanish.wav,,,,,,,,,0,0,0,0,0,53,53,57,195.246861318,9.621726349e-06,196.375934308,1.12908261165,,,,,z,1,1.11718536774,2018_Nov_14_1236,59.9852439087,spanish_cond2,001,1014,
images/giraffe.jpg,lettuce,x,sounds/greatgatsby_spanish.wav,,,,,,,,,0,0,0,0,0,54,54,195,197.478062342,9.30100213736e-06,198.143106574,0.66505481652,,,,,x,1,0.65043045918,2018_Nov_14_1236,59.9852439087,spanish_cond2,001,1014,
images/arrow02.jpg,hammer,x,sounds/greatgatsby_spanish.wav,,,,,,,,,0,0,0,0,0,55,55,184,199.24137085,9.621726349e-06,200.043563894,0.802202665946,,,,,x,1,0.783770677517,2018_Nov_14_1236,59.9852439087,spanish_cond2,001,1014,
images/scooter.jpg,pen,x,sounds/greatgatsby_spanish.wav,,,,,,,,,0,0,0,0,0,56,56,212,201.137486534,9.94245056063e-06,202.210829619,1.07335366926,,,,,x,1,1.05054957606,2018_Nov_14_1236,59.9852439087,spanish_cond2,001,1014,
images/volleyball.jpg,volley ball,z,sounds/greatgatsby_spanish.wav,,,,,,,,,0,0,0,0,0,57,57,2,203.343573933,9.621726349e-06,203.994577204,0.651013214141,,,,,z,1,0.633721398306,2018_Nov_14_1236,59.9852439087,spanish_cond2,001,1014,
images/shotglass.jpg,shot glass,z,sounds/greatgatsby_spanish.wav,,,,,,,,,0,0,0,0,0,58,58,86,205.105669464,8.98027792573e-06,206.178478865,1.07281934377,,,,,z,1,1.05050852336,2018_Nov_14_1236,59.9852439087,spanish_cond2,001,1014,
images/toucan.jpg,toucan,z,sounds/greatgatsby_spanish.wav,,,,,,,,,0,0,0,0,0,59,59,81,207.281572919,8.98027792573e-06,207.978947699,0.697385043837,,,,,z,1,0.683743383852,2018_Nov_14_1236,59.9852439087,spanish_cond2,001,1014,
images/lipstick04.jpg,lipstick,z,sounds/greatgatsby_spanish.wav,,,,,,,,,0,0,0,0,0,60,60,56,209.081023455,9.30100213736e-06,209.696068152,0.61505431938,,,,,z,1,0.600403342163,2018_Nov_14_1236,59.9852439087,spanish_cond2,001,1014,
images/licenseplate.jpg,license plate,z,sounds/greatgatsby_spanish.wav,,,,,,,,,0,0,0,0,0,61,61,40,210.815248421,9.30100213736e-06,211.69658548,0.881347000832,,,,,z,1,0.867132207728,2018_Nov_14_1236,59.9852439087,spanish_cond2,001,1014,
images/nailpolish02b.jpg,nail polish,z,sounds/greatgatsby_spanish.wav,,,,,,,,,0,0,0,0,0,62,62,94,212.806770733,9.30100213736e-06,213.597083211,0.790322099579,,,,,z,1,0.76711485663,2018_Nov_14_1236,59.9852439087,spanish_cond2,001,1014,
images/bowl02b (1).jpg,bowl,z,sounds/greatgatsby_spanish.wav,,,,,,,,,0,0,0,0,0,63,63,24,214.716224031,9.94245056063e-06,215.464209966,0.747995877988,,,,,z,1,0.73373233492,2018_Nov_14_1236,59.9852439087,spanish_cond2,001,1014,
images/computermouse02a.jpg,world map,x,sounds/greatgatsby_spanish.wav,,,,,,,,,0,0,0,0,0,64,64,239,216.567620894,9.621726349e-06,217.398058146,0.830447194632,,,,,x,1,0.81710926001,2018_Nov_14_1236,59.9852439087,spanish_cond2,001,1014,
images/notebook02b.jpg,notebook,z,sounds/greatgatsby_spanish.wav,,,,,,,,,0,0,0,0,0,65,65,7,218.506185637,9.621726349e-06,219.331902478,0.825726783834,,,,,z,1,0.817124013323,2018_Nov_14_1236,59.9852439087,spanish_cond2,001,1014,
images/cauliflower01.jpg,glue stick,x,sounds/greatgatsby_spanish.wav,,,,,,,,,0,0,0,0,0,66,66,181,220.449946423,1.05838989839e-05,221.282422836,0.832486676401,,,,,x,1,0.817133314209,2018_Nov_14_1236,59.9852439087,spanish_cond2,001,1014,
images/microphone01.jpg,diaper,x,sounds/greatgatsby_spanish.wav,,,,,,,,,0,0,0,0,0,67,67,164,222.382309974,9.621726349e-06,223.116046157,0.733746126061,,,,,x,1,0.716929622693,2018_Nov_14_1236,59.9852439087,spanish_cond2,001,1014,
images/paintbrush03a.jpg,paint brush,z,sounds/greatgatsby_spanish.wav,,,,,,,,,0,0,0,0,0,68,68,0,224.21612605,9.94245056063e-06,225.250341811,1.03422570415,,,,,z,1,1.01741048356,2018_Nov_14_1236,59.9852439087,spanish_cond2,001,1014,
images/bowlingball.jpg,bowling ball,z,sounds/greatgatsby_spanish.wav,,,,,,,,,0,0,0,0,0,69,69,20,226.383920648,9.621726349e-06,227.050560481,0.666650095955,,,,,z,1,0.650401594117,2018_Nov_14_1236,59.9852439087,spanish_cond2,001,1014,
images/binder03b.jpg,dj mixer,x,sounds/greatgatsby_spanish.wav,,,,,,,,,0,0,0,0,0,70,70,167,228.164995322,9.94245056063e-06,228.967713712,0.802728652721,,,,,x,1,0.783760093502,2018_Nov_14_1236,59.9852439087,spanish_cond2,001,1014,
images/swallow.jpg,mattress,x,sounds/greatgatsby_spanish.wav,,,,,,,,,0,0,0,0,0,71,71,202,230.070514303,9.30100213736e-06,231.00156898,0.931064940407,,,,,x,1,0.917128214729,2018_Nov_14_1236,59.9852439087,spanish_cond2,001,1014,
images/cockroach02.jpg,belt,x,sounds/greatgatsby_spanish.wav,,,,,,,,,0,0,0,0,0,72,72,129,232.10241027,9.621726349e-06,233.21881628,1.11641595163,,,,,x,1,1.10050677543,2018_Nov_14_1236,59.9852439087,spanish_cond2,001,1014,
images/gamecontroller01.jpg,game controller,z,sounds/greatgatsby_spanish.wav,,,,,,,,,0,0,0,0,0,73,73,112,234.340026408,9.94245056063e-06,235.986205996,1.64618953038,,,,,z,1,1.63399529632,2018_Nov_14_1236,59.9852439087,spanish_cond2,001,1014,
images/grandpiano.jpg,tulip,x,sounds/greatgatsby_spanish.wav,,,,,,,,,0,0,0,0,0,74,74,236,237.102668773,9.30088572204e-06,237.769993672,0.667334520142,,,,,x,1,0.650374974124,2018_Nov_14_1236,59.9852439087,spanish_cond2,001,1014,
images/lion.jpg,lion,z,sounds/greatgatsby_spanish.wav,,,,,,,,,0,0,0,0,0,75,75,44,238.883723242,9.62160993367e-06,239.6371881,0.753475120873,,,,,z,1,0.733792630956,2018_Nov_14_1236,59.9852439087,spanish_cond2,001,1014,
images/screwdriver02b.jpg,cola,x,sounds/greatgatsby_spanish.wav,,,,,,,,,0,0,0,0,0,76,76,158,240.732579013,9.30100213736e-06,241.704346992,0.97177728056,,,,,x,1,0.950472570257,2018_Nov_14_1236,59.9852439087,spanish_cond2,001,1014,
images/ladder.jpg,ladder,z,sounds/greatgatsby_spanish.wav,,,,,,,,,0,0,0,0,0,77,77,113,242.797987074,9.30100213736e-06,243.504860407,0.706882633502,,,,,z,1,0.683784436435,2018_Nov_14_1236,59.9852439087,spanish_cond2,001,1014,
images/camera01a.jpg,bull,x,sounds/greatgatsby_spanish.wav,,,,,,,,,0,0,0,0,0,78,78,138,244.616612074,9.621726349e-06,245.872098614,1.2554964819,,,,,x,1,1.23384282424,2018_Nov_14_1236,59.9852439087,spanish_cond2,001,1014,
images/spoon02b.jpg,spoon,z,sounds/greatgatsby_spanish.wav,,,,,,,,,0,0,0,0,0,79,79,38,246.96523997,9.621726349e-06,247.689249568,0.724019219051,,,,,z,1,0.700424541836,2018_Nov_14_1236,59.9852439087,spanish_cond2,001,1014,
images/lemon02.jpg,lemon,z,sounds/greatgatsby_spanish.wav,,,,,,,,,0,0,0,0,0,80,80,14,248.802616399,9.621726349e-06,249.406353985,0.603747848421,,,,,z,1,0.583727956982,2018_Nov_14_1236,59.9852439087,spanish_cond2,001,1014,
images/skateboard.jpg,key,x,sounds/greatgatsby_spanish.wav,,,,,,,,,0,0,0,0,0,81,81,189,250.499417085,9.30100213736e-06,251.406862652,0.907455830718,,,,,x,1,0.883793480927,2018_Nov_14_1236,59.9852439087,spanish_cond2,001,1014,
images/apricot.jpg,apricot,z,sounds/greatgatsby_spanish.wav,,,,,,,,,0,0,0,0,0,82,82,32,252.525776079,9.621726349e-06,253.890860947,1.36509545217,,,,,z,1,1.35060195019,2018_Nov_14_1236,59.9852439087,spanish_cond2,001,1014,
images/parrot01.jpg,chameleon,x,sounds/greatgatsby_spanish.wav,,,,,,,,,0,0,0,0,0,83,83,150,255.006533141,9.30100213736e-06,255.874533547,0.868010028382,,,,,x,1,0.850294857286,2018_Nov_14_1236,59.9852439087,spanish_cond2,001,1014,
images/mailbox01.jpg,mail box,z,sounds/greatgatsby_spanish.wav,,,,,,,,,0,0,0,0,0,84,84,73,256.994734038,9.621726349e-06,257.875211878,0.880487461458,,,,,z,1,0.867112002219,2018_Nov_14_1236,59.9852439087,spanish_cond2,001,1014,
images/comb02a.jpg,diploma,x,sounds/greatgatsby_spanish.wav,,,,,,,,,0,0,0,0,0,85,85,166,258.981014122,1.02630583569e-05,260.092458857,1.11145499814,,,,,x,1,1.10051992512,2018_Nov_14_1236,59.9852439087,spanish_cond2,001,1014,
images/flamingo.jpg,flamingo,z,sounds/greatgatsby_spanish.wav,,,,,,,,,0,0,0,0,0,86,86,52,261.192373576,9.621726349e-06,261.809568405,0.617204450653,,,,,z,1,0.60039372032,2018_Nov_14_1236,59.9852439087,spanish_cond2,001,1014,
images/lily.jpg,kiwi,x,sounds/greatgatsby_spanish.wav,,,,,,,,,0,0,0,0,0,87,87,190,262.910285255,9.30100213736e-06,263.726706242,0.816430608626,,,,,x,1,0.800420404528,2018_Nov_14_1236,59.9852439087,spanish_cond2,001,1014,
images/lantern03.jpg,lantern,z,sounds/greatgatsby_spanish.wav,,,,,,,,,0,0,0,0,0,88,88,5,264.835040278,9.30100213736e-06,265.577210532,0.742180195986,,,,,z,1,0.733766973135,2018_Nov_14_1236,59.9852439087,spanish_cond2,001,1014,
images/doll.jpg,carrot,x,sounds/greatgatsby_spanish.wav,,,,,,,,,0,0,0,0,0,89,89,146,266.690364403,8.98027792573e-06,267.361015206,0.67066106596,,,,,x,1,0.650418913225,2018_Nov_14_1236,59.9852439087,spanish_cond2,001,1014,
images/puma.jpg,puma,z,sounds/greatgatsby_spanish.wav,,,,,,,,,0,0,0,0,0,90,90,4,268.459668198,8.98027792573e-06,269.761458895,1.30179999734,,,,,z,1,1.28373203019,2018_Nov_14_1236,59.9852439087,spanish_cond2,001,1014,
images/leaf01a.jpg,leaf,z,sounds/greatgatsby_spanish.wav,,,,,,,,,0,0,0,0,0,91,91,68,270.867051385,9.621726349e-06,271.562093222,0.695051458548,,,,,z,1,0.683748515439,2018_Nov_14_1236,59.9852439087,spanish_cond2,001,1014,
images/tank.jpg,wallet,x,sounds/greatgatsby_spanish.wav,,,,,,,,,0,0,0,0,0,92,92,237,272.668428188,9.30100213736e-06,273.479274677,0.810856110882,,,,,x,1,0.80045632564,2018_Nov_14_1236,59.9852439087,spanish_cond2,001,1014,
images/parkbench03.jpg,park bench,z,sounds/greatgatsby_spanish.wav,,,,,,,,,0,0,0,0,0,93,93,71,274.585629207,1.02631747723e-05,275.346393735,0.760775432806,,,,,z,1,0.750417983159,2018_Nov_14_1236,59.9852439087,spanish_cond2,001,1014,
images/tissuebox03.jpg,tissue box,z,sounds/greatgatsby_spanish.wav,,,,,,,,,0,0,0,0,0,94,94,58,276.472757893,9.94245056063e-06,277.76370396,1.2909563306,,,,,z,1,1.26723625057,2018_Nov_14_1236,59.9852439087,spanish_cond2,001,1014,
images/cat.jpg,black olive,x,sounds/greatgatsby_spanish.wav,,,,,,,,,0,0,0,0,0,95,95,133,278.895859746,9.62160993367e-06,279.514159148,0.618309022975,,,,,x,1,0.600394682609,2018_Nov_14_1236,59.9852439087,spanish_cond2,001,1014,
images/cola.jpg,comb,x,sounds/greatgatsby_spanish.wav,,,,,,,,,0,0,0,0,0,96,96,157,280.636549539,9.30100213736e-06,281.381307391,0.744768756675,,,,,x,1,0.733727524173,2018_Nov_14_1236,59.9852439087,spanish_cond2,001,1014,
images/redfox.jpg,red fox,z,sounds/greatgatsby_spanish.wav,,,,,,,,,0,0,0,0,0,97,97,1,282.494062603,1.05837825686e-05,283.198439423,0.704387403326,,,,,z,1,0.683748836163,2018_Nov_14_1236,59.9852439087,spanish_cond2,001,1014,
images/tulip02.jpg,sport shorts,x,sounds/greatgatsby_spanish.wav,,,,,,,,,0,0,0,0,0,98,98,225,284.293215187,9.30100213736e-06,285.215635022,0.922430418199,,,,,x,1,0.900472073234,2018_Nov_14_1236,59.9852439087,spanish_cond2,001,1014,
images/sunglasses03a.jpg,sun glasses,z,sounds/greatgatsby_spanish.wav,,,,,,,,,0,0,0,0,0,99,99,17,286.325120135,9.94245056063e-06,287.099451915,0.774342043442,,,,,z,1,0.750425038976,2018_Nov_14_1236,59.9852439087,spanish_cond2,001,1014,
images/bench02.jpg,electric toothbrush,x,sounds/greatgatsby_spanish.wav,,,,,,,,,0,0,0,0,0,100,100,172,288.210192662,9.621726349e-06,288.93327184,0.723088799743,,,,,x,1,0.700425504125,2018_Nov_14_1236,59.9852439087,spanish_cond2,001,1014,
images/flipflop01b.jpg,flip flop,z,sounds/greatgatsby_spanish.wav,,,,,,,,,0,0,0,0,0,101,101,27,290.053110234,9.94245056063e-06,290.650372729,0.59727211704,,,,,z,1,0.583717052476,2018_Nov_14_1236,59.9852439087,spanish_cond2,001,1014,
images/rhinoceros01.jpg,envelope,x,sounds/greatgatsby_spanish.wav,,,,,,,,,0,0,0,0,0,102,102,173,291.764039437,9.621726349e-06,292.500844946,0.736815130687,,,,,x,1,0.717070420273,2018_Nov_14_1236,59.9852439087,spanish_cond2,001,1014,
images/lettuce.jpg,mushroom,x,sounds/greatgatsby_spanish.wav,,,,,,,,,0,0,0,0,0,103,103,205,293.626293759,3.36760422215e-05,294.801543899,1.17527740193,,,,,x,1,1.15060926275,2018_Nov_14_1236,59.9852439087,spanish_cond2,001,1014,
images/honeycomb.jpg,honey comb,z,sounds/greatgatsby_spanish.wav,,,,,,,,,0,0,0,0,0,104,104,59,295.916179193,9.30100213736e-06,297.935752317,2.01958274492,,,,,z,1,2.00089995062,2018_Nov_14_1236,59.9852439087,spanish_cond2,001,1014,
images/teapot.jpg,light switch,x,sounds/greatgatsby_spanish.wav,,,,,,,,,0,0,0,0,0,105,105,197,299.053904025,9.94245056063e-06,300.002810181,0.948915457004,,,,,x,1,0.933822522406,2018_Nov_14_1236,59.9852439087,spanish_cond2,001,1014,
images/donut.jpg,rhinoceros,x,sounds/greatgatsby_spanish.wav,,,,,,,,,0,0,0,0,0,106,106,216,301.129891156,9.30100213736e-06,302.003314358,0.873432823922,,,,,x,1,0.850452974089,2018_Nov_14_1236,59.9852439087,spanish_cond2,001,1014,
images/cocktailshrimp01.jpg,cocktail shrimp,z,sounds/greatgatsby_spanish.wav,,,,,,,,,0,0,0,0,0,107,107,30,303.119449997,1.05838989839e-05,304.220552677,1.10111262253,,,,,z,1,1.0838477473,2018_Nov_14_1236,59.9852439087,spanish_cond2,001,1014,
images/diaper01a.jpg,camera,x,sounds/greatgatsby_spanish.wav,,,,,,,,,0,0,0,0,0,108,108,143,305.34273973,9.94245056063e-06,306.021012852,0.678283384303,,,,,x,1,0.667064150213,2018_Nov_14_1236,59.9852439087,spanish_cond2,001,1014,
images/bullet (2).jpg,rubber glove,x,sounds/greatgatsby_spanish.wav,,,,,,,,,0,0,0,0,0,109,109,217,307.127787529,9.621726349e-06,308.838426158,1.71064824983,,,,,x,1,1.70068336593,2018_Nov_14_1236,59.9852439087,spanish_cond2,001,1014,
images/magnifyingglass01b.jpg,magnifying glass,z,sounds/greatgatsby_spanish.wav,,,,,,,,,0,0,0,0,0,110,110,64,309.946676164,9.621726349e-06,310.72222894,0.775563359144,,,,,z,1,0.767068993184,2018_Nov_14_1236,59.9852439087,spanish_cond2,001,1014,
images/umbrella01.jpg,umbrella,z,sounds/greatgatsby_spanish.wav,,,,,,,,,0,0,0,0,0,111,111,53,311.836696174,9.94245056063e-06,312.772764724,0.936078813393,,,,,z,1,0.917119555292,2018_Nov_14_1236,59.9852439087,spanish_cond2,001,1014,
images/lip.jpg,boxing glove,x,sounds/greatgatsby_spanish.wav,,,,,,,,,0,0,0,0,0,112,112,136,313.877106713,9.94245056063e-06,314.539899787,0.662803336396,,,,,x,1,0.650409291498,2018_Nov_14_1236,59.9852439087,spanish_cond2,001,1014,
images/saltshaker03c.jpg,salt shaker,z,sounds/greatgatsby_spanish.wav,,,,,,,,,0,0,0,0,0,113,113,63,315.652846791,9.94245056063e-06,316.307017209,0.654180039535,,,,,z,1,0.633723322651,2018_Nov_14_1236,59.9852439087,spanish_cond2,001,1014,
images/straw.jpg,straw,z,sounds/greatgatsby_spanish.wav,,,,,,,,,0,0,0,0,0,114,114,109,317.399759265,9.94245056063e-06,318.057473358,0.657724356628,,,,,z,1,0.633732302929,2018_Nov_14_1236,59.9852439087,spanish_cond2,001,1014,
images/mitten01.jpg,mitten,z,sounds/greatgatsby_spanish.wav,,,,,,,,,0,0,0,0,0,115,115,102,319.18028903,9.30100213736e-06,320.358061982,1.17778289504,,,,,z,1,1.1671996559,2018_Nov_14_1236,59.9852439087,spanish_cond2,001,1014,
images/baseball01a.jpg,baseball,z,sounds/greatgatsby_spanish.wav,,,,,,,,,0,0,0,0,0,116,116,74,321.492368541,9.621726349e-06,322.992092879,1.49973460112,,,,,z,1,1.48394922435,2018_Nov_14_1236,59.9852439087,spanish_cond2,001,1014,
images/sock03.jpg,sock,z,sounds/greatgatsby_spanish.wav,,,,,,,,,0,0,0,0,0,117,117,90,324.099322664,9.621726349e-06,324.942598804,0.843286404037,,,,,z,1,0.833793304511,2018_Nov_14_1236,59.9852439087,spanish_cond2,001,1014,
images/swan.jpg,swan,z,sounds/greatgatsby_spanish.wav,,,,,,,,,0,0,0,0,0,118,118,54,326.036589437,9.30100213736e-06,327.276527615,1.23994779901,,,,,z,1,1.21721234056,2018_Nov_14_1236,59.9852439087,spanish_cond2,001,1014,
images/pipe.jpg,icecube,x,sounds/greatgatsby_spanish.wav,,,,,,,,,0,0,0,0,0,119,119,188,328.386992539,9.30100213736e-06,329.860539733,1.47355713649,,,,,x,1,1.45061769779,2018_Nov_14_1236,59.9852439087,spanish_cond2,001,1014,
images/crocodile.jpg,triangle ruler,x,sounds/greatgatsby_spanish.wav,,,,,,,,,0,0,0,0,0,120,120,235,330.959889337,9.621726349e-06,332.477891396,1.51801232155,,,,,x,1,1.50062942016,2018_Nov_14_1236,59.9852439087,spanish_cond2,001,1014,
images/tie01.jpg,bench,x,sounds/greatgatsby_spanish.wav,,,,,,,,,0,0,0,0,0,121,121,130,333.578789454,9.30100213736e-06,334.295051651,0.716271818383,,,,,x,1,0.700435446459,2018_Nov_14_1236,59.9852439087,spanish_cond2,001,1014,
images/calculator02b.jpg,dice,x,sounds/greatgatsby_spanish.wav,,,,,,,,,0,0,0,0,0,122,122,165,335.398669125,9.30100213736e-06,337.045727817,1.64706863393,,,,,x,1,1.63398663676,2018_Nov_14_1236,59.9852439087,spanish_cond2,001,1014,
images/ladybug03.jpg,giraffe,x,sounds/greatgatsby_spanish.wav,,,,,,,,,0,0,0,0,0,123,123,178,338.14988571,9.30100213736e-06,338.796183324,0.646307235933,,,,,x,1,0.633731020032,2018_Nov_14_1236,59.9852439087,spanish_cond2,001,1014,
images/feather03b.jpg,feather,z,sounds/greatgatsby_spanish.wav,,,,,,,,,0,0,0,0,0,124,124,114,339.898909187,9.94245056063e-06,340.613316639,0.714417394251,,,,,z,1,0.700412354432,2018_Nov_14_1236,59.9852439087,spanish_cond2,001,1014,
images/cheetah.jpg,cheetah,z,sounds/greatgatsby_spanish.wav,,,,,,,,,0,0,0,0,0,125,125,82,341.717853627,9.621726349e-06,342.363771505,0.645927499165,,,,,z,1,0.633717549616,2018_Nov_14_1236,59.9852439087,spanish_cond2,001,1014,
images/remotecontrol01c.jpg,remote control,z,sounds/greatgatsby_spanish.wav,,,,,,,,,0,0,0,0,0,126,126,85,343.475043691,9.621726349e-06,344.097556118,0.622522369726,,,,,z,1,0.600389550906,2018_Nov_14_1236,59.9852439087,spanish_cond2,001,1014,
images/cherry01.jpg,highlighter,x,sounds/greatgatsby_spanish.wav,,,,,,,,,0,0,0,0,0,127,127,187,345.208420022,9.62160993367e-06,346.048053063,0.83964426606,,,,,x,1,0.81710316625,2018_Nov_14_1236,59.9852439087,spanish_cond2,001,1014,
images/fryingpan01.jpg,frying pan,z,sounds/greatgatsby_spanish.wav,,,,,,,,,0,0,0,0,0,128,128,45,347.15004062,9.30088572204e-06,348.765271978,1.61524130125,,,,,z,1,1.60049025819,2018_Nov_14_1236,59.9852439087,spanish_cond2,001,1014,
images/hairband.jpg,hairband,z,sounds/greatgatsby_spanish.wav,,,,,,,,,0,0,0,0,0,129,129,66,349.876583934,9.621726349e-06,351.516139295,1.63956530392,,,,,z,1,1.61731221387,2018_Nov_14_1236,59.9852439087,spanish_cond2,001,1014,
images/watermelon01.jpg,orange,x,sounds/greatgatsby_spanish.wav,,,,,,,,,0,0,0,0,0,130,130,207,352.646899292,9.94245056063e-06,353.683411435,1.03652208555,,,,,x,1,1.01720425824,2018_Nov_14_1236,59.9852439087,spanish_cond2,001,1014,
images/cigar.jpg,crocodile,x,sounds/greatgatsby_spanish.wav,,,,,,,,,0,0,0,0,0,131,131,162,354.782516327,9.30100213736e-06,355.933964603,1.15145821823,,,,,x,1,1.133866205,2018_Nov_14_1236,59.9852439087,spanish_cond2,001,1014,
images/computerkeyboard01a.jpg,computer keyboard,z,sounds/greatgatsby_spanish.wav,,,,,,,,,0,0,0,0,0,132,132,61,357.052852693,9.621726349e-06,357.817774761,0.764932011371,,,,,z,1,0.750426001265,2018_Nov_14_1236,59.9852439087,spanish_cond2,001,1014,
images/scissors04a.jpg,leek,x,sounds/greatgatsby_spanish.wav,,,,,,,,,0,0,0,0,0,133,133,194,358.913413914,9.621726349e-06,359.78499071,0.87158673862,,,,,x,1,0.850492423051,2018_Nov_14_1236,59.9852439087,spanish_cond2,001,1014,
images/dolphin01.jpg,dolphin,z,sounds/greatgatsby_spanish.wav,,,,,,,,,0,0,0,0,0,134,134,99,360.886954212,8.98027792573e-06,361.485403706,0.598458794644,,,,,z,1,0.583717052476,2018_Nov_14_1236,59.9852439087,spanish_cond2,001,1014,
images/basketball01.jpg,basket ball,z,sounds/greatgatsby_spanish.wav,,,,,,,,,0,0,0,0,0,135,135,33,362.624777057,9.94233414531e-06,363.719296884,1.09453009011,,,,,z,1,1.08383523906,2018_Nov_14_1236,59.9852439087,spanish_cond2,001,1014,
images/ant.jpg,ant,z,sounds/greatgatsby_spanish.wav,,,,,,,,,0,0,0,0,0,136,136,98,364.815572994,9.30100213736e-06,365.536445272,0.720881900284,,,,,z,1,0.700414599385,2018_Nov_14_1236,59.9852439087,spanish_cond2,001,1014,
images/knife04.jpg,tooth brush,x,sounds/greatgatsby_spanish.wav,,,,,,,,,0,0,0,0,0,137,137,233,366.634835913,9.94245056063e-06,367.45360139,0.818776060711,,,,,x,1,0.800420083804,2018_Nov_14_1236,59.9852439087,spanish_cond2,001,1014,
images/pineapple01a.jpg,pineapple,z,sounds/greatgatsby_spanish.wav,,,,,,,,,0,0,0,0,0,138,138,51,368.568477547,8.98016151041e-06,369.15404293,0.58557468385,,,,,z,1,0.567041025963,2018_Nov_14_1236,59.9852439087,spanish_cond2,001,1014,
images/croissant02b.jpg,croissant,z,sounds/greatgatsby_spanish.wav,,,,,,,,,0,0,0,0,0,139,139,39,370.266909754,9.621726349e-06,370.987861251,0.720962081105,,,,,z,1,0.700416523847,2018_Nov_14_1236,59.9852439087,spanish_cond2,001,1014,
images/dragonfly02.jpg,dragon fly,z,sounds/greatgatsby_spanish.wav,,,,,,,,,0,0,0,0,0,140,140,29,372.08663227,9.30088572204e-06,372.888356737,0.801734088571,,,,,z,1,0.783771960414,2018_Nov_14_1236,59.9852439087,spanish_cond2,001,1014,
images/triangleruler02.jpg,bottle of red wine,x,sounds/greatgatsby_spanish.wav,,,,,,,,,0,0,0,0,0,141,141,134,374.001718758,9.94245056063e-06,374.888870216,0.88716268295,,,,,x,1,0.867113926448,2018_Nov_14_1236,59.9852439087,spanish_cond2,001,1014,
images/envelope02a.jpg,grand piano,x,sounds/greatgatsby_spanish.wav,,,,,,,,,0,0,0,0,0,142,142,182,376.013487713,9.62160993367e-06,376.772684544,0.759206773364,,,,,x,1,0.750355442055,2018_Nov_14_1236,59.9852439087,spanish_cond2,001,1014,
images/gluestick.jpg,squirrel,x,sounds/greatgatsby_spanish.wav,,,,,,,,,0,0,0,0,0,143,143,226,377.88260969,9.621726349e-06,379.25667033,1.37407122436,,,,,x,1,1.35058687616,2018_Nov_14_1236,59.9852439087,spanish_cond2,001,1014,
images/fireextinguisher02.jpg,fire extinguisher,z,sounds/greatgatsby_spanish.wav,,,,,,,,,0,0,0,0,0,144,144,175,380.368534893,9.94245056063e-06,381.507252684,1.13872837566,,,,,z,1,1.11719082005,2018_Nov_14_1236,59.9852439087,spanish_cond2,001,1014,
images/highheelshoe02a.jpg,high heel shoe,z,sounds/greatgatsby_spanish.wav,,,,,,,,,0,0,0,0,0,145,145,75,382.616265693,9.621726349e-06,384.007895575,1.39163982484,,,,,z,1,1.36725103576,2018_Nov_14_1236,59.9852439087,spanish_cond2,001,1014,
images/radish01.jpg,raisin,x,sounds/greatgatsby_spanish.wav,,,,,,,,,0,0,0,0,0,146,146,214,385.12005841,9.621726349e-06,386.425191688,1.30514290009,,,,,x,1,1.28389784438,2018_Nov_14_1236,59.9852439087,spanish_cond2,001,1014,
images/daisy.jpg,daisy,z,sounds/greatgatsby_spanish.wav,,,,,,,,,0,0,0,0,0,147,147,6,387.529133094,9.94245056063e-06,388.492389709,0.963266557548,,,,,z,1,0.950462627807,2018_Nov_14_1236,59.9852439087,spanish_cond2,001,1014,
images/clothespin02a.jpg,clothes pin,z,sounds/greatgatsby_spanish.wav,,,,,,,,,0,0,0,0,0,148,148,79,389.59890011,9.30100213736e-06,391.043059075,1.44416858652,,,,,z,1,1.43393846403,2018_Nov_14_1236,59.9852439087,spanish_cond2,001,1014,
images/raisin.jpg,ruler,x,sounds/greatgatsby_spanish.wav,,,,,,,,,0,0,0,0,0,149,149,218,392.150053769,9.621726349e-06,392.726824268,0.576780762058,,,,,x,1,0.567050326965,2018_Nov_14_1236,59.9852439087,spanish_cond2,001,1014,
images/chessknight02b (1).jpg,cockroach,x,sounds/greatgatsby_spanish.wav,,,,,,,,,0,0,0,0,0,150,150,155,393.837342112,9.30100213736e-06,394.76097813,0.923645960866,,,,,x,1,0.900702673476,2018_Nov_14_1236,59.9852439087,spanish_cond2,001,1014,
images/handbag02a.jpg,candle,x,sounds/greatgatsby_spanish.wav,,,,,,,,,0,0,0,0,0,151,151,144,395.878812963,9.30100213736e-06,396.627833553,0.749030211824,,,,,x,1,0.733754785615,2018_Nov_14_1236,59.9852439087,spanish_cond2,001,1014,
images/lollipop03b.jpg,lollipop,z,sounds/greatgatsby_spanish.wav,,,,,,,,,0,0,0,0,0,152,152,42,397.723001884,9.30100213736e-06,398.478326618,0.755334676709,,,,,z,1,0.733768576756,2018_Nov_14_1236,59.9852439087,spanish_cond2,001,1014,
images/parkingmeter.jpg,ear,x,sounds/greatgatsby_spanish.wav,,,,,,,,,0,0,0,0,0,153,153,171,399.581619199,9.621726349e-06,401.67915479,2.09754553391,,,,,x,1,2.08411683457,2018_Nov_14_1236,59.9852439087,spanish_cond2,001,1014,
images/antelope.jpg,antelope,z,sounds/greatgatsby_spanish.wav,,,,,,,,,0,0,0,0,0,154,154,12,402.784417577,9.621726349e-06,403.729687047,0.945279733627,,,,,z,1,0.933823805419,2018_Nov_14_1236,59.9852439087,spanish_cond2,001,1014,
images/wallet01.jpg,lamp,x,sounds/greatgatsby_spanish.wav,,,,,,,,,0,0,0,0,0,155,155,193,404.836595788,9.30100213736e-06,405.763529808,0.926943962229,,,,,x,1,0.917136553559,2018_Nov_14_1236,59.9852439087,spanish_cond2,001,1014,
images/leek.jpg,donut,x,sounds/greatgatsby_spanish.wav,,,,,,,,,0,0,0,0,0,156,156,169,406.865810505,9.621726349e-06,408.064124205,1.19832364167,,,,,x,1,1.18386541912,2018_Nov_14_1236,59.9852439087,spanish_cond2,001,1014,
images/bus.jpg,microphone,x,sounds/greatgatsby_spanish.wav,,,,,,,,,0,0,0,0,0,157,157,203,409.184435024,9.30100213736e-06,410.531439738,1.34701465606,,,,,x,1,1.33390956686,2018_Nov_14_1236,59.9852439087,spanish_cond2,001,1014,
images/charcoalbarbecue.jpg,charcoal barbecue,z,sounds/greatgatsby_spanish.wav,,,,,,,,,0,0,0,0,0,158,158,77,411.650462532,9.30100213736e-06,413.365517845,1.71506525599,,,,,z,1,1.70068272448,2018_Nov_14_1236,59.9852439087,spanish_cond2,001,1014,
images/parkfountain.jpg,park fountain,z,sounds/greatgatsby_spanish.wav,,,,,,,,,0,0,0,0,0,159,159,93,414.48758174,9.621726349e-06,415.466078823,0.978507345775,,,,,z,1,0.967177782557,2018_Nov_14_1236,59.9852439087,spanish_cond2,001,1014,
images/bandaid01.jpg,door handle,x,sounds/greatgatsby_spanish.wav,,,,,,,,,0,0,0,0,0,160,160,170,416.574906132,9.30100213736e-06,417.383254184,0.808357673581,,,,,x,1,0.800483587082,2018_Nov_14_1236,59.9852439087,spanish_cond2,001,1014,
images/drink.jpg,drink,z,sounds/greatgatsby_spanish.wav,,,,,,,,,0,0,0,0,0,161,161,117,418.484849816,9.94245056063e-06,419.500433458,1.01559358416,,,,,z,1,1.00049231073,2018_Nov_14_1236,59.9852439087,spanish_cond2,001,1014,
images/mirror02.jpg,8 ball,x,sounds/greatgatsby_spanish.wav,,,,,,,,,0,0,0,0,0,162,162,121,420.605195916,1.02631747723e-05,421.534301876,0.929116865038,,,,,x,1,0.91714777879,2018_Nov_14_1236,59.9852439087,spanish_cond2,001,1014,
images/treadmill.jpg,lily,x,sounds/greatgatsby_spanish.wav,,,,,,,,,0,0,0,0,0,163,163,199,422.693345209,9.621726349e-06,423.51812682,0.824791874387,,,,,x,1,0.800431309151,2018_Nov_14_1236,59.9852439087,spanish_cond2,001,1014,
images/peach01.jpg,peach,z,sounds/greatgatsby_spanish.wav,,,,,,,,,0,0,0,0,0,164,164,106,424.649170977,8.98027792573e-06,425.285280484,0.636118807597,,,,,z,1,0.617060766555,2018_Nov_14_1236,59.9852439087,spanish_cond2,001,1014,
images/dryingmachine01.jpg,drying machine,z,sounds/greatgatsby_spanish.wav,,,,,,,,,0,0,0,0,0,165,165,18,426.40778345,9.94245056063e-06,427.752563304,1.34479011688,,,,,x,0,1.33389513427,2018_Nov_14_1236,59.9852439087,spanish_cond2,001,1014,
images/cupcake.jpg,scissors,x,sounds/greatgatsby_spanish.wav,,,,,,,,,0,0,0,0,0,166,166,219,428.871793926,9.621726349e-06,430.153189484,1.28140550083,,,,,x,1,1.26722951524,2018_Nov_14_1236,59.9852439087,spanish_cond2,001,1014,
images/lighter02b.jpg,stapler,x,sounds/greatgatsby_spanish.wav,,,,,,,,,0,0,0,0,0,167,167,227,431.256528891,9.94233414531e-06,432.020335163,0.763816213701,,,,,x,1,0.750421831734,2018_Nov_14_1236,59.9852439087,spanish_cond2,001,1014,
images/hairpin.jpg,hair pin,z,sounds/greatgatsby_spanish.wav,,,,,,,,,0,0,0,0,0,168,168,28,433.113116347,1.02631747723e-05,433.770791953,0.65768490755,,,,,z,1,0.633731661364,2018_Nov_14_1236,59.9852439087,spanish_cond2,001,1014,
images/doorhandle.jpg,doll,x,sounds/greatgatsby_spanish.wav,,,,,,,,,0,0,0,0,0,169,169,168,434.87519039,8.98027792573e-06,435.721301407,0.846120959613,,,,,x,1,0.833785286522,2018_Nov_14_1236,59.9852439087,spanish_cond2,001,1014,
images/beachumbrella01.jpg,beach umbrella,z,sounds/greatgatsby_spanish.wav,,,,,,,,,0,0,0,0,0,170,170,92,436.828851274,9.94245056063e-06,437.888590865,1.05974985484,,,,,z,1,1.05056721577,2018_Nov_14_1236,59.9852439087,spanish_cond2,001,1014,
images/fork01.jpg,cooking pot,x,sounds/greatgatsby_spanish.wav,,,,,,,,,0,0,0,0,0,171,171,160,438.984575758,8.98027792573e-06,439.822359185,0.837793049286,,,,,x,1,0.817107656389,2018_Nov_14_1236,59.9852439087,spanish_cond2,001,1014,
images/bull.jpg,button,x,sounds/greatgatsby_spanish.wav,,,,,,,,,0,0,0,0,0,172,172,141,440.929664982,9.30100213736e-06,441.906247344,0.976592625491,,,,,x,1,0.967082206858,2018_Nov_14_1236,59.9852439087,spanish_cond2,001,1014,
images/headphones02b.jpg,headphones,z,sounds/greatgatsby_spanish.wav,,,,,,,,,0,0,0,0,0,173,173,101,443.0152905,9.621726349e-06,443.756714751,0.741434192751,,,,,z,1,0.717086135759,2018_Nov_14_1236,59.9852439087,spanish_cond2,001,1014,
images/8ball.jpg,nail clipper,x,sounds/greatgatsby_spanish.wav,,,,,,,,,0,0,0,0,0,174,174,206,444.875039649,9.94245056063e-06,445.790659501,0.915630114498,,,,,x,1,0.900547443191,2018_Nov_14_1236,59.9852439087,spanish_cond2,001,1014,
images/chameleon.jpg,50 dollar bill,x,sounds/greatgatsby_spanish.wav,,,,,,,,,0,0,0,0,0,175,175,120,446.90536375,9.621726349e-06,447.641049613,0.735695805168,,,,,x,1,0.717077476322,2018_Nov_14_1236,59.9852439087,spanish_cond2,001,1014,
images/cactus.jpg,cactus,z,sounds/greatgatsby_spanish.wav,,,,,,,,,0,0,0,0,0,176,176,70,448.755571691,9.621726349e-06,450.058350217,1.30278878845,,,,,z,1,1.28390457958,2018_Nov_14_1236,59.9852439087,spanish_cond2,001,1014,
images/mushroom01.jpg,shower head,x,sounds/greatgatsby_spanish.wav,,,,,,,,,0,0,0,0,0,177,177,222,451.176423347,9.621726349e-06,451.842142383,0.665728656924,,,,,x,1,0.650397424703,2018_Nov_14_1236,59.9852439087,spanish_cond2,001,1014,
images/printer03a.jpg,printer,z,sounds/greatgatsby_spanish.wav,,,,,,,,,0,0,0,0,0,178,178,72,452.953021682,9.621726349e-06,453.575926996,0.622915897518,,,,,z,1,0.600391154527,2018_Nov_14_1236,59.9852439087,spanish_cond2,001,1014,
images/weight01.jpg,weight,z,sounds/greatgatsby_spanish.wav,,,,,,,,,0,0,0,0,0,179,179,67,454.682965308,9.30100213736e-06,455.82650967,1.14355430449,,,,,z,1,1.13386267703,2018_Nov_14_1236,59.9852439087,spanish_cond2,001,1014,
images/bracelet02a.jpg,chess knight,x,sounds/greatgatsby_spanish.wav,,,,,,,,,0,0,0,0,0,180,180,152,456.937165104,9.621726349e-06,458.393848649,1.45669316594,,,,,x,1,1.43394904793,2018_Nov_14_1236,59.9852439087,spanish_cond2,001,1014,
images/kiwi03.jpg,backpack,x,sounds/greatgatsby_spanish.wav,,,,,,,,,0,0,0,0,0,181,181,125,459.524525898,9.62160993367e-06,460.227648047,0.703132090974,,,,,x,1,0.683736648643,2018_Nov_14_1236,59.9852439087,spanish_cond2,001,1014,
images/highlighter03b.jpg,coin,x,sounds/greatgatsby_spanish.wav,,,,,,,,,0,0,0,0,0,182,182,156,461.331940644,9.621726349e-06,462.3448626,1.01293221919,,,,,x,1,1.00047884043,2018_Nov_14_1236,59.9852439087,spanish_cond2,001,1014,
images/hanger02a.jpg,hanger,z,sounds/greatgatsby_spanish.wav,,,,,,,,,0,0,0,0,0,183,183,88,463.440105018,9.94245056063e-06,464.045308631,0.605213555391,,,,,z,1,0.583724108408,2018_Nov_14_1236,59.9852439087,spanish_cond2,001,1014,
images/diploma01.jpg,glasses,x,sounds/greatgatsby_spanish.wav,,,,,,,,,0,0,0,0,0,184,184,179,465.178085017,1.02630583569e-05,466.112507934,0.934432859533,,,,,x,1,0.917131101247,2018_Nov_14_1236,59.9852439087,spanish_cond2,001,1014,
images/coin01b.jpg,arrow,x,sounds/greatgatsby_spanish.wav,,,,,,,,,0,0,0,0,0,185,185,124,467.217297974,9.30100213736e-06,468.046621353,0.829333321424,,,,,x,1,0.81737898849,2018_Nov_14_1236,59.9852439087,spanish_cond2,001,1014,
images/ear.jpg,bullet,x,sounds/greatgatsby_spanish.wav,,,,,,,,,0,0,0,0,0,186,186,139,469.152274781,1.02631747723e-05,469.897035519,0.744771001744,,,,,z,0,0.733961973106,2018_Nov_14_1236,59.9852439087,spanish_cond2,001,1014,
images/eyedrops.jpg,bicycle,x,sounds/greatgatsby_spanish.wav,,,,,,,,,0,0,0,0,0,187,187,131,470.999087541,9.94245056063e-06,471.797348513,0.798271556152,,,,,x,1,0.783804994891,2018_Nov_14_1236,59.9852439087,spanish_cond2,001,1014,
images/floorlamp.jpg,floor lamp,z,sounds/greatgatsby_spanish.wav,,,,,,,,,0,0,0,0,0,188,188,26,472.891962312,9.621726349e-06,473.614498826,0.722547097481,,,,,z,1,0.700460783672,2018_Nov_14_1236,59.9852439087,spanish_cond2,001,1014,
images/paperclip04.jpg,eye drops,x,sounds/greatgatsby_spanish.wav,,,,,,,,,0,0,0,0,0,189,189,174,474.721180173,9.621726349e-06,475.448295658,0.727125427686,,,,,x,1,0.717118528904,2018_Nov_14_1236,59.9852439087,spanish_cond2,001,1014,
images/grasshopper.jpg,cauliflower,x,sounds/greatgatsby_spanish.wav,,,,,,,,,0,0,0,0,0,190,190,148,476.54322505,9.621726349e-06,477.398784265,0.855569157749,,,,,x,1,0.833804850583,2018_Nov_14_1236,59.9852439087,spanish_cond2,001,1014,
images/50dollarbill.jpg,cherry,x,sounds/greatgatsby_spanish.wav,,,,,,,,,0,0,0,0,0,191,191,151,478.520286894,9.621726349e-06,479.499307397,0.979030125192,,,,,x,1,0.967151162564,2018_Nov_14_1236,59.9852439087,spanish_cond2,001,1014,
images/medal01.jpg,medal,z,sounds/greatgatsby_spanish.wav,,,,,,,,,0,0,0,0,0,192,192,115,480.601609904,9.30100213736e-06,481.499834346,0.89823406341,,,,,z,1,0.883801819757,2018_Nov_14_1236,59.9852439087,spanish_cond2,001,1014,
images/cloud.jpg,ceiling fan,x,sounds/greatgatsby_spanish.wav,,,,,,,,,0,0,0,0,0,193,193,149,482.606606458,9.30100213736e-06,483.617055956,1.01045911922,,,,,x,1,1.0004945558,2018_Nov_14_1236,59.9852439087,spanish_cond2,001,1014,
images/birthdaycandle.jpg,birthday candle,z,sounds/greatgatsby_spanish.wav,,,,,,,,,0,0,0,0,0,194,194,55,484.714424129,9.94233414531e-06,485.534041448,0.819627582096,,,,,z,1,0.800272871624,2018_Nov_14_1236,59.9852439087,spanish_cond2,001,1014,
images/glasses01b.jpg,calculator,x,sounds/greatgatsby_spanish.wav,,,,,,,,,0,0,0,0,0,195,195,142,486.629175782,9.94245056063e-06,487.251323546,0.622158027603,,,,,x,1,0.600398210576,2018_Nov_14_1236,59.9852439087,spanish_cond2,001,1014,
images/lightswitch02a.jpg,fork,x,sounds/greatgatsby_spanish.wav,,,,,,,,,0,0,0,0,0,196,196,177,488.364078117,9.30100213736e-06,489.251833176,0.887765322579,,,,,x,1,0.867122906726,2018_Nov_14_1236,59.9852439087,spanish_cond2,001,1014,
images/gps.jpg,gps,z,sounds/greatgatsby_spanish.wav,,,,,,,,,0,0,0,0,0,197,197,21,490.372427195,9.621726349e-06,491.352384532,0.979967279825,,,,,z,1,0.967154049082,2018_Nov_14_1236,59.9852439087,spanish_cond2,001,1014,
images/banjo.jpg,knife,x,sounds/greatgatsby_spanish.wav,,,,,,,,,0,0,0,0,0,198,198,191,492.450342517,9.621726349e-06,493.052818696,0.602486121468,,,,,x,1,0.583708713646,2018_Nov_14_1236,59.9852439087,spanish_cond2,001,1014,
images/cake.jpg,cake,z,sounds/greatgatsby_spanish.wav,,,,,,,,,0,0,0,0,0,199,199,23,494.168011728,9.30100213736e-06,495.103361537,0.93535943015,,,,,z,1,0.917147137458,2018_Nov_14_1236,59.9852439087,spanish_cond2,001,1014,
images/handfan01b.jpg,handfan,z,sounds/greatgatsby_spanish.wav,,,,,,,,,0,0,0,0,0,200,200,69,496.219497496,9.30100213736e-06,497.07052617,0.851038615452,,,,,z,1,0.833784003509,2018_Nov_14_1236,59.9852439087,spanish_cond2,001,1014,
images/key03b.jpg,cigar,x,sounds/greatgatsby_spanish.wav,,,,,,,,,0,0,0,0,0,201,201,153,498.173526251,9.94233414531e-06,499.00437435,0.830858362257,,,,,x,1,0.817120485357,2018_Nov_14_1236,59.9852439087,spanish_cond2,001,1014,
images/hairdryer03a.jpg,hairdryer,z,sounds/greatgatsby_spanish.wav,,,,,,,,,0,0,0,0,0,202,202,119,500.105297745,9.94245056063e-06,502.171848224,2.06656106305,,,,,z,1,2.05075868778,2018_Nov_14_1236,59.9852439087,spanish_cond2,001,1014,
images/bed.jpg,bed,z,sounds/greatgatsby_spanish.wav,,,,,,,,,0,0,0,0,0,203,203,103,503.292218378,9.621726349e-06,504.422427692,1.13021925627,,,,,z,1,1.11712603387,2018_Nov_14_1236,59.9852439087,spanish_cond2,001,1014,
images/eraser.jpg,eraser,z,sounds/greatgatsby_spanish.wav,,,,,,,,,0,0,0,0,0,204,204,110,505.531192781,9.30100213736e-06,507.28985689,1.75867373077,,,,,z,1,1.75069284323,2018_Nov_14_1236,59.9852439087,spanish_cond2,001,1014,
images/desktopcomputer.jpg,desktop computer,z,sounds/greatgatsby_spanish.wav,,,,,,,,,0,0,0,0,0,205,205,16,508.427353687,9.621726349e-06,509.207010762,0.779667018214,,,,,z,1,0.767098820419,2018_Nov_14_1236,59.9852439087,spanish_cond2,001,1014,
images/orange.jpg,bat,x,sounds/greatgatsby_spanish.wav,,,,,,,,,0,0,0,0,0,206,206,128,510.33396441,9.62160993367e-06,511.574287456,1.24033266737,,,,,x,1,1.21721073694,2018_Nov_14_1236,59.9852439087,spanish_cond2,001,1014,
images/worldmap.jpg,scooter,x,sounds/greatgatsby_spanish.wav,,,,,,,,,0,0,0,0,0,207,207,220,512.706042337,9.30100213736e-06,513.358082509,0.652050113771,,,,,x,1,0.633713380201,2018_Nov_14_1236,59.9852439087,spanish_cond2,001,1014,
images/screw03c.jpg,screw,z,sounds/greatgatsby_spanish.wav,,,,,,,,,0,0,0,0,0,208,208,84,514.454274589,5.03535848111e-05,515.258576391,0.804327780847,,,,,z,1,0.783761697239,2018_Nov_14_1236,59.9852439087,spanish_cond2,001,1014,
images/broadsword.jpg,teapot,x,sounds/greatgatsby_spanish.wav,,,,,,,,,0,0,0,0,0,209,209,231,516.35334991,9.30100213736e-06,517.325786599,0.972446309985,,,,,x,1,0.950492775883,2018_Nov_14_1236,59.9852439087,spanish_cond2,001,1014,
images/barrel01.jpg,barrel,z,sounds/greatgatsby_spanish.wav,,,,,,,,,0,0,0,0,0,210,210,9,518.457679391,8.98027792573e-06,519.242951697,0.785281927325,,,,,z,1,0.767100744648,2018_Nov_14_1236,59.9852439087,spanish_cond2,001,1014,
images/coffeepot03b.jpg,coffee pot,z,sounds/greatgatsby_spanish.wav,,,,,,,,,0,0,0,0,0,211,211,107,520.366091941,9.30100213736e-06,521.176769408,0.81068741018,,,,,z,1,0.800433233497,2018_Nov_14_1236,59.9852439087,spanish_cond2,001,1014,
images/lightbulb03b.jpg,treadmill,x,sounds/greatgatsby_spanish.wav,,,,,,,,,0,0,0,0,0,212,212,234,522.28150268,9.30100213736e-06,522.993916514,0.712423455319,,,,,x,1,0.700403694878,2018_Nov_14_1236,59.9852439087,spanish_cond2,001,1014,
images/backpack01b.jpg,swallow,x,sounds/greatgatsby_spanish.wav,,,,,,,,,0,0,0,0,0,213,213,228,524.125995646,9.30100213736e-06,525.011098001,0.885112296557,,,,,x,1,0.867111360771,2018_Nov_14_1236,59.9852439087,spanish_cond2,001,1014,
images/acousticguitar02.jpg,acoustic guitar,z,sounds/greatgatsby_spanish.wav,,,,,,,,,0,0,0,0,0,214,214,97,526.125856773,9.621726349e-06,526.828249596,0.702403086121,,,,,z,1,0.683741459507,2018_Nov_14_1236,59.9852439087,spanish_cond2,001,1014,
images/ceilingfan02.jpg,paper clip,x,sounds/greatgatsby_spanish.wav,,,,,,,,,0,0,0,0,0,215,215,208,527.928386898,9.94245056063e-06,528.662048032,0.733671397436,,,,,x,1,0.717086777324,2018_Nov_14_1236,59.9852439087,spanish_cond2,001,1014,
images/bowtie.jpg,bowtie,z,sounds/greatgatsby_spanish.wav,,,,,,,,,0,0,0,0,0,216,216,89,529.774410358,9.30088572204e-06,530.545871982,0.771471245913,,,,,z,1,0.750429849839,2018_Nov_14_1236,59.9852439087,spanish_cond2,001,1014,
images/panda.jpg,panda,z,sounds/greatgatsby_spanish.wav,,,,,,,,,0,0,0,0,0,217,217,83,531.656863534,9.30100213736e-06,532.379681964,0.722828051425,,,,,z,1,0.700409788638,2018_Nov_14_1236,59.9852439087,spanish_cond2,001,1014,
images/flashlight05.jpg,flash light,z,sounds/greatgatsby_spanish.wav,,,,,,,,,0,0,0,0,0,218,218,8,533.484545449,9.94245056063e-06,534.496896517,1.01236133114,,,,,z,1,1.00049231085,2018_Nov_14_1236,59.9852439087,spanish_cond2,001,1014,
images/cookingpot.jpg,grasshopper,x,sounds/greatgatsby_spanish.wav,,,,,,,,,0,0,0,0,0,219,219,183,535.612586992,8.98027792573e-06,536.397396173,0.784818481654,,,,,x,1,0.767101706937,2018_Nov_14_1236,59.9852439087,spanish_cond2,001,1014,
images/plant01.jpg,plant,z,sounds/greatgatsby_spanish.wav,,,,,,,,,0,0,0,0,0,220,220,47,537.511165834,9.621726349e-06,538.414578301,0.903422410018,,,,,z,1,0.883794122376,2018_Nov_14_1236,59.9852439087,spanish_cond2,001,1014,
images/electrictoothbrush01a.jpg,banjo,x,sounds/greatgatsby_spanish.wav,,,,,,,,,0,0,0,0,0,221,221,127,539.511222281,9.94245056063e-06,540.265051802,0.753839462996,,,,,x,1,0.733747729682,2018_Nov_14_1236,59.9852439087,spanish_cond2,001,1014,
images/pepper05a.jpg,lighter,x,sounds/greatgatsby_spanish.wav,,,,,,,,,0,0,0,0,0,222,222,198,541.388371971,9.621726349e-06,542.215580819,0.827218790306,,,,,x,1,0.817130427691,2018_Nov_14_1236,59.9852439087,spanish_cond2,001,1014,
images/gorilla.jpg,gorilla,z,sounds/greatgatsby_spanish.wav,,,,,,,,,0,0,0,0,0,223,223,80,543.329546442,9.621726349e-06,543.949359018,0.619822517969,,,,,z,1,0.600400776253,2018_Nov_14_1236,59.9852439087,spanish_cond2,001,1014,
images/broom02.jpg,broom,z,sounds/greatgatsby_spanish.wav,,,,,,,,,0,0,0,0,0,224,224,116,545.045029601,9.94233414531e-06,545.666473056,0.621454039123,,,,,z,1,0.600406549289,2018_Nov_14_1236,59.9852439087,spanish_cond2,001,1014,
images/bat.jpg,hand,x,sounds/greatgatsby_spanish.wav,,,,,,,,,0,0,0,0,0,225,225,185,546.766726139,9.94245056063e-06,548.050414551,1.28369867499,,,,,x,1,1.26724041998,2018_Nov_14_1236,59.9852439087,spanish_cond2,001,1014,
images/aloe02.jpg,broad sword,x,sounds/greatgatsby_spanish.wav,,,,,,,,,0,0,0,0,0,226,226,137,549.172800132,9.30100213736e-06,549.850894611,0.678104099934,,,,,x,1,0.667093656724,2018_Nov_14_1236,59.9852439087,spanish_cond2,001,1014,
images/dresser02.jpg,dresser,z,sounds/greatgatsby_spanish.wav,,,,,,,,,0,0,0,0,0,227,227,87,550.974953728,9.621726349e-06,552.134801756,1.15985765005,,,,,z,1,1.15053549618,2018_Nov_14_1236,59.9852439087,spanish_cond2,001,1014,
images/egg01b (1).jpg,egg,z,sounds/greatgatsby_spanish.wav,,,,,,,,,0,0,0,0,0,228,228,19,553.248978736,9.94245056063e-06,554.21867035,0.969701877795,,,,,z,1,0.950476418948,2018_Nov_14_1236,59.9852439087,spanish_cond2,001,1014,
images/nametag01a.jpg,name tag,z,sounds/greatgatsby_spanish.wav,,,,,,,,,0,0,0,0,0,229,229,108,555.34094881,9.30100213736e-06,556.519276614,1.17833806784,,,,,z,1,1.16719324142,2018_Nov_14_1236,59.9852439087,spanish_cond2,001,1014,
images/banana04a.jpg,banana,z,sounds/greatgatsby_spanish.wav,,,,,,,,,0,0,0,0,0,230,230,118,557.627125075,9.94233414531e-06,558.903219071,1.27610361809,,,,,z,1,1.26721476193,2018_Nov_14_1236,59.9852439087,spanish_cond2,001,1014,
images/axe01.jpg,axe,z,sounds/greatgatsby_spanish.wav,,,,,,,,,0,0,0,0,0,231,231,104,560.00776023,9.621726349e-06,560.820381603,0.812630995526,,,,,z,1,0.800438685808,2018_Nov_14_1236,59.9852439087,spanish_cond2,001,1014,
,,,sounds/greatgatsby_spanish.wav,,,,,,,,,0,0,0,0,,,,,,,,,,,,,,,,2018_Nov_14_1236,59.9852439087,spanish_cond2,001,1014,
images/desktopcomputer.jpg,desktop computer,z,sounds/animalfarm_english.wav,,,,,,,,,0,1,1,1,0,0,0,16,581.983029228,1.02630583569e-05,583.25954658,1.27652729396,,,,571.823411159,z,1,1.26723432611,2018_Nov_14_1236,59.9852439087,spanish_cond2,001,1014,
images/scissors04a.jpg,leek,x,sounds/animalfarm_english.wav,,,,,,,,,0,1,1,1,0,1,1,194,584.353647863,8.98027792573e-06,585.059999057,0.706360816024,,,,,x,1,0.68374017661,2018_Nov_14_1236,59.9852439087,spanish_cond2,001,1014,
images/microphone01.jpg,diaper,x,sounds/animalfarm_english.wav,,,,,,,,,0,1,1,1,0,2,2,164,586.158552625,9.621726349e-06,586.943825252,0.785282568773,,,,,x,1,0.767079256242,2018_Nov_14_1236,59.9852439087,spanish_cond2,001,1014,
images/fryingpan01.jpg,frying pan,z,sounds/animalfarm_english.wav,,,,,,,,,0,1,1,1,0,3,3,45,588.044524141,9.621726349e-06,589.077717435,1.03320355783,,,,,z,1,1.01717411028,2018_Nov_14_1236,59.9852439087,spanish_cond2,001,1014,
images/clothespin02a.jpg,clothes pin,z,sounds/animalfarm_english.wav,,,,,,,,,0,1,1,1,0,4,4,79,590.182242878,9.621726349e-06,590.961518614,0.779285998549,,,,,z,1,0.767091123038,2018_Nov_14_1236,59.9852439087,spanish_cond2,001,1014,
images/flipflop01b.jpg,flip flop,z,sounds/animalfarm_english.wav,,,,,,,,,0,1,1,1,0,5,5,27,592.077723208,9.621726349e-06,592.72849171,0.650778765208,,,,,z,1,0.633567130077,2018_Nov_14_1236,59.9852439087,spanish_cond2,001,1014,
images/ladybug03.jpg,giraffe,x,sounds/animalfarm_english.wav,,,,,,,,,0,1,1,1,0,6,6,178,593.831556578,9.621726349e-06,594.629142747,0.797595791286,,,,,x,1,0.783766508102,2018_Nov_14_1236,59.9852439087,spanish_cond2,001,1014,
images/beermug01b.jpg,beer mug,z,sounds/animalfarm_english.wav,,,,,,,,,0,1,1,1,0,7,7,111,595.747473419,9.94245056063e-06,596.746378469,0.998915312579,,,,,z,1,0.983833603445,2018_Nov_14_1236,59.9852439087,spanish_cond2,001,1014,
images/floorlamp.jpg,floor lamp,z,sounds/animalfarm_english.wav,,,,,,,,,0,1,1,1,0,8,8,26,597.838390237,9.621726349e-06,598.396800589,0.558420294896,,,,,z,1,0.550386808813,2018_Nov_14_1236,59.9852439087,spanish_cond2,001,1014,
images/cockroach02.jpg,belt,x,sounds/animalfarm_english.wav,,,,,,,,,0,1,1,1,0,9,9,129,599.495676164,9.30088572204e-06,600.213916905,0.718250683276,,,,,x,1,0.70040914719,2018_Nov_14_1236,59.9852439087,spanish_cond2,001,1014,
images/pictureframe04.jpg,picture frame,z,sounds/animalfarm_english.wav,,,,,,,,,0,1,1,1,0,10,10,41,601.335511902,9.62160993367e-06,602.164420265,0.828918625601,,,,,z,1,0.817100279732,2018_Nov_14_1236,59.9852439087,spanish_cond2,001,1014,
images/table02.jpg,table,z,sounds/animalfarm_english.wav,,,,,,,,,0,1,1,1,0,11,11,49,603.278546249,9.94245056063e-06,603.848198607,0.569662621245,,,,,z,1,0.550364358001,2018_Nov_14_1236,59.9852439087,spanish_cond2,001,1014,
images/headphones02b.jpg,headphones,z,sounds/animalfarm_english.wav,,,,,,,,,0,1,1,1,0,12,12,101,604.956966904,9.30100213736e-06,605.46530652,0.50834955927,,,,,z,1,0.500376048498,2018_Nov_14_1236,59.9852439087,spanish_cond2,001,1014,
images/highlighter03b.jpg,coin,x,sounds/animalfarm_english.wav,,,,,,,,,0,1,1,1,0,13,13,156,606.56705161,9.621726349e-06,607.182422804,0.615381136769,,,,,x,1,0.600392758148,2018_Nov_14_1236,59.9852439087,spanish_cond2,001,1014,
images/axe01.jpg,axe,z,sounds/animalfarm_english.wav,,,,,,,,,0,1,1,1,0,14,14,104,608.285343346,9.94245056063e-06,609.032882193,0.747549109976,,,,,z,1,0.733757030685,2018_Nov_14_1236,59.9852439087,spanish_cond2,001,1014,
images/toucan.jpg,toucan,z,sounds/animalfarm_english.wav,,,,,,,,,0,1,1,1,0,15,15,81,610.133647471,9.30100213736e-06,610.749997514,0.616359985317,,,,,z,1,0.600397569011,2018_Nov_14_1236,59.9852439087,spanish_cond2,001,1014,
images/magnifyingglass01b.jpg,magnifying glass,z,sounds/animalfarm_english.wav,,,,,,,,,0,1,1,1,0,16,16,64,611.856405284,9.94233414531e-06,612.450428791,0.594034090987,,,,,z,1,0.583714807406,2018_Nov_14_1236,59.9852439087,spanish_cond2,001,1014,
images/electricguitar02.jpg,electric guitar,z,sounds/animalfarm_english.wav,,,,,,,,,0,1,1,1,0,17,17,100,613.552560674,9.94245056063e-06,614.134208738,0.581658006529,,,,,z,1,0.567053213483,2018_Nov_14_1236,59.9852439087,spanish_cond2,001,1014,
images/flamingo.jpg,flamingo,z,sounds/animalfarm_english.wav,,,,,,,,,0,1,1,1,0,18,18,52,615.231998663,9.30100213736e-06,615.83465124,0.602662519552,,,,,z,1,0.583726353361,2018_Nov_14_1236,59.9852439087,spanish_cond2,001,1014,
images/ant.jpg,ant,z,sounds/animalfarm_english.wav,,,,,,,,,0,1,1,1,0,19,19,98,616.92942957,9.621726349e-06,617.534925363,0.605506055406,,,,,z,1,0.583559256396,2018_Nov_14_1236,59.9852439087,spanish_cond2,001,1014,
images/diploma01.jpg,glasses,x,sounds/animalfarm_english.wav,,,,,,,,,0,1,1,1,0,20,20,179,618.665697547,9.621726349e-06,619.368961776,0.703274492291,,,,,x,1,0.68381458451,2018_Nov_14_1236,59.9852439087,spanish_cond2,001,1014,
images/basketball01.jpg,basket ball,z,sounds/animalfarm_english.wav,,,,,,,,,0,1,1,1,0,21,21,33,620.507919469,9.94245056063e-06,621.136022109,0.628113224404,,,,,z,1,0.617053389899,2018_Nov_14_1236,59.9852439087,spanish_cond2,001,1014,
images/thumbtack02a.jpg,thumb tack,z,sounds/animalfarm_english.wav,,,,,,,,,0,1,1,1,0,22,22,60,622.245878621,9.94245056063e-06,622.853126847,0.607258168748,,,,,z,1,0.583709675819,2018_Nov_14_1236,59.9852439087,spanish_cond2,001,1014,
images/spoon02b.jpg,spoon,z,sounds/animalfarm_english.wav,,,,,,,,,0,1,1,1,0,23,23,38,623.94446734,9.30100213736e-06,625.270434507,1.32597710867,,,,,z,1,1.31725759467,2018_Nov_14_1236,59.9852439087,spanish_cond2,001,1014,
images/bench02.jpg,electric toothbrush,x,sounds/animalfarm_english.wav,,,,,,,,,0,1,1,1,0,24,24,172,626.379330451,9.30100213736e-06,627.537675889,1.15835570113,,,,,x,1,1.13385786617,2018_Nov_14_1236,59.9852439087,spanish_cond2,001,1014,
images/parkingmeter.jpg,ear,x,sounds/animalfarm_english.wav,,,,,,,,,0,1,1,1,0,25,25,171,628.639756455,9.621726349e-06,629.254772929,0.615026737214,,,,,z,0,0.600372552522,2018_Nov_14_1236,59.9852439087,spanish_cond2,001,1014,
images/flashlight05.jpg,flash light,z,sounds/animalfarm_english.wav,,,,,,,,,0,1,1,1,0,26,26,8,630.356615198,9.30100213736e-06,631.088606966,0.732001389377,,,,,z,1,0.7170999269,2018_Nov_14_1236,59.9852439087,spanish_cond2,001,1014,
images/lychee02a.jpg,lychee,z,sounds/animalfarm_english.wav,,,,,,,,,0,1,1,1,0,27,27,62,632.212336058,8.98027792573e-06,632.989084812,0.776758054737,,,,,z,1,0.767096896074,2018_Nov_14_1236,59.9852439087,spanish_cond2,001,1014,
images/mattress.jpg,cat,x,sounds/animalfarm_english.wav,,,,,,,,,0,1,1,1,0,28,28,147,634.094650682,9.621726349e-06,634.806223899,0.711583159282,,,,,x,1,0.700415882398,2018_Nov_14_1236,59.9852439087,spanish_cond2,001,1014,
images/scooter.jpg,pen,x,sounds/animalfarm_english.wav,,,,,,,,,0,1,1,1,0,29,29,212,635.897537772,9.62160993367e-06,636.806730642,0.909203133197,,,,,x,1,0.900455074734,2018_Nov_14_1236,59.9852439087,spanish_cond2,001,1014,
images/puzzle.jpg,puzzle,z,sounds/animalfarm_english.wav,,,,,,,,,0,1,1,1,0,30,30,57,637.926978921,9.621726349e-06,639.007310896,1.08034223784,,,,,z,1,1.06715023238,2018_Nov_14_1236,59.9852439087,spanish_cond2,001,1014,
images/electrictoothbrush01a.jpg,banjo,x,sounds/animalfarm_english.wav,,,,,,,,,0,1,1,1,0,31,31,127,640.102240287,9.621726349e-06,640.75792003,0.655689364998,,,,,x,1,0.633886250202,2018_Nov_14_1236,59.9852439087,spanish_cond2,001,1014,
images/blueberry02.jpg,blueberry,z,sounds/animalfarm_english.wav,,,,,,,,,0,1,1,1,0,32,32,46,641.871217586,9.30100213736e-06,642.55823652,0.687029197696,,,,,z,1,0.667077299906,2018_Nov_14_1236,59.9852439087,spanish_cond2,001,1014,
images/worldmap.jpg,scooter,x,sounds/animalfarm_english.wav,,,,,,,,,0,1,1,1,0,33,33,220,643.690734197,9.30088572204e-06,644.492065136,0.801340560662,,,,,x,1,0.783752075513,2018_Nov_14_1236,59.9852439087,spanish_cond2,001,1014,
images/peach01.jpg,peach,z,sounds/animalfarm_english.wav,,,,,,,,,0,1,1,1,0,34,34,106,645.620810988,9.94245056063e-06,646.375885237,0.75508451229,,,,,z,1,0.733748371131,2018_Nov_14_1236,59.9852439087,spanish_cond2,001,1014,
images/envelope02a.jpg,grand piano,x,sounds/animalfarm_english.wav,,,,,,,,,0,1,1,1,0,35,35,182,647.499229782,9.94233414531e-06,648.143026073,0.643806553562,,,,,x,1,0.633743849001,2018_Nov_14_1236,59.9852439087,spanish_cond2,001,1014,
images/screwdriver02b.jpg,cola,x,sounds/animalfarm_english.wav,,,,,,,,,0,1,1,1,0,36,36,158,649.236547807,9.621726349e-06,650.043520596,0.80698273133,,,,,x,1,0.783790562418,2018_Nov_14_1236,59.9852439087,spanish_cond2,001,1014,
images/volleyball.jpg,volley ball,z,sounds/animalfarm_english.wav,,,,,,,,,0,1,1,1,0,37,37,2,651.176134376,9.94245056063e-06,651.827548815,0.651425344055,,,,,z,1,0.633973487071,2018_Nov_14_1236,59.9852439087,spanish_cond2,001,1014,
images/seagull.jpg,seagull,z,sounds/animalfarm_english.wav,,,,,,,,,0,1,1,1,0,38,38,50,652.934605409,9.30100213736e-06,653.644446397,0.709850610117,,,,,z,1,0.700420051813,2018_Nov_14_1236,59.9852439087,spanish_cond2,001,1014,
images/ashtray02b.jpg,ashtray,z,sounds/animalfarm_english.wav,,,,,,,,,0,1,1,1,0,39,39,43,654.757774421,9.94233414531e-06,655.444962698,0.687198860454,,,,,z,1,0.667122201179,2018_Nov_14_1236,59.9852439087,spanish_cond2,001,1014,
images/remotecontrol01c.jpg,remote control,z,sounds/animalfarm_english.wav,,,,,,,,,0,1,1,1,0,40,40,85,656.554775591,9.94245056063e-06,657.245218892,0.690454205615,,,,,z,1,0.666922390345,2018_Nov_14_1236,59.9852439087,spanish_cond2,001,1014,
images/cat.jpg,black olive,x,sounds/animalfarm_english.wav,,,,,,,,,0,1,1,1,0,41,41,133,658.376824316,9.30100213736e-06,659.112513065,0.735698691686,,,,,x,1,0.717071382445,2018_Nov_14_1236,59.9852439087,spanish_cond2,001,1014,
images/tissuebox03.jpg,tissue box,z,sounds/animalfarm_english.wav,,,,,,,,,0,1,1,1,0,42,42,58,660.237845455,9.621726349e-06,661.229733071,0.991897879052,,,,,z,1,0.983813077095,2018_Nov_14_1236,59.9852439087,spanish_cond2,001,1014,
images/cloud.jpg,ceiling fan,x,sounds/animalfarm_english.wav,,,,,,,,,0,1,1,1,0,43,43,149,662.335224213,9.30100213736e-06,663.73039713,1.39518317964,,,,,x,1,1.38391776127,2018_Nov_14_1236,59.9852439087,spanish_cond2,001,1014,
images/sportshorts02.jpg,tape,x,sounds/animalfarm_english.wav,,,,,,,,,0,1,1,1,0,44,44,230,664.838030064,8.98027792573e-06,665.814248726,0.976228283485,,,,,x,1,0.967128391145,2018_Nov_14_1236,59.9852439087,spanish_cond2,001,1014,
images/baseball01a.jpg,baseball,z,sounds/animalfarm_english.wav,,,,,,,,,0,1,1,1,0,45,45,74,666.946340687,9.621726349e-06,667.998168026,1.05183696083,,,,,z,1,1.03384276002,2018_Nov_14_1236,59.9852439087,spanish_cond2,001,1014,
images/swan.jpg,swan,z,sounds/animalfarm_english.wav,,,,,,,,,0,1,1,1,0,46,46,54,669.090530345,9.621726349e-06,670.048699963,0.958179559791,,,,,z,1,0.933810014161,2018_Nov_14_1236,59.9852439087,spanish_cond2,001,1014,
images/tulip02.jpg,sport shorts,x,sounds/animalfarm_english.wav,,,,,,,,,0,1,1,1,0,47,47,225,671.143607224,9.621726349e-06,671.765803097,0.622205815511,,,,,x,1,0.600387305836,2018_Nov_14_1236,59.9852439087,spanish_cond2,001,1014,
images/leek.jpg,donut,x,sounds/animalfarm_english.wav,,,,,,,,,0,1,1,1,0,48,48,169,672.866841632,9.94245056063e-06,673.666319109,0.799487740151,,,,,x,1,0.783789279405,2018_Nov_14_1236,59.9852439087,spanish_cond2,001,1014,
images/apricot.jpg,apricot,z,sounds/animalfarm_english.wav,,,,,,,,,0,1,1,1,0,49,49,32,674.783006393,1.02631747723e-05,675.750167498,0.967171368189,,,,,z,1,0.950471608085,2018_Nov_14_1236,59.9852439087,spanish_cond2,001,1014,
images/printer03a.jpg,printer,z,sounds/animalfarm_english.wav,,,,,,,,,0,1,1,1,0,50,50,72,676.859220276,9.30100213736e-06,677.517292618,0.65808228415,,,,,z,1,0.633734868723,2018_Nov_14_1236,59.9852439087,spanish_cond2,001,1014,
images/candle08a.jpg,screw driver,x,sounds/animalfarm_english.wav,,,,,,,,,0,1,1,1,0,51,51,221,678.630020889,9.621726349e-06,679.301084142,0.671073837322,,,,,x,1,0.650397424703,2018_Nov_14_1236,59.9852439087,spanish_cond2,001,1014,
images/razor04a.jpg,razor,z,sounds/animalfarm_english.wav,,,,,,,,,0,1,1,1,0,52,52,36,680.400078385,9.621726349e-06,681.084904532,0.684836410102,,,,,z,1,0.667094939621,2018_Nov_14_1236,59.9852439087,spanish_cond2,001,1014,
images/swallow.jpg,mattress,x,sounds/animalfarm_english.wav,,,,,,,,,0,1,1,1,0,53,53,202,682.186626529,9.30100213736e-06,683.235451574,1.04883498745,,,,,x,1,1.0338424393,2018_Nov_14_1236,59.9852439087,spanish_cond2,001,1014,
images/knife04.jpg,tooth brush,x,sounds/animalfarm_english.wav,,,,,,,,,0,1,1,1,0,54,54,233,684.332294082,9.30100213736e-06,685.169278587,0.83699476812,,,,,x,1,0.817107656272,2018_Nov_14_1236,59.9852439087,spanish_cond2,001,1014,
images/ladder.jpg,ladder,z,sounds/animalfarm_english.wav,,,,,,,,,0,1,1,1,0,55,55,113,686.26266658,9.621726349e-06,687.469867531,1.20721089409,,,,,z,1,1.18386702286,2018_Nov_14_1236,59.9852439087,spanish_cond2,001,1014,
images/dice05a.jpg,band aid,x,sounds/animalfarm_english.wav,,,,,,,,,0,1,1,1,0,56,56,126,688.582014331,9.621726349e-06,689.253658735,0.671654667822,,,,,x,1,0.650395500357,2018_Nov_14_1236,59.9852439087,spanish_cond2,001,1014,
images/fireextinguisher02.jpg,fire extinguisher,z,sounds/animalfarm_english.wav,,,,,,,,,0,1,1,1,0,57,57,175,690.362582582,9.621726349e-06,691.737653182,1.37507990026,,,,,z,1,1.35059393209,2018_Nov_14_1236,59.9852439087,spanish_cond2,001,1014,
images/computermouse02a.jpg,world map,x,sounds/animalfarm_english.wav,,,,,,,,,0,1,1,1,0,58,58,239,692.838915903,9.621726349e-06,694.005082508,1.16619418724,,,,,x,1,1.15061471506,2018_Nov_14_1236,59.9852439087,spanish_cond2,001,1014,
images/pineapple01a.jpg,pineapple,z,sounds/animalfarm_english.wav,,,,,,,,,0,1,1,1,0,59,59,51,695.117998723,9.621726349e-06,695.772034757,0.654045977048,,,,,z,1,0.633740641642,2018_Nov_14_1236,59.9852439087,spanish_cond2,001,1014,
images/acousticguitar02.jpg,acoustic guitar,z,sounds/animalfarm_english.wav,,,,,,,,,0,1,1,1,0,60,60,97,696.885444566,1.02631747723e-05,697.555817302,0.670382357086,,,,,z,1,0.650403518463,2018_Nov_14_1236,59.9852439087,spanish_cond2,001,1014,
images/shotglass.jpg,shot glass,z,sounds/animalfarm_english.wav,,,,,,,,,0,1,1,1,0,61,61,86,698.665320055,9.621726349e-06,699.623023661,0.957715151948,,,,,z,1,0.933811617782,2018_Nov_14_1236,59.9852439087,spanish_cond2,001,1014,
images/bracelet02a.jpg,chess knight,x,sounds/animalfarm_english.wav,,,,,,,,,0,1,1,1,0,62,62,152,700.731972845,9.30100213736e-06,701.506851138,0.774887915119,,,,,x,1,0.750437868061,2018_Nov_14_1236,59.9852439087,spanish_cond2,001,1014,
images/toothbrush03a.jpg,parrot,x,sounds/animalfarm_english.wav,,,,,,,,,0,1,1,1,0,63,63,210,702.599904937,9.621726349e-06,703.324214091,0.724319416448,,,,,x,1,0.70065482147,2018_Nov_14_1236,59.9852439087,spanish_cond2,001,1014,
images/teapot.jpg,light switch,x,sounds/animalfarm_english.wav,,,,,,,,,0,1,1,1,0,64,64,197,704.441098299,9.621726349e-06,705.29117763,0.85008959414,,,,,x,1,0.833793304511,2018_Nov_14_1236,59.9852439087,spanish_cond2,001,1014,
images/eyedrops.jpg,bicycle,x,sounds/animalfarm_english.wav,,,,,,,,,0,1,1,1,0,65,65,131,706.391943229,9.30088572204e-06,707.074943176,0.683010209585,,,,,x,1,0.667062867316,2018_Nov_14_1236,59.9852439087,spanish_cond2,001,1014,
images/gps.jpg,gps,z,sounds/animalfarm_english.wav,,,,,,,,,0,1,1,1,0,66,66,21,708.193628568,9.30100213736e-06,708.958777709,0.765159725212,,,,,z,1,0.750431774184,2018_Nov_14_1236,59.9852439087,spanish_cond2,001,1014,
images/hairpin.jpg,hair pin,z,sounds/animalfarm_english.wav,,,,,,,,,0,1,1,1,0,67,67,28,710.049442438,9.30100213736e-06,710.742573724,0.693141228403,,,,,z,1,0.683749477728,2018_Nov_14_1236,59.9852439087,spanish_cond2,001,1014,
images/snowman.jpg,globe,x,sounds/animalfarm_english.wav,,,,,,,,,0,1,1,1,0,68,68,180,711.855821247,9.30100213736e-06,712.926469612,1.07065830776,,,,,x,1,1.05050499539,2018_Nov_14_1236,59.9852439087,spanish_cond2,001,1014,
images/coffeepot03b.jpg,coffee pot,z,sounds/animalfarm_english.wav,,,,,,,,,0,1,1,1,0,69,69,107,714.048258968,9.30100213736e-06,715.393775844,1.34552681912,,,,,z,1,1.333914057,2018_Nov_14_1236,59.9852439087,spanish_cond2,001,1014,
images/rhinoceros01.jpg,envelope,x,sounds/animalfarm_english.wav,,,,,,,,,0,1,1,1,0,70,70,173,716.504544173,9.30100213736e-06,717.944449059,1.43991482863,,,,,x,1,1.41728103952,2018_Nov_14_1236,59.9852439087,spanish_cond2,001,1014,
images/mitten01.jpg,mitten,z,sounds/animalfarm_english.wav,,,,,,,,,0,1,1,1,0,71,71,102,719.064758596,9.62160993367e-06,719.761584939,0.696836606367,,,,,z,1,0.683753326302,2018_Nov_14_1236,59.9852439087,spanish_cond2,001,1014,
images/plant01.jpg,plant,z,sounds/animalfarm_english.wav,,,,,,,,,0,1,1,1,0,72,72,47,720.873751944,9.30100213736e-06,721.562057943,0.688315941021,,,,,z,1,0.667086600908,2018_Nov_14_1236,59.9852439087,spanish_cond2,001,1014,
images/parrot01.jpg,chameleon,x,sounds/animalfarm_english.wav,,,,,,,,,0,1,1,1,0,73,73,150,722.675650564,9.621726349e-06,723.595906796,0.920266495785,,,,,x,1,0.900469186599,2018_Nov_14_1236,59.9852439087,spanish_cond2,001,1014,
images/rubberglove02a.jpg,lady bug,x,sounds/animalfarm_english.wav,,,,,,,,,0,1,1,1,0,74,74,192,724.700632371,9.621726349e-06,725.646431997,0.945809248369,,,,,x,1,0.93380231678,2018_Nov_14_1236,59.9852439087,spanish_cond2,001,1014,
images/dragonfly02.jpg,dragon fly,z,sounds/animalfarm_english.wav,,,,,,,,,0,1,1,1,0,75,75,29,726.744318461,9.621726349e-06,728.147087076,1.40277887799,,,,,z,1,1.38392706227,2018_Nov_14_1236,59.9852439087,spanish_cond2,001,1014,
images/lip.jpg,boxing glove,x,sounds/animalfarm_english.wav,,,,,,,,,0,1,1,1,0,76,76,136,729.250192354,1.02631747723e-05,730.614379837,1.36419806734,,,,,x,1,1.35057597153,2018_Nov_14_1236,59.9852439087,spanish_cond2,001,1014,
images/apple06.jpg,apple,z,sounds/animalfarm_english.wav,,,,,,,,,0,1,1,1,0,77,77,13,731.741488395,9.94245056063e-06,732.598236533,0.856758721871,,,,,z,1,0.833783362177,2018_Nov_14_1236,59.9852439087,spanish_cond2,001,1014,
images/nailpolish02b.jpg,nail polish,z,sounds/animalfarm_english.wav,,,,,,,,,0,1,1,1,0,78,78,94,733.707969245,9.621726349e-06,734.482044126,0.77408482309,,,,,z,1,0.75041702087,2018_Nov_14_1236,59.9852439087,spanish_cond2,001,1014,
images/radish01.jpg,raisin,x,sounds/animalfarm_english.wav,,,,,,,,,0,1,1,1,0,79,79,214,735.593030547,9.30100213736e-06,736.715969376,1.12294845097,,,,,x,1,1.10052281164,2018_Nov_14_1236,59.9852439087,spanish_cond2,001,1014,
images/hanger02a.jpg,hanger,z,sounds/animalfarm_english.wav,,,,,,,,,0,1,1,1,0,80,80,88,737.809760198,9.30100213736e-06,738.483095137,0.673344881507,,,,,z,1,0.650404159911,2018_Nov_14_1236,59.9852439087,spanish_cond2,001,1014,
images/honeycomb.jpg,honey comb,z,sounds/animalfarm_english.wav,,,,,,,,,0,1,1,1,0,81,81,59,739.595798392,9.94245056063e-06,740.43358214,0.837794332183,,,,,z,1,0.817093544407,2018_Nov_14_1236,59.9852439087,spanish_cond2,001,1014,
images/glasses01b.jpg,calculator,x,sounds/animalfarm_english.wav,,,,,,,,,0,1,1,1,0,82,82,142,741.526436449,9.30100213736e-06,742.417449099,0.891022592084,,,,,x,1,0.86712932121,2018_Nov_14_1236,59.9852439087,spanish_cond2,001,1014,
images/treadmill.jpg,lily,x,sounds/animalfarm_english.wav,,,,,,,,,0,1,1,1,0,83,83,199,743.523611515,8.98027792573e-06,744.451297311,0.927695738501,,,,,x,1,0.917115706485,2018_Nov_14_1236,59.9852439087,spanish_cond2,001,1014,
images/lemon02.jpg,lemon,z,sounds/animalfarm_english.wav,,,,,,,,,0,1,1,1,0,84,84,14,745.563977474,8.98027792573e-06,746.168422896,0.604455043911,,,,,z,1,0.583714165958,2018_Nov_14_1236,59.9852439087,spanish_cond2,001,1014,
images/lamp04b.jpg,parking meter,x,sounds/animalfarm_english.wav,,,,,,,,,0,1,1,1,0,85,85,209,747.288607671,9.62160993367e-06,749.102520599,1.81392254971,,,,,x,1,1.80069558544,2018_Nov_14_1236,59.9852439087,spanish_cond2,001,1014,
images/showerhead01.jpg,skateboard,x,sounds/animalfarm_english.wav,,,,,,,,,0,1,1,1,0,86,86,223,750.208784044,9.621726349e-06,750.869628721,0.660854298738,,,,,x,1,0.650396783254,2018_Nov_14_1236,59.9852439087,spanish_cond2,001,1014,
images/hairdryer03a.jpg,hairdryer,z,sounds/animalfarm_english.wav,,,,,,,,,0,1,1,1,0,87,87,119,751.967455209,9.30100213736e-06,752.820142344,0.852698039613,,,,,x,0,0.83377213683,2018_Nov_14_1236,59.9852439087,spanish_cond2,001,1014,
images/cupcake.jpg,scissors,x,sounds/animalfarm_english.wav,,,,,,,,,0,1,1,1,0,88,88,219,753.938344084,9.94245056063e-06,754.553919259,0.615585437743,,,,,x,1,0.600381853525,2018_Nov_14_1236,59.9852439087,spanish_cond2,001,1014,
images/stapler03a.jpg,candy cane,x,sounds/animalfarm_english.wav,,,,,,,,,0,1,1,1,0,89,89,145,755.663907267,9.30100213736e-06,756.58778447,0.923887145123,,,,,x,1,0.900458281976,2018_Nov_14_1236,59.9852439087,spanish_cond2,001,1014,
images/saltshaker03c.jpg,salt shaker,z,sounds/animalfarm_english.wav,,,,,,,,,0,1,1,1,0,90,90,63,757.697916483,9.30088572204e-06,758.488276428,0.790369887371,,,,,z,1,0.767095292453,2018_Nov_14_1236,59.9852439087,spanish_cond2,001,1014,
images/lettuce.jpg,mushroom,x,sounds/animalfarm_english.wav,,,,,,,,,0,1,1,1,0,91,91,205,759.610417297,9.62160993367e-06,760.255394812,0.644987458014,,,,,x,1,0.633694136748,2018_Nov_14_1236,59.9852439087,spanish_cond2,001,1014,
images/fork01.jpg,cooking pot,x,sounds/animalfarm_english.wav,,,,,,,,,0,1,1,1,0,92,92,160,761.347919738,9.62160993367e-06,762.489355342,1.14144586714,,,,,x,1,1.11722417525,2018_Nov_14_1236,59.9852439087,spanish_cond2,001,1014,
images/computerkeyboard01a.jpg,computer keyboard,z,sounds/animalfarm_english.wav,,,,,,,,,0,1,1,1,0,93,93,61,763.605597782,9.94245056063e-06,764.256427863,0.650840664865,,,,,z,1,0.63371787034,2018_Nov_14_1236,59.9852439087,spanish_cond2,001,1014,
images/bull.jpg,button,x,sounds/animalfarm_english.wav,,,,,,,,,0,1,1,1,0,94,94,141,765.361204112,9.94233414531e-06,766.206958484,0.845764956321,,,,,x,1,0.833794908132,2018_Nov_14_1236,59.9852439087,spanish_cond2,001,1014,
images/atm.jpg,atm,z,sounds/animalfarm_english.wav,,,,,,,,,0,1,1,1,0,95,95,96,767.344887296,8.98027792573e-06,768.007389794,0.662512119277,,,,,z,1,0.650383312837,2018_Nov_14_1236,59.9852439087,spanish_cond2,001,1014,
images/umbrella01.jpg,umbrella,z,sounds/animalfarm_english.wav,,,,,,,,,0,1,1,1,0,96,96,53,769.118792514,9.621726349e-06,769.757858772,0.639076521154,,,,,z,1,0.617011054419,2018_Nov_14_1236,59.9852439087,spanish_cond2,001,1014,
images/candycane01a.jpg,lip,x,sounds/animalfarm_english.wav,,,,,,,,,0,1,1,1,0,97,97,200,770.850370548,9.62160993367e-06,771.491651403,0.641290797153,,,,,x,1,0.61706718104,2018_Nov_14_1236,59.9852439087,spanish_cond2,001,1014,
images/lipstick04.jpg,lipstick,z,sounds/animalfarm_english.wav,,,,,,,,,0,1,1,1,0,98,98,56,772.591336164,8.98027792573e-06,773.325452725,0.734126183554,,,,,z,1,0.717081966344,2018_Nov_14_1236,59.9852439087,spanish_cond2,001,1014,
images/eraser.jpg,eraser,z,sounds/animalfarm_english.wav,,,,,,,,,0,1,1,1,0,99,99,110,774.431624443,8.98027792573e-06,775.109240081,0.677625580109,,,,,z,1,0.667052283417,2018_Nov_14_1236,59.9852439087,spanish_cond2,001,1014,
images/cigar.jpg,crocodile,x,sounds/animalfarm_english.wav,,,,,,,,,0,1,1,1,0,100,100,162,776.206090927,9.621726349e-06,777.176445157,0.970364492852,,,,,x,1,0.950474173995,2018_Nov_14_1236,59.9852439087,spanish_cond2,001,1014,
images/icecube02 (2).jpg,aloe,x,sounds/animalfarm_english.wav,,,,,,,,,0,1,1,1,0,101,101,122,778.285548609,9.621726349e-06,779.226983507,0.941444840864,,,,,x,1,0.917133346316,2018_Nov_14_1236,59.9852439087,spanish_cond2,001,1014,
images/cookingpot.jpg,grasshopper,x,sounds/animalfarm_english.wav,,,,,,,,,0,1,1,1,0,102,102,183,780.339485668,9.621726349e-06,781.010776315,0.671300588991,,,,,x,1,0.650398386992,2018_Nov_14_1236,59.9852439087,spanish_cond2,001,1014,
images/puma.jpg,puma,z,sounds/animalfarm_english.wav,,,,,,,,,0,1,1,1,0,103,103,4,782.107780467,8.98027792573e-06,782.694566204,0.586795678828,,,,,z,1,0.567067325348,2018_Nov_14_1236,59.9852439087,spanish_cond2,001,1014,
images/doorhandle.jpg,doll,x,sounds/animalfarm_english.wav,,,,,,,,,0,1,1,1,0,104,104,168,783.796675956,9.621726349e-06,784.445006958,0.648340944666,,,,,x,1,0.633730699192,2018_Nov_14_1236,59.9852439087,spanish_cond2,001,1014,
images/panda.jpg,panda,z,sounds/animalfarm_english.wav,,,,,,,,,0,1,1,1,0,105,105,83,785.55292694,9.94245056063e-06,786.095431003,0.542514325934,,,,,z,1,0.533703405643,2018_Nov_14_1236,59.9852439087,spanish_cond2,001,1014,
images/kiwi03.jpg,backpack,x,sounds/animalfarm_english.wav,,,,,,,,,0,1,1,1,0,106,106,125,787.222467077,9.621726349e-06,787.829231331,0.6067751589,,,,,x,1,0.583718335372,2018_Nov_14_1236,59.9852439087,spanish_cond2,001,1014,
images/chameleon.jpg,50 dollar bill,x,sounds/animalfarm_english.wav,,,,,,,,,0,1,1,1,0,107,107,120,788.937714825,9.621726349e-06,789.529697567,0.591993005597,,,,,x,1,0.5837613123,2018_Nov_14_1236,59.9852439087,spanish_cond2,001,1014,
images/candy.jpg,candy,z,sounds/animalfarm_english.wav,,,,,,,,,0,1,1,1,0,108,108,31,790.630540461,9.30100213736e-06,791.263434713,0.632903873688,,,,,z,1,0.61705274845,2018_Nov_14_1236,59.9852439087,spanish_cond2,001,1014,
images/broadsword.jpg,teapot,x,sounds/animalfarm_english.wav,,,,,,,,,0,1,1,1,0,109,109,231,792.354943266,9.30100213736e-06,793.347302024,0.992368380656,,,,,x,1,0.983788702055,2018_Nov_14_1236,59.9852439087,spanish_cond2,001,1014,
images/cauliflower01.jpg,glue stick,x,sounds/animalfarm_english.wav,,,,,,,,,0,1,1,1,0,110,110,181,794.462555674,9.94245056063e-06,795.28116143,0.818616340403,,,,,x,1,0.80045408057,2018_Nov_14_1236,59.9852439087,spanish_cond2,001,1014,
images/lighter02b.jpg,stapler,x,sounds/animalfarm_english.wav,,,,,,,,,0,1,1,1,0,111,111,227,796.381987646,9.94245056063e-06,797.081624491,0.699647107744,,,,,x,1,0.683753967751,2018_Nov_14_1236,59.9852439087,spanish_cond2,001,1014,
images/straw.jpg,straw,z,sounds/animalfarm_english.wav,,,,,,,,,0,1,1,1,0,112,112,109,798.171677279,9.30100213736e-06,799.032116305,0.860448647523,,,,,z,1,0.850456822664,2018_Nov_14_1236,59.9852439087,spanish_cond2,001,1014,
images/lightbulb03b.jpg,treadmill,x,sounds/animalfarm_english.wav,,,,,,,,,0,1,1,1,0,113,113,234,800.133332521,9.62160993367e-06,800.782571812,0.64924891328,,,,,x,1,0.633732302813,2018_Nov_14_1236,59.9852439087,spanish_cond2,001,1014,
images/backpack01b.jpg,swallow,x,sounds/animalfarm_english.wav,,,,,,,,,0,1,1,1,0,114,114,228,801.913252911,8.98027792573e-06,802.733077417,0.819834128139,,,,,x,1,0.800437402911,2018_Nov_14_1236,59.9852439087,spanish_cond2,001,1014,
images/birthdaycandle.jpg,birthday candle,z,sounds/animalfarm_english.wav,,,,,,,,,0,1,1,1,0,115,115,55,803.828162359,9.30088572204e-06,804.550214259,0.722061842564,,,,,z,1,0.700392148807,2018_Nov_14_1236,59.9852439087,spanish_cond2,001,1014,
images/bandaid01.jpg,door handle,x,sounds/animalfarm_english.wav,,,,,,,,,0,1,1,1,0,116,116,170,805.655761528,9.94245056063e-06,806.417356089,0.76160482422,,,,,x,1,0.75041926594,2018_Nov_14_1236,59.9852439087,spanish_cond2,001,1014,
images/cocktailshrimp01.jpg,cocktail shrimp,z,sounds/animalfarm_english.wav,,,,,,,,,0,1,1,1,0,117,117,30,807.530655248,9.621726349e-06,808.184489547,0.653844241868,,,,,z,1,0.633697985439,2018_Nov_14_1236,59.9852439087,spanish_cond2,001,1014,
images/lantern03.jpg,lantern,z,sounds/animalfarm_english.wav,,,,,,,,,0,1,1,1,0,118,118,5,809.289926808,9.30100213736e-06,810.235027577,0.945110391476,,,,,z,1,0.93381322152,2018_Nov_14_1236,59.9852439087,spanish_cond2,001,1014,
images/weight01.jpg,weight,z,sounds/animalfarm_english.wav,,,,,,,,,0,1,1,1,0,119,119,67,811.338481482,9.30100213736e-06,812.085511662,0.747040121583,,,,,z,1,0.733768256032,2018_Nov_14_1236,59.9852439087,spanish_cond2,001,1014,
images/squirrel.jpg,binder,x,sounds/animalfarm_english.wav,,,,,,,,,0,1,1,1,0,120,120,132,813.18757106,9.621726349e-06,813.952646114,0.765084996587,,,,,x,1,0.750423114747,2018_Nov_14_1236,59.9852439087,spanish_cond2,001,1014,
images/lock02a.jpg,lock,z,sounds/animalfarm_english.wav,,,,,,,,,0,1,1,1,0,121,121,65,815.06216779,9.30100213736e-06,816.069861951,1.0077041029,,,,,z,1,0.983801851748,2018_Nov_14_1236,59.9852439087,spanish_cond2,001,1014,
images/medal01.jpg,medal,z,sounds/animalfarm_english.wav,,,,,,,,,0,1,1,1,0,122,122,115,817.170065642,9.94245056063e-06,817.970352947,0.800298208836,,,,,z,1,0.783759772894,2018_Nov_14_1236,59.9852439087,spanish_cond2,001,1014,
images/dryingmachine01.jpg,drying machine,z,sounds/animalfarm_english.wav,,,,,,,,,0,1,1,1,0,123,123,18,819.089968758,9.621726349e-06,820.337648884,1.24769038882,,,,,z,1,1.23390279955,2018_Nov_14_1236,59.9852439087,spanish_cond2,001,1014,
images/lion.jpg,lion,z,sounds/animalfarm_english.wav,,,,,,,,,0,1,1,1,0,124,124,44,821.448866547,9.621726349e-06,822.354826201,0.905969276675,,,,,z,1,0.883793801651,2018_Nov_14_1236,59.9852439087,spanish_cond2,001,1014,
images/raisin.jpg,ruler,x,sounds/animalfarm_english.wav,,,,,,,,,0,1,1,1,0,125,125,218,823.458772738,9.62160993367e-06,824.221985991,0.763223195681,,,,,x,1,0.750440754462,2018_Nov_14_1236,59.9852439087,spanish_cond2,001,1014,
images/bat.jpg,hand,x,sounds/animalfarm_english.wav,,,,,,,,,0,1,1,1,0,126,126,185,825.318985974,9.94245056063e-06,825.955750078,0.636774366722,,,,,x,1,0.617036391632,2018_Nov_14_1236,59.9852439087,spanish_cond2,001,1014,
images/drink.jpg,drink,z,sounds/animalfarm_english.wav,,,,,,,,,0,1,1,1,0,127,127,117,827.056461154,9.30100213736e-06,827.622859129,0.566409841878,,,,,z,1,0.550379111432,2018_Nov_14_1236,59.9852439087,spanish_cond2,001,1014,
images/graduationcap.jpg,graduation cap,z,sounds/animalfarm_english.wav,,,,,,,,,0,1,1,1,0,128,128,35,828.725704622,9.30100213736e-06,829.806789976,1.08109529701,,,,,z,1,1.06719866174,2018_Nov_14_1236,59.9852439087,spanish_cond2,001,1014,
images/cheetah.jpg,cheetah,z,sounds/animalfarm_english.wav,,,,,,,,,0,1,1,1,0,129,129,82,830.910429901,9.621726349e-06,831.973976483,1.06355652388,,,,,z,1,1.05049826019,2018_Nov_14_1236,59.9852439087,spanish_cond2,001,1014,
images/lollipop03b.jpg,lollipop,z,sounds/animalfarm_english.wav,,,,,,,,,0,1,1,1,0,130,130,42,833.067762173,9.94245056063e-06,833.657761881,0.590009650565,,,,,z,1,0.567025631201,2018_Nov_14_1236,59.9852439087,spanish_cond2,001,1014,
images/croissant02b.jpg,croissant,z,sounds/animalfarm_english.wav,,,,,,,,,0,1,1,1,0,131,131,39,834.769309248,9.62160993367e-06,835.358214005,0.588914699969,,,,,z,1,0.567064759554,2018_Nov_14_1236,59.9852439087,spanish_cond2,001,1014,
images/gluestick.jpg,squirrel,x,sounds/animalfarm_english.wav,,,,,,,,,0,1,1,1,0,132,132,226,836.466231167,1.02631747723e-05,837.158666482,0.692445899593,,,,,x,1,0.683743383968,2018_Nov_14_1236,59.9852439087,spanish_cond2,001,1014,
images/doll.jpg,carrot,x,sounds/animalfarm_english.wav,,,,,,,,,0,1,1,1,0,133,133,146,838.270064392,9.621726349e-06,838.925782301,0.655728172627,,,,,z,0,0.633720756741,2018_Nov_14_1236,59.9852439087,spanish_cond2,001,1014,
images/pingpongpaddle01c (1).jpg,ping pong paddle,z,sounds/animalfarm_english.wav,,,,,,,,,0,1,1,1,0,134,134,10,840.037478163,9.30100213736e-06,840.659583271,0.622115050675,,,,,z,1,0.600401738426,2018_Nov_14_1236,59.9852439087,spanish_cond2,001,1014,
images/antelope.jpg,antelope,z,sounds/animalfarm_english.wav,,,,,,,,,0,1,1,1,0,135,135,12,841.763381312,9.30100213736e-06,842.510047149,0.746675458737,,,,,z,1,0.733644777443,2018_Nov_14_1236,59.9852439087,spanish_cond2,001,1014,
images/masquerademask02b.jpg,mirror,x,sounds/animalfarm_english.wav,,,,,,,,,0,1,1,1,0,136,136,204,843.614747066,9.621726349e-06,844.260505544,0.645768740913,,,,,x,1,0.633716266719,2018_Nov_14_1236,59.9852439087,spanish_cond2,001,1014,
images/boxingglove02a.jpg,bracelet,x,sounds/animalfarm_english.wav,,,,,,,,,0,1,1,1,0,137,137,135,845.372323601,9.30100213736e-06,846.561086471,1.18877313263,,,,,x,1,1.16718778911,2018_Nov_14_1236,59.9852439087,spanish_cond2,001,1014,
images/highheelshoe02a.jpg,high heel shoe,z,sounds/animalfarm_english.wav,,,,,,,,,0,1,1,1,0,138,138,75,847.668209454,9.621726349e-06,848.311555128,0.643355616136,,,,,z,1,0.633729416411,2018_Nov_14_1236,59.9852439087,spanish_cond2,001,1014,
images/barrel01.jpg,barrel,z,sounds/animalfarm_english.wav,,,,,,,,,0,1,1,1,0,139,139,9,849.442421605,9.30100213736e-06,850.045332685,0.602921343525,,,,,z,1,0.583714486682,2018_Nov_14_1236,59.9852439087,spanish_cond2,001,1014,
images/mushroom01.jpg,shower head,x,sounds/animalfarm_english.wav,,,,,,,,,0,1,1,1,0,140,140,222,851.16212677,9.621726349e-06,851.795797494,0.633680987172,,,,,x,1,0.617063653073,2018_Nov_14_1236,59.9852439087,spanish_cond2,001,1014,
images/button07.jpg,radish,x,sounds/animalfarm_english.wav,,,,,,,,,0,1,1,1,0,141,141,215,852.908672977,9.30100213736e-06,853.562918765,0.654255730216,,,,,x,1,0.633729416411,2018_Nov_14_1236,59.9852439087,spanish_cond2,001,1014,
images/pepper05a.jpg,lighter,x,sounds/animalfarm_english.wav,,,,,,,,,0,1,1,1,0,142,142,198,854.683942233,9.30100213736e-06,855.563437054,0.879505405668,,,,,x,1,0.867116492242,2018_Nov_14_1236,59.9852439087,spanish_cond2,001,1014,
images/butterfly.jpg,butterfly,z,sounds/animalfarm_english.wav,,,,,,,,,0,1,1,1,0,143,143,91,856.671411559,9.62160993367e-06,857.597300661,0.92589872377,,,,,z,1,0.917138477904,2018_Nov_14_1236,59.9852439087,spanish_cond2,001,1014,
images/hat05.jpg,hat,z,sounds/animalfarm_english.wav,,,,,,,,,0,1,1,1,0,144,144,15,858.701102872,9.621726349e-06,859.864565777,1.16347284708,,,,,z,1,1.15053998644,2018_Nov_14_1236,59.9852439087,spanish_cond2,001,1014,
images/banjo.jpg,knife,x,sounds/animalfarm_english.wav,,,,,,,,,0,1,1,1,0,145,145,191,860.96168539,9.30088572204e-06,861.731694136,0.770018688519,,,,,x,1,0.750424076919,2018_Nov_14_1236,59.9852439087,spanish_cond2,001,1014,
images/cactus.jpg,cactus,z,sounds/animalfarm_english.wav,,,,,,,,,0,1,1,1,0,146,146,70,862.843975318,8.98027792573e-06,863.915595156,1.07162977965,,,,,z,1,1.05050467467,2018_Nov_14_1236,59.9852439087,spanish_cond2,001,1014,
images/binder03b.jpg,dj mixer,x,sounds/animalfarm_english.wav,,,,,,,,,0,1,1,1,0,147,147,167,865.027997571,9.30100213736e-06,865.966129337,0.938141387189,,,,,x,1,0.917133346316,2018_Nov_14_1236,59.9852439087,spanish_cond2,001,1014,
images/calculator02b.jpg,dice,x,sounds/animalfarm_english.wav,,,,,,,,,0,1,1,1,0,148,148,165,867.068282066,9.621726349e-06,867.799938036,0.731665591709,,,,,x,1,0.717075872701,2018_Nov_14_1236,59.9852439087,spanish_cond2,001,1014,
images/grandpiano.jpg,tulip,x,sounds/animalfarm_english.wav,,,,,,,,,0,1,1,1,0,149,149,236,868.914759671,9.621726349e-06,869.700426466,0.785676738131,,,,,x,1,0.767085029278,2018_Nov_14_1236,59.9852439087,spanish_cond2,001,1014,
images/leaf01a.jpg,leaf,z,sounds/animalfarm_english.wav,,,,,,,,,0,1,1,1,0,150,150,68,870.803846375,9.94245056063e-06,871.550914078,0.747078929096,,,,,z,1,0.733758313581,2018_Nov_14_1236,59.9852439087,spanish_cond2,001,1014,
images/ostrich.jpg,ostrich,z,sounds/animalfarm_english.wav,,,,,,,,,0,1,1,1,0,151,151,76,872.651607836,9.621726349e-06,873.43476978,0.78317220707,,,,,z,1,0.767138590221,2018_Nov_14_1236,59.9852439087,spanish_cond2,001,1014,
images/hairband.jpg,hairband,z,sounds/animalfarm_english.wav,,,,,,,,,0,1,1,1,0,152,152,66,874.544660609,9.94233414531e-06,875.185355501,0.640705155791,,,,,z,1,0.617232033052,2018_Nov_14_1236,59.9852439087,spanish_cond2,001,1014,
images/donut.jpg,rhinoceros,x,sounds/animalfarm_english.wav,,,,,,,,,0,1,1,1,0,153,153,216,876.310551584,9.94245056063e-06,878.386011445,2.07546980411,,,,,x,1,2.06744048733,2018_Nov_14_1236,59.9852439087,spanish_cond2,001,1014,
images/notebook02b.jpg,notebook,z,sounds/animalfarm_english.wav,,,,,,,,,0,1,1,1,0,154,154,7,879.492925638,9.62160993367e-06,880.903325551,1.41041017661,,,,,z,1,1.40058512823,2018_Nov_14_1236,59.9852439087,spanish_cond2,001,1014,
images/belt02a.jpg,snowman,x,sounds/animalfarm_english.wav,,,,,,,,,0,1,1,1,0,155,155,224,882.007315386,9.94233414531e-06,882.72046945,0.713164006127,,,,,x,1,0.700420693262,2018_Nov_14_1236,59.9852439087,spanish_cond2,001,1014,
images/bed.jpg,bed,z,sounds/animalfarm_english.wav,,,,,,,,,0,1,1,1,0,156,156,103,883.840736009,9.94245056063e-06,884.537610461,0.696885035606,,,,,z,1,0.683745628921,2018_Nov_14_1236,59.9852439087,spanish_cond2,001,1014,
images/carrot02.jpg,corkscrew,x,sounds/animalfarm_english.wav,,,,,,,,,0,1,1,1,0,157,157,161,885.640458199,9.30100213736e-06,886.254723217,0.614274960826,,,,,x,1,0.600386664388,2018_Nov_14_1236,59.9852439087,spanish_cond2,001,1014,
images/giraffe.jpg,lettuce,x,sounds/animalfarm_english.wav,,,,,,,,,0,1,1,1,0,158,158,195,887.356722961,9.621726349e-06,888.121873706,0.765161008108,,,,,x,1,0.750434019254,2018_Nov_14_1236,59.9852439087,spanish_cond2,001,1014,
images/diaper01a.jpg,camera,x,sounds/animalfarm_english.wav,,,,,,,,,0,1,1,1,0,159,159,143,889.242651179,9.621726349e-06,889.955678877,0.713037641137,,,,,x,1,0.700403374154,2018_Nov_14_1236,59.9852439087,spanish_cond2,001,1014,
images/nametag01a.jpg,name tag,z,sounds/animalfarm_english.wav,,,,,,,,,0,1,1,1,0,160,160,108,891.076395092,9.94245056063e-06,891.789486614,0.713101144414,,,,,z,1,0.700412033591,2018_Nov_14_1236,59.9852439087,spanish_cond2,001,1014,
images/plate01b.jpg,plate,z,sounds/animalfarm_english.wav,,,,,,,,,0,1,1,1,0,161,161,3,892.890226877,9.62160993367e-06,893.523260643,0.633044350543,,,,,z,1,0.617052427726,2018_Nov_14_1236,59.9852439087,spanish_cond2,001,1014,
images/tape01a.jpg,tie,x,sounds/animalfarm_english.wav,,,,,,,,,0,1,1,1,0,162,162,232,894.649724867,9.621726349e-06,895.474007432,0.824292507605,,,,,x,1,0.800652608508,2018_Nov_14_1236,59.9852439087,spanish_cond2,001,1014,
images/pouch01b.jpg,pouch,z,sounds/animalfarm_english.wav,,,,,,,,,0,1,1,1,0,163,163,25,896.58682743,8.98027792573e-06,897.374441339,0.787623851444,,,,,z,1,0.767269766191,2018_Nov_14_1236,59.9852439087,spanish_cond2,001,1014,
images/charcoalbarbecue.jpg,charcoal barbecue,z,sounds/animalfarm_english.wav,,,,,,,,,0,1,1,1,0,164,164,77,898.49217322,9.30100213736e-06,899.224745818,0.732582861325,,,,,z,1,0.717081966461,2018_Nov_14_1236,59.9852439087,spanish_cond2,001,1014,
images/comb02a.jpg,diploma,x,sounds/animalfarm_english.wav,,,,,,,,,0,1,1,1,0,165,165,166,900.32966511,9.62160993367e-06,901.00853606,0.678880571737,,,,,x,1,0.667069602525,2018_Nov_14_1236,59.9852439087,spanish_cond2,001,1014,
images/bullet (2).jpg,rubber glove,x,sounds/animalfarm_english.wav,,,,,,,,,0,1,1,1,0,166,166,217,902.115569883,9.94245056063e-06,902.959044872,0.843485573423,,,,,x,1,0.83378175844,2018_Nov_14_1236,59.9852439087,spanish_cond2,001,1014,
images/beachumbrella01.jpg,beach umbrella,z,sounds/animalfarm_english.wav,,,,,,,,,0,1,1,1,0,167,167,92,904.065262774,9.30100213736e-06,904.926223938,0.860971106333,,,,,z,1,0.850454256986,2018_Nov_14_1236,59.9852439087,spanish_cond2,001,1014,
images/globe.jpg,cloud,x,sounds/animalfarm_english.wav,,,,,,,,,0,1,1,1,0,168,168,154,906.054506344,9.621726349e-06,906.843392563,0.788896162179,,,,,x,1,0.767100103316,2018_Nov_14_1236,59.9852439087,spanish_cond2,001,1014,
images/cola.jpg,comb,x,sounds/animalfarm_english.wav,,,,,,,,,0,1,1,1,0,169,169,157,907.965055875,8.98027792573e-06,908.860585276,0.895539664081,,,,,x,1,0.883799574687,2018_Nov_14_1236,59.9852439087,spanish_cond2,001,1014,
images/cherry01.jpg,highlighter,x,sounds/animalfarm_english.wav,,,,,,,,,0,1,1,1,0,170,170,187,909.969891425,9.30100213736e-06,910.761067933,0.791186449816,,,,,x,1,0.767098499695,2018_Nov_14_1236,59.9852439087,spanish_cond2,001,1014,
images/hand01a.jpg,cupcake,x,sounds/animalfarm_english.wav,,,,,,,,,0,1,1,1,0,171,171,163,911.872813507,9.621726349e-06,912.494879807,0.62207656377,,,,,x,1,0.600417453912,2018_Nov_14_1236,59.9852439087,spanish_cond2,001,1014,
images/sunglasses03a.jpg,sun glasses,z,sounds/animalfarm_english.wav,,,,,,,,,0,1,1,1,0,172,172,17,913.603610899,9.621726349e-06,914.362230107,0.758629150107,,,,,z,1,0.750653073541,2018_Nov_14_1236,59.9852439087,spanish_cond2,001,1014,
images/camera01a.jpg,bull,x,sounds/animalfarm_english.wav,,,,,,,,,0,1,1,1,0,173,173,138,915.473521215,9.621726349e-06,916.129112118,0.655600524507,,,,,x,1,0.633713059477,2018_Nov_14_1236,59.9852439087,spanish_cond2,001,1014,
images/dresser02.jpg,dresser,z,sounds/animalfarm_english.wav,,,,,,,,,0,1,1,1,0,174,174,87,917.251676984,9.621726349e-06,917.912926093,0.661259693443,,,,,z,1,0.650406084256,2018_Nov_14_1236,59.9852439087,spanish_cond2,001,1014,
images/lightswitch02a.jpg,fork,x,sounds/animalfarm_english.wav,,,,,,,,,0,1,1,1,0,175,175,177,919.025226519,9.621726349e-06,920.146843967,1.12162739027,,,,,x,1,1.10052249092,2018_Nov_14_1236,59.9852439087,spanish_cond2,001,1014,
images/parkfountain.jpg,park fountain,z,sounds/animalfarm_english.wav,,,,,,,,,0,1,1,1,0,176,176,93,921.26686806,9.94233414531e-06,922.197382318,0.930524841766,,,,,z,1,0.917149061803,2018_Nov_14_1236,59.9852439087,spanish_cond2,001,1014,
images/skateboard.jpg,key,x,sounds/animalfarm_english.wav,,,,,,,,,0,1,1,1,0,177,177,189,923.289362013,9.30100213736e-06,923.981170314,0.691818243358,,,,,x,1,0.683745628921,2018_Nov_14_1236,59.9852439087,spanish_cond2,001,1014,
images/aquarium.jpg,computer mouse,x,sounds/animalfarm_english.wav,,,,,,,,,0,1,1,1,0,178,178,159,925.117480754,9.621726349e-06,925.814810954,0.697340463172,,,,,x,1,0.683577890508,2018_Nov_14_1236,59.9852439087,spanish_cond2,001,1014,
images/paintbrush03a.jpg,paint brush,z,sounds/animalfarm_english.wav,,,,,,,,,0,1,1,1,0,179,179,0,926.916112162,9.621726349e-06,927.565432276,0.649330056389,,,,,z,1,0.633741283091,2018_Nov_14_1236,59.9852439087,spanish_cond2,001,1014,
images/redfox.jpg,red fox,z,sounds/animalfarm_english.wav,,,,,,,,,0,1,1,1,0,180,180,1,928.678621106,9.94245056063e-06,929.33254585,0.653935006703,,,,,z,1,0.633726529777,2018_Nov_14_1236,59.9852439087,spanish_cond2,001,1014,
images/gorilla.jpg,gorilla,z,sounds/animalfarm_english.wav,,,,,,,,,0,1,1,1,0,181,181,80,930.444625618,9.94245056063e-06,931.116354373,0.671738697449,,,,,z,1,0.650395821081,2018_Nov_14_1236,59.9852439087,spanish_cond2,001,1014,
images/8ball.jpg,nail clipper,x,sounds/animalfarm_english.wav,,,,,,,,,0,1,1,1,0,182,182,206,932.233402471,9.621726349e-06,932.850122629,0.616730100475,,,,,x,1,0.600367421051,2018_Nov_14_1236,59.9852439087,spanish_cond2,001,1014,
images/triangleruler02.jpg,bottle of red wine,x,sounds/animalfarm_english.wav,,,,,,,,,0,1,1,1,0,183,183,134,933.961667429,9.30100213736e-06,934.667266206,0.705609039753,,,,,x,1,0.683744666749,2018_Nov_14_1236,59.9852439087,spanish_cond2,001,1014,
images/bottleofredwine02.jpg,pipe,x,sounds/animalfarm_english.wav,,,,,,,,,0,1,1,1,0,184,184,213,935.767184774,9.621726349e-06,936.501066246,0.733891734621,,,,,x,1,0.717073306907,2018_Nov_14_1236,59.9852439087,spanish_cond2,001,1014,
images/screw03c.jpg,screw,z,sounds/animalfarm_english.wav,,,,,,,,,0,1,1,1,0,185,185,84,937.595406147,9.621726349e-06,938.334920488,0.739524283446,,,,,z,1,0.717121736147,2018_Nov_14_1236,59.9852439087,spanish_cond2,001,1014,
images/licenseplate.jpg,license plate,z,sounds/animalfarm_english.wav,,,,,,,,,0,1,1,1,0,186,186,40,939.452917286,9.621726349e-06,940.21871461,0.765807266231,,,,,z,1,0.750431774301,2018_Nov_14_1236,59.9852439087,spanish_cond2,001,1014,
images/grasshopper.jpg,cauliflower,x,sounds/animalfarm_english.wav,,,,,,,,,0,1,1,1,0,187,187,148,941.312827439,9.62160993367e-06,942.085863816,0.773046640563,,,,,x,1,0.750434660702,2018_Nov_14_1236,59.9852439087,spanish_cond2,001,1014,
images/corkscrew02a.jpg,masquerade mask,x,sounds/animalfarm_english.wav,,,,,,,,,0,1,1,1,0,188,188,201,943.190807483,1.05838989839e-05,943.886320783,0.695523563772,,,,,x,1,0.683743704576,2018_Nov_14_1236,59.9852439087,spanish_cond2,001,1014,
images/gamecontroller01.jpg,game controller,z,sounds/animalfarm_english.wav,,,,,,,,,0,1,1,1,0,189,189,112,945.007008453,9.621726349e-06,945.786811779,0.779814230511,,,,,z,1,0.767097858246,2018_Nov_14_1236,59.9852439087,spanish_cond2,001,1014,
images/parkbench03.jpg,park bench,z,sounds/animalfarm_english.wav,,,,,,,,,0,1,1,1,0,190,190,71,946.892139993,9.94245056063e-06,947.470568633,0.578438903322,,,,,z,1,0.567039101617,2018_Nov_14_1236,59.9852439087,spanish_cond2,001,1014,
images/orange.jpg,bat,x,sounds/animalfarm_english.wav,,,,,,,,,0,1,1,1,0,191,191,128,948.59612553,9.62160993367e-06,949.354405733,0.758290465921,,,,,x,1,0.733732014196,2018_Nov_14_1236,59.9852439087,spanish_cond2,001,1014,
images/blackolive.jpg,tank,x,sounds/animalfarm_english.wav,,,,,,,,,0,1,1,1,0,192,192,229,950.469219028,9.30100213736e-06,951.554971874,1.08576278831,,,,,x,1,1.06717107946,2018_Nov_14_1236,59.9852439087,spanish_cond2,001,1014,
images/tank.jpg,wallet,x,sounds/animalfarm_english.wav,,,,,,,,,0,1,1,1,0,193,193,237,952.660629471,1.60362105817e-05,953.72220713,1.0615940158,,,,,x,1,1.05045752833,2018_Nov_14_1236,59.9852439087,spanish_cond2,001,1014,
images/ear.jpg,bullet,x,sounds/animalfarm_english.wav,,,,,,,,,0,1,1,1,0,194,194,139,954.82595546,9.30100213736e-06,956.389575327,1.56363013003,,,,,x,1,1.55064787774,2018_Nov_14_1236,59.9852439087,spanish_cond2,001,1014,
images/safe.jpg,safe,z,sounds/animalfarm_english.wav,,,,,,,,,0,1,1,1,0,195,195,78,957.501022948,8.98027792573e-06,958.356737394,0.855724067311,,,,,z,1,0.833783041337,2018_Nov_14_1236,59.9852439087,spanish_cond2,001,1014,
images/hammer02a.jpg,flower,x,sounds/animalfarm_english.wav,,,,,,,,,0,1,1,1,0,196,196,176,959.452983997,9.94245056063e-06,960.490627332,1.03765391931,,,,,x,1,1.01716288493,2018_Nov_14_1236,59.9852439087,spanish_cond2,001,1014,
images/aloe02.jpg,broad sword,x,sounds/animalfarm_english.wav,,,,,,,,,0,1,1,1,0,197,197,137,961.611629632,1.05837825686e-05,963.27468634,1.66306665051,,,,,x,1,1.65066971909,2018_Nov_14_1236,59.9852439087,spanish_cond2,001,1014,
images/bowlingball.jpg,bowling ball,z,sounds/animalfarm_english.wav,,,,,,,,,0,1,1,1,0,198,198,20,964.407900514,9.94245056063e-06,965.175177015,0.767286764458,,,,,z,1,0.7504253597,2018_Nov_14_1236,59.9852439087,spanish_cond2,001,1014,
images/arrow02.jpg,hammer,x,sounds/animalfarm_english.wav,,,,,,,,,0,1,1,1,0,199,199,184,966.272571168,9.30088572204e-06,967.109013008,0.836451782845,,,,,x,1,0.817104769754,2018_Nov_14_1236,59.9852439087,spanish_cond2,001,1014,
