images,name,corrAns,sounds,trials_3.thisRepN,trials_3.thisTrialN,trials_3.thisN,trials_3.thisIndex,trials_4.thisRepN,trials_4.thisTrialN,trials_4.thisN,trials_4.thisIndex,trials_2.thisRepN,trials_2.thisTrialN,trials_2.thisN,trials_2.thisIndex,trials.thisRepN,trials.thisTrialN,trials.thisN,trials.thisIndex,begin_global,begin_routine,end_global,end_routine,key_resp_2.keys,key_resp_2.corr,key_resp_2.rt,begin_book,key_resp_1.keys,key_resp_1.corr,key_resp_1.rt,date,frameRate,expName,session,participant,
images/volleyball.jpg,volley ball,z,,0,0,0,0,,,,,,,,,,,,,,,,,,,,,,,,2018_Nov_14_1404,59.9893217356,chinese_cond2,001,1020,
images/puma.jpg,puma,z,,,,,,0,0,0,0,,,,,,,,,48.1604928768,1.05838989839e-05,50.9551043173,2.79462362803,x,0,2.78433189355,,,,,2018_Nov_14_1404,59.9893217356,chinese_cond2,001,1020,
images/razor04a.jpg,razor,z,sounds/greatgatsby_chinese.wav,,,,,,,,,0,0,0,0,0,0,0,36,93.2761795531,1.02631747723e-05,96.0166760798,2.74050711072,,,,82.9519692335,None,0,,2018_Nov_14_1404,59.9893217356,chinese_cond2,001,1020,
images/broom02.jpg,broom,z,sounds/greatgatsby_chinese.wav,,,,,,,,,0,0,0,0,0,1,1,116,97.1785532045,9.621726349e-06,99.8679400077,2.68939738709,,,,,z,1,2.66763461381,2018_Nov_14_1404,59.9893217356,chinese_cond2,001,1020,
images/lettuce.jpg,mushroom,x,sounds/greatgatsby_chinese.wav,,,,,,,,,0,0,0,0,0,2,2,205,101.073071667,9.30100213736e-06,102.168384628,1.09532290394,,,,,x,1,1.08369054052,2018_Nov_14_1404,59.9893217356,chinese_cond2,001,1020,
images/shotglass.jpg,shot glass,z,sounds/greatgatsby_chinese.wav,,,,,,,,,0,0,0,0,0,3,3,86,103.331430474,8.98027792573e-06,105.70277738,2.37135748973,,,,,z,1,2.35085805075,2018_Nov_14_1404,59.9893217356,chinese_cond2,001,1020,
images/electrictoothbrush01a.jpg,banjo,x,sounds/greatgatsby_chinese.wav,,,,,,,,,0,0,0,0,0,4,4,127,106.882665761,9.30100213736e-06,108.920133139,2.03747796221,,,,,x,1,2.01728321181,2018_Nov_14_1404,59.9893217356,chinese_cond2,001,1020,
images/watermelon01.jpg,orange,x,sounds/greatgatsby_chinese.wav,,,,,,,,,0,0,0,0,0,5,5,207,110.13389582,9.621726349e-06,111.087530256,0.953644378576,,,,,x,1,0.933782540262,2018_Nov_14_1404,59.9893217356,chinese_cond2,001,1020,
images/binder03b.jpg,dj mixer,x,sounds/greatgatsby_chinese.wav,,,,,,,,,0,0,0,0,0,6,6,167,112.32767126,9.30100213736e-06,114.788506125,2.46084512875,,,,,x,1,2.45089849411,2018_Nov_14_1404,59.9893217356,chinese_cond2,001,1020,
images/coffeepot03b.jpg,coffee pot,z,sounds/greatgatsby_chinese.wav,,,,,,,,,0,0,0,0,0,7,7,107,115.996869406,8.98027792573e-06,117.855973128,1.85911302303,,,,,z,1,1.85073954309,2018_Nov_14_1404,59.9893217356,chinese_cond2,001,1020,
images/beermug01b.jpg,beer mug,z,sounds/greatgatsby_chinese.wav,,,,,,,,,0,0,0,0,0,8,8,111,119.078194282,9.30111855268e-06,122.073867385,2.99569362972,,,,,None,0,,2018_Nov_14_1404,59.9893217356,chinese_cond2,001,1020,
images/aloe02.jpg,broad sword,x,sounds/greatgatsby_chinese.wav,,,,,,,,,0,0,0,0,0,9,9,137,123.288707701,9.621726349e-06,125.007856472,1.7191590342,,,,,x,1,1.70070357365,2018_Nov_14_1404,59.9893217356,chinese_cond2,001,1020,
images/crocodile.jpg,triangle ruler,x,sounds/greatgatsby_chinese.wav,,,,,,,,,0,0,0,0,0,10,10,235,126.185557511,9.94245056063e-06,128.225366821,2.03981957317,,,,,x,1,2.01745223359,2018_Nov_14_1404,59.9893217356,chinese_cond2,001,1020,
images/dresser02.jpg,dresser,z,sounds/greatgatsby_chinese.wav,,,,,,,,,0,0,0,0,0,11,11,87,129.434749044,9.30100213736e-06,130.625993645,1.19125390204,,,,,x,0,1.16722136002,2018_Nov_14_1404,59.9893217356,chinese_cond2,001,1020,
images/tie01.jpg,bench,x,sounds/greatgatsby_chinese.wav,,,,,,,,,0,0,0,0,0,12,12,130,131.762682977,9.621726349e-06,132.859896874,1.09722415998,,,,,x,1,1.08385795867,2018_Nov_14_1404,59.9893217356,chinese_cond2,001,1020,
images/atm.jpg,atm,z,sounds/greatgatsby_chinese.wav,,,,,,,,,0,0,0,0,0,13,13,96,134.134304423,9.30100213736e-06,135.077156737,0.942861935357,,,,,z,1,0.933798255865,2018_Nov_14_1404,59.9893217356,chinese_cond2,001,1020,
images/eyedrops.jpg,bicycle,x,sounds/greatgatsby_chinese.wav,,,,,,,,,0,0,0,0,0,14,14,131,136.244333837,9.30100213736e-06,137.394435234,1.15011166024,,,,,x,1,1.13388363284,2018_Nov_14_1404,59.9893217356,chinese_cond2,001,1020,
images/basketball01.jpg,basket ball,z,sounds/greatgatsby_chinese.wav,,,,,,,,,0,0,0,0,0,15,15,33,138.571055752,9.621726349e-06,140.912124644,2.34115644975,,,,,z,1,2.31753603905,2018_Nov_14_1404,59.9893217356,chinese_cond2,001,1020,
images/dryingmachine01.jpg,drying machine,z,sounds/greatgatsby_chinese.wav,,,,,,,,,0,0,0,0,0,16,16,18,142.129919796,9.30100213736e-06,144.046203919,1.916293744,,,,,z,1,1.90077451803,2018_Nov_14_1404,59.9893217356,chinese_cond2,001,1020,
images/sock03.jpg,sock,z,sounds/greatgatsby_chinese.wav,,,,,,,,,0,0,0,0,0,17,17,90,145.233768525,1.41118653119e-05,146.230083398,0.996328985319,,,,,z,1,0.983841249021,2018_Nov_14_1404,59.9893217356,chinese_cond2,001,1020,
images/lip.jpg,boxing glove,x,sounds/greatgatsby_chinese.wav,,,,,,,,,0,0,0,0,0,18,18,136,147.430026694,8.98027792573e-06,149.014169617,1.58415222366,,,,,x,1,1.56734721235,2018_Nov_14_1404,59.9893217356,chinese_cond2,001,1020,
images/flashlight05.jpg,flash light,z,sounds/greatgatsby_chinese.wav,,,,,,,,,0,0,0,0,0,19,19,8,150.204643837,8.98027792573e-06,151.348094366,1.14345983032,,,,,z,1,1.13386246492,2018_Nov_14_1404,59.9893217356,chinese_cond2,001,1020,
images/weight01.jpg,weight,z,sounds/greatgatsby_chinese.wav,,,,,,,,,0,0,0,0,0,20,20,67,152.536232749,9.30100213736e-06,154.248905768,1.71268296149,,,,,z,1,1.70075007877,2018_Nov_14_1404,59.9893217356,chinese_cond2,001,1020,
images/cigar.jpg,crocodile,x,sounds/greatgatsby_chinese.wav,,,,,,,,,0,0,0,0,0,21,21,162,155.431544042,8.98027792573e-06,156.782851749,1.35131732852,,,,,x,1,1.33393084339,2018_Nov_14_1404,59.9893217356,chinese_cond2,001,1020,
images/tank.jpg,wallet,x,sounds/greatgatsby_chinese.wav,,,,,,,,,0,0,0,0,0,22,22,237,157.973816357,9.30111855268e-06,158.933415952,0.959609216312,,,,,x,1,0.950498390128,2018_Nov_14_1404,59.9893217356,chinese_cond2,001,1020,
images/orange.jpg,bat,x,sounds/greatgatsby_chinese.wav,,,,,,,,,0,0,0,0,0,23,23,128,160.193014681,8.98027792573e-06,161.234033443,1.04102806363,,,,,x,1,1.01719340892,2018_Nov_14_1404,59.9893217356,chinese_cond2,001,1020,
images/antelope.jpg,antelope,z,sounds/greatgatsby_chinese.wav,,,,,,,,,0,0,0,0,0,24,24,12,162.423919775,9.621726349e-06,163.501295247,1.07738605537,,,,,x,0,1.0672065746,2018_Nov_14_1404,59.9893217356,chinese_cond2,001,1020,
images/bicycle.jpg,hand bag,x,sounds/greatgatsby_chinese.wav,,,,,,,,,0,0,0,0,0,25,25,186,164.64322073,9.30100213736e-06,165.568498293,0.925287826336,,,,,x,1,0.917149758199,2018_Nov_14_1404,59.9893217356,chinese_cond2,001,1020,
images/gorilla.jpg,gorilla,z,sounds/greatgatsby_chinese.wav,,,,,,,,,0,0,0,0,0,26,26,80,166.733609606,8.98039434105e-06,167.969107798,1.23550749396,,,,,z,1,1.21721015067,2018_Nov_14_1404,59.9893217356,chinese_cond2,001,1020,
images/pictureframe04.jpg,picture frame,z,sounds/greatgatsby_chinese.wav,,,,,,,,,0,0,0,0,0,27,27,41,169.138635169,9.621726349e-06,170.203042779,1.06441787351,,,,,z,1,1.05052375945,2018_Nov_14_1404,59.9893217356,chinese_cond2,001,1020,
images/bottleofredwine02.jpg,pipe,x,sounds/greatgatsby_chinese.wav,,,,,,,,,0,0,0,0,0,28,28,213,171.382856432,8.98027792573e-06,172.136886578,0.754039767897,,,,,z,0,0.733769647195,2018_Nov_14_1404,59.9893217356,chinese_cond2,001,1020,
images/banjo.jpg,knife,x,sounds/greatgatsby_chinese.wav,,,,,,,,,0,0,0,0,0,29,29,191,173.307271566,9.621726349e-06,174.437506314,1.13024501118,,,,,x,1,1.11721941957,2018_Nov_14_1404,59.9893217356,chinese_cond2,001,1020,
images/mattress.jpg,cat,x,sounds/greatgatsby_chinese.wav,,,,,,,,,0,0,0,0,0,30,30,147,175.57510458,9.30100213736e-06,176.538045164,0.962950525922,,,,,x,1,0.95045284729,2018_Nov_14_1404,59.9893217356,chinese_cond2,001,1020,
images/peach01.jpg,peach,z,sounds/greatgatsby_chinese.wav,,,,,,,,,0,0,0,0,0,31,31,106,177.779291705,9.621726349e-06,178.638598125,0.859316362534,,,,,z,1,0.850475907326,2018_Nov_14_1404,59.9893217356,chinese_cond2,001,1020,
images/lighter02b.jpg,stapler,x,sounds/greatgatsby_chinese.wav,,,,,,,,,0,0,0,0,0,32,32,227,179.903989783,9.30100213736e-06,181.089236832,1.18525699188,,,,,x,1,1.16715336638,2018_Nov_14_1404,59.9893217356,chinese_cond2,001,1020,
images/desktopcomputer.jpg,desktop computer,z,sounds/greatgatsby_chinese.wav,,,,,,,,,0,0,0,0,0,33,33,16,182.275118275,9.621726349e-06,184.706951932,2.43184456136,,,,,z,1,2.41764704185,2018_Nov_14_1404,59.9893217356,chinese_cond2,001,1020,
images/umbrella01.jpg,umbrella,z,sounds/greatgatsby_chinese.wav,,,,,,,,,0,0,0,0,0,34,34,53,185.822906734,1.02631747723e-05,187.024138381,1.20124223083,,,,,z,1,1.18385093485,2018_Nov_14_1404,59.9893217356,chinese_cond2,001,1020,
images/cockroach02.jpg,belt,x,sounds/greatgatsby_chinese.wav,,,,,,,,,0,0,0,0,0,35,35,129,188.215474389,9.621726349e-06,189.491434245,1.27596947853,,,,,x,1,1.26725025731,2018_Nov_14_1404,59.9893217356,chinese_cond2,001,1020,
images/blackolive.jpg,tank,x,sounds/greatgatsby_chinese.wav,,,,,,,,,0,0,0,0,0,36,36,229,190.687695943,9.30100213736e-06,193.675707575,2.98802189517,,,,,None,0,,2018_Nov_14_1404,59.9893217356,chinese_cond2,001,1020,
images/cola.jpg,comb,x,sounds/greatgatsby_chinese.wav,,,,,,,,,0,0,0,0,0,37,37,157,194.894280805,8.98039434105e-06,195.759748347,0.865477804444,,,,,x,1,0.850475265877,2018_Nov_14_1404,59.9893217356,chinese_cond2,001,1020,
images/lantern03.jpg,lantern,z,sounds/greatgatsby_chinese.wav,,,,,,,,,0,0,0,0,0,38,38,5,196.947846959,9.30100213736e-06,198.160393452,1.21255643549,,,,,z,1,1.20056453964,2018_Nov_14_1404,59.9893217356,chinese_cond2,001,1020,
images/showerhead01.jpg,skateboard,x,sounds/greatgatsby_chinese.wav,,,,,,,,,0,0,0,0,0,39,39,223,199.298136365,9.621726349e-06,200.727718855,1.42959307414,,,,,x,1,1.41728077433,2018_Nov_14_1404,59.9893217356,chinese_cond2,001,1020,
images/gps.jpg,gps,z,sounds/greatgatsby_chinese.wav,,,,,,,,,0,0,0,0,0,40,40,21,201.918494236,9.30100213736e-06,203.128344076,1.20985946164,,,,,z,1,1.20056935039,2018_Nov_14_1404,59.9893217356,chinese_cond2,001,1020,
images/printer03a.jpg,printer,z,sounds/greatgatsby_chinese.wav,,,,,,,,,0,0,0,0,0,41,41,72,204.336175595,8.98027792573e-06,205.245612566,0.909445951344,,,,,z,1,0.900529484381,2018_Nov_14_1404,59.9893217356,chinese_cond2,001,1020,
images/parkingmeter.jpg,ear,x,sounds/greatgatsby_chinese.wav,,,,,,,,,0,0,0,0,0,42,42,171,206.534115645,8.98039434105e-06,207.696206372,1.16210034909,,,,,x,1,1.1505481666,2018_Nov_14_1404,59.9893217356,chinese_cond2,001,1020,
images/comb02a.jpg,diploma,x,sounds/greatgatsby_chinese.wav,,,,,,,,,0,0,0,0,0,43,43,166,208.877441797,9.30100213736e-06,210.13019145,1.25275991601,,,,,x,1,1.23391349229,2018_Nov_14_1404,59.9893217356,chinese_cond2,001,1020,
images/bed.jpg,bed,z,sounds/greatgatsby_chinese.wav,,,,,,,,,0,0,0,0,0,44,44,103,211.27130999,9.30100213736e-06,212.014007009,0.742706640507,,,,,z,1,0.733757780399,2018_Nov_14_1404,59.9893217356,chinese_cond2,001,1020,
images/flower01.jpg,bus,x,sounds/greatgatsby_chinese.wav,,,,,,,,,0,0,0,0,0,45,45,140,213.208439934,9.621726349e-06,214.031216775,0.822787103825,,,,,x,1,0.800467873225,2018_Nov_14_1404,59.9893217356,chinese_cond2,001,1020,
images/hairdryer03a.jpg,hairdryer,z,sounds/greatgatsby_chinese.wav,,,,,,,,,0,0,0,0,0,46,46,119,215.20429104,9.30100213736e-06,216.065092357,0.860811260296,,,,,z,1,0.850479435292,2018_Nov_14_1404,59.9893217356,chinese_cond2,001,1020,
images/cocktailshrimp01.jpg,cocktail shrimp,z,sounds/greatgatsby_chinese.wav,,,,,,,,,0,0,0,0,0,47,47,30,217.279235418,9.30100213736e-06,218.282318544,1.00309306884,,,,,z,1,0.983825854259,2018_Nov_14_1404,59.9893217356,chinese_cond2,001,1020,
images/pineapple01a.jpg,pineapple,z,sounds/greatgatsby_chinese.wav,,,,,,,,,0,0,0,0,0,48,48,51,219.480604656,9.621726349e-06,220.616268311,1.13567423867,,,,,z,1,1.11720145901,2018_Nov_14_1404,59.9893217356,chinese_cond2,001,1020,
images/eraser.jpg,eraser,z,sounds/greatgatsby_chinese.wav,,,,,,,,,0,0,0,0,0,49,49,110,221.755153965,9.94245056063e-06,223.700406583,1.94526288041,,,,,z,1,1.9340881909,2018_Nov_14_1404,59.9893217356,chinese_cond2,001,1020,
images/screw03c.jpg,screw,z,sounds/greatgatsby_chinese.wav,,,,,,,,,0,0,0,0,0,50,50,84,224.888360869,8.98027792573e-06,226.184395205,1.29604331579,,,,,z,1,1.2839215264,2018_Nov_14_1404,59.9893217356,chinese_cond2,001,1020,
images/straw.jpg,straw,z,sounds/greatgatsby_chinese.wav,,,,,,,,,0,0,0,0,0,51,51,109,227.299796115,8.98027792573e-06,228.585020105,1.28523393173,,,,,z,1,1.26722941024,2018_Nov_14_1404,59.9893217356,chinese_cond2,001,1020,
images/marker01a.jpg,marker,z,sounds/greatgatsby_chinese.wav,,,,,,,,,0,0,0,0,0,52,52,95,229.755139854,9.30100213736e-06,230.885618994,1.13048940338,,,,,z,1,1.11719119595,2018_Nov_14_1404,59.9893217356,chinese_cond2,001,1020,
images/gluestick.jpg,squirrel,x,sounds/greatgatsby_chinese.wav,,,,,,,,,0,0,0,0,0,53,53,226,232.022716288,9.30100213736e-06,234.586600957,2.56389429036,,,,,x,1,2.55091456254,2018_Nov_14_1404,59.9893217356,chinese_cond2,001,1020,
images/battery03b.jpg,battery,z,sounds/greatgatsby_chinese.wav,,,,,,,,,0,0,0,0,0,54,54,34,235.77262865,9.30100213736e-06,237.153938226,1.38131919841,,,,,z,1,1.36727338156,2018_Nov_14_1404,59.9893217356,chinese_cond2,001,1020,
images/toucan.jpg,toucan,z,sounds/greatgatsby_chinese.wav,,,,,,,,,0,0,0,0,0,55,55,81,238.340202935,9.30100213736e-06,239.821310167,1.48111749464,,,,,x,0,1.46729746799,2018_Nov_14_1404,59.9893217356,chinese_cond2,001,1020,
images/masquerademask02b.jpg,mirror,x,sounds/greatgatsby_chinese.wav,,,,,,,,,0,0,0,0,0,56,56,204,241.011172124,8.6595537141e-06,241.971883029,0.960720847943,,,,,z,0,0.950506408233,2018_Nov_14_1404,59.9893217356,chinese_cond2,001,1020,
images/remotecontrol01c.jpg,remote control,z,sounds/greatgatsby_chinese.wav,,,,,,,,,0,0,0,0,0,57,57,85,243.19934322,9.30100213736e-06,244.322498933,1.12316565518,,,,,z,1,1.10054494336,2018_Nov_14_1404,59.9893217356,chinese_cond2,001,1020,
images/bandaid01.jpg,door handle,x,sounds/greatgatsby_chinese.wav,,,,,,,,,0,0,0,0,0,58,58,170,245.457379378,9.621726349e-06,247.306598686,1.849228609,,,,,x,1,1.83405897301,2018_Nov_14_1404,59.9893217356,chinese_cond2,001,1020,
images/rhinoceros01.jpg,envelope,x,sounds/greatgatsby_chinese.wav,,,,,,,,,0,0,0,0,0,59,59,173,248.512348381,9.621726349e-06,249.807275575,1.2949377778,,,,,x,1,1.28393692116,2018_Nov_14_1404,59.9893217356,chinese_cond2,001,1020,
images/rubberglove02a.jpg,lady bug,x,sounds/greatgatsby_chinese.wav,,,,,,,,,0,0,0,0,0,60,60,192,250.94341294,9.30100213736e-06,252.374608355,1.43120503635,,,,,x,1,1.41726409656,2018_Nov_14_1404,59.9893217356,chinese_cond2,001,1020,
images/table02.jpg,table,z,sounds/greatgatsby_chinese.wav,,,,,,,,,0,0,0,0,0,61,61,49,253.579159823,8.98027792573e-06,254.458483312,0.879332790035,,,,,z,1,0.867140761926,2018_Nov_14_1404,59.9893217356,chinese_cond2,001,1020,
images/grandpiano.jpg,tulip,x,sounds/greatgatsby_chinese.wav,,,,,,,,,0,0,0,0,0,62,62,236,255.644413505,8.98039434105e-06,256.959137109,1.31473290536,,,,,x,1,1.30058606016,2018_Nov_14_1404,59.9893217356,chinese_cond2,001,1020,
images/egg01b (1).jpg,egg,z,sounds/greatgatsby_chinese.wav,,,,,,,,,0,0,0,0,0,63,63,19,258.100709475,9.30100213736e-06,258.909645442,0.808945588768,,,,,z,1,0.800459213555,2018_Nov_14_1404,59.9893217356,chinese_cond2,001,1020,
images/bench02.jpg,electric toothbrush,x,sounds/greatgatsby_chinese.wav,,,,,,,,,0,0,0,0,0,64,64,172,260.0824952,9.30100213736e-06,262.69397477,2.611489192,,,,,x,1,2.6009299733,2018_Nov_14_1404,59.9893217356,chinese_cond2,001,1020,
images/carrot02.jpg,corkscrew,x,sounds/greatgatsby_chinese.wav,,,,,,,,,0,0,0,0,0,65,65,161,263.877476115,9.30100213736e-06,266.728197376,2.85073120415,,,,,z,0,2.8341580769,2018_Nov_14_1404,59.9893217356,chinese_cond2,001,1020,
images/safe.jpg,safe,z,sounds/greatgatsby_chinese.wav,,,,,,,,,0,0,0,0,0,66,66,78,267.910389844,9.621726349e-06,269.345729984,1.43535072368,,,,,z,1,1.41729039606,2018_Nov_14_1404,59.9893217356,chinese_cond2,001,1020,
images/fireextinguisher02.jpg,fire extinguisher,z,sounds/greatgatsby_chinese.wav,,,,,,,,,0,0,0,0,0,67,67,175,270.529145695,8.98027792573e-06,272.563224938,2.03408854373,,,,,z,1,2.01742914144,2018_Nov_14_1404,59.9893217356,chinese_cond2,001,1020,
images/tape01a.jpg,tie,x,sounds/greatgatsby_chinese.wav,,,,,,,,,0,0,0,0,0,68,68,232,273.760265034,9.94245056063e-06,275.41397731,1.65372221835,,,,,x,1,1.63400759292,2018_Nov_14_1404,59.9893217356,chinese_cond2,001,1020,
images/plant01.jpg,plant,z,sounds/greatgatsby_chinese.wav,,,,,,,,,0,0,0,0,0,69,69,47,276.610364731,8.98027792573e-06,277.647902028,1.03754723875,,,,,z,1,1.01718667359,2018_Nov_14_1404,59.9893217356,chinese_cond2,001,1020,
images/radish01.jpg,raisin,x,sounds/greatgatsby_chinese.wav,,,,,,,,,0,0,0,0,0,70,70,214,278.825519678,8.98027792573e-06,279.99850863,1.17299889447,,,,,z,0,1.15054207284,2018_Nov_14_1404,59.9893217356,chinese_cond2,001,1020,
images/plate01b.jpg,plate,z,sounds/greatgatsby_chinese.wav,,,,,,,,,0,0,0,0,0,71,71,3,281.125333754,3.65626765415e-05,282.049054199,0.923746744287,,,,,z,1,0.90048650722,2018_Nov_14_1404,59.9893217356,chinese_cond2,001,1020,
images/highlighter03b.jpg,coin,x,sounds/greatgatsby_chinese.wav,,,,,,,,,0,0,0,0,0,72,72,156,283.233308285,9.94245056063e-06,284.466364801,1.2330667791,,,,,x,1,1.21724607178,2018_Nov_14_1404,59.9893217356,chinese_cond2,001,1020,
images/parkfountain.jpg,park fountain,z,sounds/greatgatsby_chinese.wav,,,,,,,,,0,0,0,0,0,73,73,93,285.614558848,9.621726349e-06,287.033700146,1.41915156133,,,,,z,1,1.40061752324,2018_Nov_14_1404,59.9893217356,chinese_cond2,001,1020,
images/lily.jpg,kiwi,x,sounds/greatgatsby_chinese.wav,,,,,,,,,0,0,0,0,0,74,74,190,288.203107245,9.30100213736e-06,289.434332102,1.23123512045,,,,,x,1,1.21723645006,2018_Nov_14_1404,59.9893217356,chinese_cond2,001,1020,
images/bus.jpg,microphone,x,sounds/greatgatsby_chinese.wav,,,,,,,,,0,0,0,0,0,75,75,203,290.584995088,9.621726349e-06,291.734934519,1.14994905284,,,,,x,1,1.13388555706,2018_Nov_14_1404,59.9893217356,chinese_cond2,001,1020,
images/candy.jpg,candy,z,sounds/greatgatsby_chinese.wav,,,,,,,,,0,0,0,0,0,76,76,31,292.864428393,9.30100213736e-06,293.785471108,0.921052656951,,,,,z,1,0.900483299978,2018_Nov_14_1404,59.9893217356,chinese_cond2,001,1020,
images/envelope02a.jpg,grand piano,x,sounds/greatgatsby_chinese.wav,,,,,,,,,0,0,0,0,0,77,77,182,294.995659633,9.621726349e-06,295.869344461,0.873694770737,,,,,z,0,0.850469813566,2018_Nov_14_1404,59.9893217356,chinese_cond2,001,1020,
images/ladder.jpg,ladder,z,sounds/greatgatsby_chinese.wav,,,,,,,,,0,0,0,0,0,78,78,113,296.988243195,8.98027792573e-06,298.953482413,1.965248839,,,,,z,1,1.95075753564,2018_Nov_14_1404,59.9893217356,chinese_cond2,001,1020,
images/dice05a.jpg,band aid,x,sounds/greatgatsby_chinese.wav,,,,,,,,,0,0,0,0,0,79,79,126,300.148932035,9.30100213736e-06,301.604186291,1.45526419859,,,,,x,1,1.43395941996,2018_Nov_14_1404,59.9893217356,chinese_cond2,001,1020,
images/ant.jpg,ant,z,sounds/greatgatsby_chinese.wav,,,,,,,,,0,0,0,0,0,80,80,98,302.732532612,9.621726349e-06,303.738084036,1.00556136598,,,,,z,1,0.983846701332,2018_Nov_14_1404,59.9893217356,chinese_cond2,001,1020,
images/giraffe.jpg,lettuce,x,sounds/greatgatsby_chinese.wav,,,,,,,,,0,0,0,0,0,81,81,195,304.910551489,9.30100213736e-06,306.788874638,1.87833309127,,,,,x,1,1.8674034354,2018_Nov_14_1404,59.9893217356,chinese_cond2,001,1020,
images/licenseplate.jpg,license plate,z,sounds/greatgatsby_chinese.wav,,,,,,,,,0,0,0,0,0,82,82,40,307.944177227,9.94245056063e-06,309.072813163,1.12864619866,,,,,z,1,1.11720306263,2018_Nov_14_1404,59.9893217356,chinese_cond2,001,1020,
images/pingpongpaddle01c (1).jpg,ping pong paddle,z,sounds/greatgatsby_chinese.wav,,,,,,,,,0,0,0,0,0,83,83,10,310.226888659,9.94245056063e-06,311.073347811,0.846469735261,,,,,z,1,0.833812335739,2018_Nov_14_1404,59.9893217356,chinese_cond2,001,1020,
images/scooter.jpg,pen,x,sounds/greatgatsby_chinese.wav,,,,,,,,,0,0,0,0,0,84,84,212,312.199853814,8.98027792573e-06,313.557310775,1.35746690363,,,,,z,0,1.33392314601,2018_Nov_14_1404,59.9893217356,chinese_cond2,001,1020,
images/nametag01a.jpg,name tag,z,sounds/greatgatsby_chinese.wav,,,,,,,,,0,0,0,0,0,85,85,108,314.708851905,9.94245056063e-06,315.857918324,1.14907636109,,,,,z,1,1.13385540899,2018_Nov_14_1404,59.9893217356,chinese_cond2,001,1020,
images/raisin.jpg,ruler,x,sounds/greatgatsby_chinese.wav,,,,,,,,,0,0,0,0,0,86,86,218,316.990993089,9.621726349e-06,318.04182314,1.05084031471,,,,,x,1,1.03383901995,2018_Nov_14_1404,59.9893217356,chinese_cond2,001,1020,
images/bowl02b (1).jpg,bowl,z,sounds/greatgatsby_chinese.wav,,,,,,,,,0,0,0,0,0,87,87,24,319.250322088,9.621726349e-06,320.075683328,0.825370862032,,,,,z,1,0.800445743138,2018_Nov_14_1404,59.9893217356,chinese_cond2,001,1020,
images/volleyball.jpg,volley ball,z,sounds/greatgatsby_chinese.wav,,,,,,,,,0,0,0,0,0,88,88,2,321.20879209,9.621726349e-06,322.126238839,0.91745701246,,,,,z,1,0.900489714579,2018_Nov_14_1404,59.9893217356,chinese_cond2,001,1020,
images/computerkeyboard01a.jpg,computer keyboard,z,sounds/greatgatsby_chinese.wav,,,,,,,,,0,0,0,0,0,89,89,61,323.291866518,8.98027792573e-06,324.776926681,1.48507010553,,,,,z,1,1.46729297785,2018_Nov_14_1404,59.9893217356,chinese_cond2,001,1020,
images/doll.jpg,carrot,x,sounds/greatgatsby_chinese.wav,,,,,,,,,0,0,0,0,0,90,90,146,325.961195841,9.621726349e-06,327.394275834,1.43309025606,,,,,x,1,1.41727724625,2018_Nov_14_1404,59.9893217356,chinese_cond2,001,1020,
images/worldmap.jpg,scooter,x,sounds/greatgatsby_chinese.wav,,,,,,,,,0,0,0,0,0,91,91,220,328.596735857,9.62184276432e-06,330.611797408,2.01507181511,,,,,x,1,2.00077455002,2018_Nov_14_1404,59.9893217356,chinese_cond2,001,1020,
images/graduationcap.jpg,graduation cap,z,sounds/greatgatsby_chinese.wav,,,,,,,,,0,0,0,0,0,92,92,35,331.783367795,9.30100213736e-06,333.312504189,1.52914665744,,,,,z,1,1.51731801033,2018_Nov_14_1404,59.9893217356,chinese_cond2,001,1020,
images/chessknight02b (1).jpg,cockroach,x,sounds/greatgatsby_chinese.wav,,,,,,,,,0,0,0,0,0,93,93,155,334.495697318,9.30100213736e-06,336.646707649,2.15101995261,,,,,x,1,2.13413860882,2018_Nov_14_1404,59.9893217356,chinese_cond2,001,1020,
images/lemon02.jpg,lemon,z,sounds/greatgatsby_chinese.wav,,,,,,,,,0,0,0,0,0,94,94,14,337.834629863,9.621726349e-06,338.547204099,0.712584178196,,,,,z,1,0.700426467694,2018_Nov_14_1404,59.9893217356,chinese_cond2,001,1020,
images/kiwi03.jpg,backpack,x,sounds/greatgatsby_chinese.wav,,,,,,,,,0,0,0,0,0,95,95,125,339.739578933,9.621726349e-06,340.89782353,1.15825421852,,,,,x,1,1.13387080375,2018_Nov_14_1404,59.9893217356,chinese_cond2,001,1020,
images/triangleruler02.jpg,bottle of red wine,x,sounds/greatgatsby_chinese.wav,,,,,,,,,0,0,0,0,0,96,96,134,342.099681232,9.94245056063e-06,343.098403785,0.998734741122,,,,,x,1,0.983839324676,2018_Nov_14_1404,59.9893217356,chinese_cond2,001,1020,
images/donut.jpg,rhinoceros,x,sounds/greatgatsby_chinese.wav,,,,,,,,,0,0,0,0,0,97,97,216,344.306722806,9.621726349e-06,345.382348404,1.0756361814,,,,,x,1,1.06720753678,2018_Nov_14_1404,59.9893217356,chinese_cond2,001,1020,
images/feather03b.jpg,feather,z,sounds/greatgatsby_chinese.wav,,,,,,,,,0,0,0,0,0,98,98,114,346.570941574,9.621726349e-06,347.466209891,0.895277938456,,,,,z,1,0.883791825268,2018_Nov_14_1404,59.9893217356,chinese_cond2,001,1020,
images/bullet (2).jpg,rubber glove,x,sounds/greatgatsby_chinese.wav,,,,,,,,,0,0,0,0,0,99,99,217,348.574026304,9.621726349e-06,349.850175388,1.27615998907,,,,,x,1,1.26722588215,2018_Nov_14_1404,59.9893217356,chinese_cond2,001,1020,
images/panda.jpg,panda,z,sounds/greatgatsby_chinese.wav,,,,,,,,,0,0,0,0,0,100,100,83,350.986967994,9.30100213736e-06,351.650643582,0.663685530657,,,,,z,1,0.650418754201,2018_Nov_14_1404,59.9893217356,chinese_cond2,001,1020,
images/djmixer01.jpg,light bulb,x,sounds/greatgatsby_chinese.wav,,,,,,,,,0,0,0,0,0,101,101,196,352.837424016,8.98039434105e-06,354.017974053,1.18055997894,,,,,x,1,1.16725824331,2018_Nov_14_1404,59.9893217356,chinese_cond2,001,1020,
images/drink.jpg,drink,z,sounds/greatgatsby_chinese.wav,,,,,,,,,0,0,0,0,0,102,102,117,355.136185153,9.30100213736e-06,355.851759768,0.71558455762,,,,,z,1,0.700430957717,2018_Nov_14_1404,59.9893217356,chinese_cond2,001,1020,
images/pepper05a.jpg,lighter,x,sounds/greatgatsby_chinese.wav,,,,,,,,,0,0,0,0,0,103,103,198,357.03786187,9.621726349e-06,357.918958004,0.881106076878,,,,,x,1,0.867118311115,2018_Nov_14_1404,59.9893217356,chinese_cond2,001,1020,
images/thumbtack02a.jpg,thumb tack,z,sounds/greatgatsby_chinese.wav,,,,,,,,,0,0,0,0,0,104,104,60,359.118404818,9.94245056063e-06,360.46962208,1.3512272049,,,,,x,0,1.33389299782,2018_Nov_14_1404,59.9893217356,chinese_cond2,001,1020,
images/hat05.jpg,hat,z,sounds/greatgatsby_chinese.wav,,,,,,,,,0,0,0,0,0,105,105,15,361.657511581,9.30100213736e-06,362.403311611,0.745810293243,,,,,z,1,0.733608964132,2018_Nov_14_1404,59.9893217356,chinese_cond2,001,1020,
images/arrow02.jpg,hammer,x,sounds/greatgatsby_chinese.wav,,,,,,,,,0,0,0,0,0,106,106,184,363.566123327,9.621726349e-06,365.037491753,1.47137868963,,,,,x,1,1.45062876469,2018_Nov_14_1404,59.9893217356,chinese_cond2,001,1020,
images/radio03a.jpg,radio,z,sounds/greatgatsby_chinese.wav,,,,,,,,,0,0,0,0,0,107,107,37,366.216716555,9.621726349e-06,367.088033153,0.871326219058,,,,,z,1,0.850470775622,2018_Nov_14_1404,59.9893217356,chinese_cond2,001,1020,
images/calculator02b.jpg,dice,x,sounds/greatgatsby_chinese.wav,,,,,,,,,0,0,0,0,0,108,108,165,368.259777693,9.30100213736e-06,370.222192929,1.96242517896,,,,,x,1,1.95074566884,2018_Nov_14_1404,59.9893217356,chinese_cond2,001,1020,
images/banana04a.jpg,banana,z,sounds/greatgatsby_chinese.wav,,,,,,,,,0,0,0,0,0,109,109,118,371.410212002,9.62184276432e-06,372.005991778,0.595789718791,,,,,z,1,0.583741054637,2018_Nov_14_1404,59.9893217356,chinese_cond2,001,1020,
images/grasshopper.jpg,cauliflower,x,sounds/greatgatsby_chinese.wav,,,,,,,,,0,0,0,0,0,110,110,148,373.187583529,9.30100213736e-06,373.856465761,0.668891854468,,,,,x,1,0.650412018993,2018_Nov_14_1404,59.9893217356,chinese_cond2,001,1020,
images/teapot.jpg,light switch,x,sounds/greatgatsby_chinese.wav,,,,,,,,,0,0,0,0,0,111,111,197,375.04445212,9.621726349e-06,375.990377297,0.945934798568,,,,,x,1,0.933844119427,2018_Nov_14_1404,59.9893217356,chinese_cond2,001,1020,
images/charcoalbarbecue.jpg,charcoal barbecue,z,sounds/greatgatsby_chinese.wav,,,,,,,,,0,0,0,0,0,112,112,77,377.201422478,9.30100213736e-06,378.641062894,1.43965035875,,,,,z,1,1.41728879244,2018_Nov_14_1404,59.9893217356,chinese_cond2,001,1020,
images/hammer02a.jpg,flower,x,sounds/greatgatsby_chinese.wav,,,,,,,,,0,0,0,0,0,113,113,176,379.807586678,9.94245056063e-06,380.891674917,1.08409818157,,,,,x,1,1.06721683778,2018_Nov_14_1404,59.9893217356,chinese_cond2,001,1020,
images/screwdriver02b.jpg,cola,x,sounds/greatgatsby_chinese.wav,,,,,,,,,0,0,0,0,0,114,114,158,382.054138647,9.30100213736e-06,383.05887992,1.00475121546,,,,,x,1,0.983832268743,2018_Nov_14_1404,59.9893217356,chinese_cond2,001,1020,
images/ladybug03.jpg,giraffe,x,sounds/greatgatsby_chinese.wav,,,,,,,,,0,0,0,0,0,115,115,178,384.230647553,8.98027792573e-06,385.476191163,1.24555291166,,,,,x,1,1.2339057948,2018_Nov_14_1404,59.9893217356,chinese_cond2,001,1020,
images/fryingpan01.jpg,frying pan,z,sounds/greatgatsby_chinese.wav,,,,,,,,,0,0,0,0,0,116,116,45,386.662064588,9.30100213736e-06,388.093533902,1.43147957674,,,,,z,1,1.41728526435,2018_Nov_14_1404,59.9893217356,chinese_cond2,001,1020,
images/8ball.jpg,nail clipper,x,sounds/greatgatsby_chinese.wav,,,,,,,,,0,0,0,0,0,117,117,206,389.285420273,9.30100213736e-06,390.677549176,1.39213884564,,,,,x,1,1.36724195047,2018_Nov_14_1404,59.9893217356,chinese_cond2,001,1020,
images/wallet01.jpg,lamp,x,sounds/greatgatsby_chinese.wav,,,,,,,,,0,0,0,0,0,118,118,193,391.855043347,8.98027792573e-06,393.061493826,1.20646074216,,,,,x,1,1.18387081986,2018_Nov_14_1404,59.9893217356,chinese_cond2,001,1020,
images/handfan01b.jpg,handfan,z,sounds/greatgatsby_chinese.wav,,,,,,,,,0,0,0,0,0,119,119,69,394.197216815,9.621726349e-06,395.828903324,1.63169677148,,,,,x,0,1.61733536154,2018_Nov_14_1404,59.9893217356,chinese_cond2,001,1020,
images/croissant02b.jpg,croissant,z,sounds/greatgatsby_chinese.wav,,,,,,,,,0,0,0,0,0,120,120,39,397.021154359,9.621726349e-06,398.229541053,1.20839663642,,,,,z,1,1.18388685607,2018_Nov_14_1404,59.9893217356,chinese_cond2,001,1020,
images/magnifyingglass01b.jpg,magnifying glass,z,sounds/greatgatsby_chinese.wav,,,,,,,,,0,0,0,0,0,121,121,64,399.362998121,9.30100213736e-06,401.51372429,2.15073643206,,,,,x,0,2.13413411868,2018_Nov_14_1404,59.9893217356,chinese_cond2,001,1020,
images/lightbulb03b.jpg,treadmill,x,sounds/greatgatsby_chinese.wav,,,,,,,,,0,0,0,0,0,122,122,234,402.682945369,9.30100213736e-06,403.86436072,1.18142529402,,,,,x,1,1.16723547189,2018_Nov_14_1404,59.9893217356,chinese_cond2,001,1020,
images/corkscrew02a.jpg,masquerade mask,x,sounds/greatgatsby_chinese.wav,,,,,,,,,0,0,0,0,0,123,123,201,404.993012051,9.94245056063e-06,407.215223582,2.22222147393,,,,,x,1,2.20082208153,2018_Nov_14_1404,59.9893217356,chinese_cond2,001,1020,
images/lamp04b.jpg,parking meter,x,sounds/greatgatsby_chinese.wav,,,,,,,,,0,0,0,0,0,124,124,209,408.404589698,9.30100213736e-06,409.682536445,1.2779570095,,,,,x,1,1.26723646617,2018_Nov_14_1404,59.9893217356,chinese_cond2,001,1020,
images/bowtie.jpg,bowtie,z,sounds/greatgatsby_chinese.wav,,,,,,,,,0,0,0,0,0,125,125,89,410.824595991,9.621726349e-06,411.933124093,1.10853836464,,,,,z,1,1.08385122346,2018_Nov_14_1404,59.9893217356,chinese_cond2,001,1020,
images/squirrel.jpg,binder,x,sounds/greatgatsby_chinese.wav,,,,,,,,,0,0,0,0,0,126,126,132,413.068087605,8.98027792573e-06,414.533814805,1.46573682164,,,,,x,1,1.4506354999,2018_Nov_14_1404,59.9893217356,chinese_cond2,001,1020,
images/key03b.jpg,cigar,x,sounds/greatgatsby_chinese.wav,,,,,,,,,0,0,0,0,0,127,127,153,415.700431278,8.98027792573e-06,417.001132158,1.30071082211,,,,,x,1,1.28392505425,2018_Nov_14_1404,59.9893217356,chinese_cond2,001,1020,
images/headphones02b.jpg,headphones,z,sounds/greatgatsby_chinese.wav,,,,,,,,,0,0,0,0,0,128,128,101,418.137059128,8.98027792573e-06,418.884951245,0.747902059695,,,,,z,1,0.733769647195,2018_Nov_14_1404,59.9893217356,chinese_cond2,001,1020,
images/axe01.jpg,axe,z,sounds/greatgatsby_chinese.wav,,,,,,,,,0,0,0,0,0,129,129,104,420.053375643,9.30100213736e-06,421.085533745,1.03216804424,,,,,x,0,1.01718314562,2018_Nov_14_1404,59.9893217356,chinese_cond2,001,1020,
images/pouch01b.jpg,pouch,z,sounds/greatgatsby_chinese.wav,,,,,,,,,0,0,0,0,0,130,130,25,422.29331908,9.621726349e-06,423.286103096,0.992793957819,,,,,z,1,0.983837720938,2018_Nov_14_1404,59.9893217356,chinese_cond2,001,1020,
images/birthdaycandle.jpg,birthday candle,z,sounds/greatgatsby_chinese.wav,,,,,,,,,0,0,0,0,0,131,131,55,424.45404769,9.30100213736e-06,425.253287187,0.799249119358,,,,,z,1,0.783781529986,2018_Nov_14_1404,59.9893217356,chinese_cond2,001,1020,
images/coin01b.jpg,arrow,x,sounds/greatgatsby_chinese.wav,,,,,,,,,0,0,0,0,0,132,132,124,426.438689468,9.30100213736e-06,427.28715379,0.848474264494,,,,,x,1,0.833792450721,2018_Nov_14_1404,59.9893217356,chinese_cond2,001,1020,
images/baseball01a.jpg,baseball,z,sounds/greatgatsby_chinese.wav,,,,,,,,,0,0,0,0,0,133,133,74,428.500947581,9.621726349e-06,429.487728272,0.986790633178,,,,,z,1,0.967159716645,2018_Nov_14_1404,59.9893217356,chinese_cond2,001,1020,
images/cloud.jpg,ceiling fan,x,sounds/greatgatsby_chinese.wav,,,,,,,,,0,0,0,0,0,134,134,149,430.676053316,9.30100213736e-06,431.521603534,0.84556016,,,,,x,1,0.833782187547,2018_Nov_14_1404,59.9893217356,chinese_cond2,001,1020,
images/tissuebox03.jpg,tissue box,z,sounds/greatgatsby_chinese.wav,,,,,,,,,0,0,0,0,0,135,135,58,432.726067123,9.30100213736e-06,433.788875279,1.06281809881,,,,,z,1,1.05041278875,2018_Nov_14_1404,59.9893217356,chinese_cond2,001,1020,
images/swan.jpg,swan,z,sounds/greatgatsby_chinese.wav,,,,,,,,,0,0,0,0,0,136,136,54,434.90318284,8.98027792573e-06,437.156417108,2.25324388966,,,,,z,1,2.23417392059,2018_Nov_14_1404,59.9893217356,chinese_cond2,001,1020,
images/notebook02b.jpg,notebook,z,sounds/greatgatsby_chinese.wav,,,,,,,,,0,0,0,0,0,137,137,7,438.392094585,8.98027792573e-06,439.240288537,0.848203573027,,,,,z,1,0.833807524759,2018_Nov_14_1404,59.9893217356,chinese_cond2,001,1020,
images/lion.jpg,lion,z,sounds/greatgatsby_chinese.wav,,,,,,,,,0,0,0,0,0,138,138,44,440.422106719,9.621726349e-06,441.157490252,0.735413361224,,,,,z,1,0.717125960509,2018_Nov_14_1404,59.9893217356,chinese_cond2,001,1020,
images/sunglasses03a.jpg,sun glasses,z,sounds/greatgatsby_chinese.wav,,,,,,,,,0,0,0,0,0,139,139,17,442.336034477,9.94245056063e-06,443.241332175,0.905307320063,,,,,z,1,0.88374371652,2018_Nov_14_1404,59.9893217356,chinese_cond2,001,1020,
images/beachumbrella01.jpg,beach umbrella,z,sounds/greatgatsby_chinese.wav,,,,,,,,,0,0,0,0,0,140,140,92,444.416055927,9.621726349e-06,445.591959625,1.17591460259,,,,,z,1,1.16722520872,2018_Nov_14_1404,59.9893217356,chinese_cond2,001,1020,
images/apricot.jpg,apricot,z,sounds/greatgatsby_chinese.wav,,,,,,,,,0,0,0,0,0,141,141,32,446.801401503,9.30100213736e-06,448.109292709,1.30790082808,,,,,x,0,1.28392473352,2018_Nov_14_1404,59.9893217356,chinese_cond2,001,1020,
images/sportshorts02.jpg,tape,x,sounds/greatgatsby_chinese.wav,,,,,,,,,0,0,0,0,0,142,142,230,449.243297576,9.30100213736e-06,450.409889674,1.16660236137,,,,,x,1,1.15055169456,2018_Nov_14_1404,59.9893217356,chinese_cond2,001,1020,
images/bat.jpg,hand,x,sounds/greatgatsby_chinese.wav,,,,,,,,,0,0,0,0,0,143,143,185,451.58147289,9.30111855268e-06,452.677443978,1.0959813518,,,,,x,1,1.08411902864,2018_Nov_14_1404,59.9893217356,chinese_cond2,001,1020,
images/clothespin02a.jpg,clothes pin,z,sounds/greatgatsby_chinese.wav,,,,,,,,,0,0,0,0,0,144,144,79,453.810268578,9.621726349e-06,455.594585398,1.78432708269,,,,,x,0,1.76733476832,2018_Nov_14_1404,59.9893217356,chinese_cond2,001,1020,
images/candycane01a.jpg,lip,x,sounds/greatgatsby_chinese.wav,,,,,,,,,0,0,0,0,0,145,145,200,456.767688528,9.62184276432e-06,457.945211885,1.17753362085,,,,,x,1,1.16722039785,2018_Nov_14_1404,59.9893217356,chinese_cond2,001,1020,
images/nailpolish02b.jpg,nail polish,z,sounds/greatgatsby_chinese.wav,,,,,,,,,0,0,0,0,0,146,146,94,459.08179634,9.30100213736e-06,460.112449923,1.03066288342,,,,,z,1,1.01719982328,2018_Nov_14_1404,59.9893217356,chinese_cond2,001,1020,
images/flipflop01b.jpg,flip flop,z,sounds/greatgatsby_chinese.wav,,,,,,,,,0,0,0,0,0,147,147,27,461.288050536,8.98027792573e-06,464.147029496,2.85898890253,,,,,z,1,2.83452081657,2018_Nov_14_1404,59.9893217356,chinese_cond2,001,1020,
images/lollipop03b.jpg,lollipop,z,sounds/greatgatsby_chinese.wav,,,,,,,,,0,0,0,0,0,148,148,42,465.309927808,9.621726349e-06,466.547454585,1.23753703968,,,,,z,1,1.21722779062,2018_Nov_14_1404,59.9893217356,chinese_cond2,001,1020,
images/paintbrush03a.jpg,paint brush,z,sounds/greatgatsby_chinese.wav,,,,,,,,,0,0,0,0,0,149,149,0,467.671800507,8.98027792573e-06,468.631331466,0.959540581098,,,,,z,1,0.950496786507,2018_Nov_14_1404,59.9893217356,chinese_cond2,001,1020,
images/ceilingfan02.jpg,paper clip,x,sounds/greatgatsby_chinese.wav,,,,,,,,,0,0,0,0,0,150,150,208,469.828500173,9.30100213736e-06,471.298702123,1.47021189309,,,,,x,1,1.4506168979,2018_Nov_14_1404,59.9893217356,chinese_cond2,001,1020,
images/doorhandle.jpg,doll,x,sounds/greatgatsby_chinese.wav,,,,,,,,,0,0,0,0,0,151,151,168,472.476212331,9.30100213736e-06,473.699328306,1.22312784183,,,,,x,1,1.20055716287,2018_Nov_14_1404,59.9893217356,chinese_cond2,001,1020,
images/microphone01.jpg,diaper,x,sounds/greatgatsby_chinese.wav,,,,,,,,,0,0,0,0,0,152,152,164,474.820818816,9.62184276432e-06,476.350036354,1.5292278009,,,,,x,1,1.51732025552,2018_Nov_14_1404,59.9893217356,chinese_cond2,001,1020,
images/diaper01a.jpg,camera,x,sounds/greatgatsby_chinese.wav,,,,,,,,,0,0,0,0,0,153,153,143,477.502664741,8.98027792573e-06,479.300794852,1.79813941196,,,,,x,1,1.78404099634,2018_Nov_14_1404,59.9893217356,chinese_cond2,001,1020,
images/mailbox01.jpg,mail box,z,sounds/greatgatsby_chinese.wav,,,,,,,,,0,0,0,0,0,154,154,73,480.451577789,9.621726349e-06,481.751442219,1.29987437208,,,,,z,1,1.28391928133,2018_Nov_14_1404,59.9893217356,chinese_cond2,001,1020,
images/mirror02.jpg,8 ball,x,sounds/greatgatsby_chinese.wav,,,,,,,,,0,0,0,0,0,155,155,121,482.876352296,9.621726349e-06,484.152075137,1.27573310444,,,,,x,1,1.26724448416,2018_Nov_14_1404,59.9893217356,chinese_cond2,001,1020,
images/ostrich.jpg,ostrich,z,sounds/greatgatsby_chinese.wav,,,,,,,,,0,0,0,0,0,156,156,76,485.330041094,9.30100213736e-06,486.919482709,1.58945155749,,,,,z,1,1.56734176003,2018_Nov_14_1404,59.9893217356,chinese_cond2,001,1020,
images/paperclip04.jpg,eye drops,x,sounds/greatgatsby_chinese.wav,,,,,,,,,0,0,0,0,0,157,157,174,488.095999312,8.98027792573e-06,489.670189827,1.5742001367,,,,,x,1,1.55065220967,2018_Nov_14_1404,59.9893217356,chinese_cond2,001,1020,
images/elbow.jpg,elbow,z,sounds/greatgatsby_chinese.wav,,,,,,,,,0,0,0,0,0,158,158,105,490.855564204,8.98027792573e-06,491.637377447,0.781822864432,,,,,z,1,0.767116034054,2018_Nov_14_1404,59.9893217356,chinese_cond2,001,1020,
images/bracelet02a.jpg,chess knight,x,sounds/greatgatsby_chinese.wav,,,,,,,,,0,0,0,0,0,159,159,152,492.831166036,9.30100213736e-06,494.654837699,1.82368160505,,,,,x,1,1.8007318296,2018_Nov_14_1404,59.9893217356,chinese_cond2,001,1020,
images/swallow.jpg,mattress,x,sounds/greatgatsby_chinese.wav,,,,,,,,,0,0,0,0,0,160,160,202,495.832809109,9.30100213736e-06,497.205526471,1.37272730481,,,,,z,0,1.35060980986,2018_Nov_14_1404,59.9893217356,chinese_cond2,001,1020,
images/spoon02b.jpg,spoon,z,sounds/greatgatsby_chinese.wav,,,,,,,,,0,0,0,0,0,161,161,38,498.388782782,9.62184276432e-06,499.23936485,0.850592009723,,,,,z,1,0.833798223757,2018_Nov_14_1404,59.9893217356,chinese_cond2,001,1020,
images/ashtray02b.jpg,ashtray,z,sounds/greatgatsby_chinese.wav,,,,,,,,,0,0,0,0,0,162,162,43,500.426050349,8.98027792573e-06,502.190134252,1.76409352454,,,,,z,1,1.75070102396,2018_Nov_14_1404,59.9893217356,chinese_cond2,001,1020,
images/lock02a.jpg,lock,z,sounds/greatgatsby_chinese.wav,,,,,,,,,0,0,0,0,0,163,163,65,503.377055805,9.621726349e-06,504.157318344,0.780272801989,,,,,z,1,0.767107695225,2018_Nov_14_1404,59.9893217356,chinese_cond2,001,1020,
images/mitten01.jpg,mitten,z,sounds/greatgatsby_chinese.wav,,,,,,,,,0,0,0,0,0,164,164,102,505.352421263,9.621726349e-06,506.557958959,1.20554795966,,,,,x,0,1.183768188,2018_Nov_14_1404,59.9893217356,chinese_cond2,001,1020,
images/cake.jpg,cake,z,sounds/greatgatsby_chinese.wav,,,,,,,,,0,0,0,0,0,165,165,23,507.694777223,9.621726349e-06,508.491835151,0.797068191576,,,,,z,1,0.783827072941,2018_Nov_14_1404,59.9893217356,chinese_cond2,001,1020,
images/flamingo.jpg,flamingo,z,sounds/greatgatsby_chinese.wav,,,,,,,,,0,0,0,0,0,166,166,52,509.629299354,1.02631747723e-05,510.675713668,1.04642489797,,,,,z,1,1.03386339499,2018_Nov_14_1404,59.9893217356,chinese_cond2,001,1020,
images/cheetah.jpg,cheetah,z,sounds/greatgatsby_chinese.wav,,,,,,,,,0,0,0,0,0,167,167,82,511.856847745,9.621726349e-06,512.826262477,0.969424995128,,,,,z,1,0.950497427955,2018_Nov_14_1404,59.9893217356,chinese_cond2,001,1020,
images/hanger02a.jpg,hanger,z,sounds/greatgatsby_chinese.wav,,,,,,,,,0,0,0,0,0,168,168,88,514.019495571,9.621726349e-06,514.810122328,0.790636699414,,,,,z,1,0.767117958399,2018_Nov_14_1404,59.9893217356,chinese_cond2,001,1020,
images/ear.jpg,bullet,x,sounds/greatgatsby_chinese.wav,,,,,,,,,0,0,0,0,0,169,169,139,515.980279281,9.30100213736e-06,517.560839388,1.58057037042,,,,,x,1,1.56732700672,2018_Nov_14_1404,59.9893217356,chinese_cond2,001,1020,
images/aquarium.jpg,computer mouse,x,sounds/greatgatsby_chinese.wav,,,,,,,,,0,0,0,0,0,170,170,159,518.77697928,9.30100213736e-06,520.778352944,2.00138360623,,,,,z,0,1.9840853205,2018_Nov_14_1404,59.9893217356,chinese_cond2,001,1020,
images/stapler03a.jpg,candy cane,x,sounds/greatgatsby_chinese.wav,,,,,,,,,0,0,0,0,0,171,171,145,521.9771458,9.30111855268e-06,523.612437254,1.63530139625,,,,,x,1,1.61734337977,2018_Nov_14_1404,59.9893217356,chinese_cond2,001,1020,
images/medal01.jpg,medal,z,sounds/greatgatsby_chinese.wav,,,,,,,,,0,0,0,0,0,172,172,115,524.789190552,9.62184276432e-06,525.763301014,0.974136120058,,,,,z,1,0.950720331632,2018_Nov_14_1404,59.9893217356,chinese_cond2,001,1020,
images/handbag02a.jpg,candle,x,sounds/greatgatsby_chinese.wav,,,,,,,,,0,0,0,0,0,173,173,144,526.967351189,8.98027792573e-06,528.230305981,1.26296473399,,,,,x,1,1.25058027112,2018_Nov_14_1404,59.9893217356,chinese_cond2,001,1020,
images/broadsword.jpg,teapot,x,sounds/greatgatsby_chinese.wav,,,,,,,,,0,0,0,0,0,174,174,231,529.346586319,8.98027792573e-06,530.630920938,1.28434360004,,,,,x,1,1.26719348901,2018_Nov_14_1404,59.9893217356,chinese_cond2,001,1020,
images/hairband.jpg,hairband,z,sounds/greatgatsby_chinese.wav,,,,,,,,,0,0,0,0,0,175,175,66,531.79144236,8.98027792573e-06,533.164936197,1.37350410002,,,,,z,1,1.3506024332,2018_Nov_14_1404,59.9893217356,chinese_cond2,001,1020,
images/computermouse02a.jpg,world map,x,sounds/greatgatsby_chinese.wav,,,,,,,,,0,0,0,0,0,176,176,239,534.363411536,8.98027792573e-06,535.498723355,1.1353220829,,,,,x,1,1.11704398319,2018_Nov_14_1404,59.9893217356,chinese_cond2,001,1020,
images/acousticguitar02.jpg,acoustic guitar,z,sounds/greatgatsby_chinese.wav,,,,,,,,,0,0,0,0,0,177,177,97,536.640990411,9.621726349e-06,538.016212312,1.37523184391,,,,,z,1,1.35060596117,2018_Nov_14_1404,59.9893217356,chinese_cond2,001,1020,
images/lychee02a.jpg,lychee,z,sounds/greatgatsby_chinese.wav,,,,,,,,,0,0,0,0,0,178,178,62,539.213491348,8.98027792573e-06,540.000058372,0.786576966289,,,,,z,1,0.767101922189,2018_Nov_14_1404,59.9893217356,chinese_cond2,001,1020,
images/icecube02 (2).jpg,aloe,x,sounds/greatgatsby_chinese.wav,,,,,,,,,0,0,0,0,0,179,179,122,541.14095497,8.6595537141e-06,542.16730988,1.0263651727,,,,,x,1,1.01719693677,2018_Nov_14_1404,59.9893217356,chinese_cond2,001,1020,
images/cupcake.jpg,scissors,x,sounds/greatgatsby_chinese.wav,,,,,,,,,0,0,0,0,0,180,180,219,543.338433497,9.30100213736e-06,544.601301372,1.26287781761,,,,,x,1,1.25061009859,2018_Nov_14_1404,59.9893217356,chinese_cond2,001,1020,
images/cat.jpg,black olive,x,sounds/greatgatsby_chinese.wav,,,,,,,,,0,0,0,0,0,181,181,133,545.805848671,8.98027792573e-06,548.235544698,2.42970596929,,,,,x,1,2.41754152346,2018_Nov_14_1404,59.9893217356,chinese_cond2,001,1020,
images/bowlingball.jpg,bowling ball,z,sounds/greatgatsby_chinese.wav,,,,,,,,,0,0,0,0,0,182,182,20,549.437665714,8.98027792573e-06,550.35278721,0.915131437709,,,,,z,1,0.900464697974,2018_Nov_14_1404,59.9893217356,chinese_cond2,001,1020,
images/candle08a.jpg,screw driver,x,sounds/greatgatsby_chinese.wav,,,,,,,,,0,0,0,0,0,183,183,221,551.543768175,9.30100213736e-06,553.086823379,1.54306450509,,,,,x,1,1.53394790599,2018_Nov_14_1404,59.9893217356,chinese_cond2,001,1020,
images/apple06.jpg,apple,z,sounds/greatgatsby_chinese.wav,,,,,,,,,0,0,0,0,0,184,184,13,554.235720455,9.621726349e-06,555.020669423,0.784958910313,,,,,z,1,0.767111223191,2018_Nov_14_1404,59.9893217356,chinese_cond2,001,1020,
images/saltshaker03c.jpg,salt shaker,z,sounds/greatgatsby_chinese.wav,,,,,,,,,0,0,0,0,0,185,185,63,556.204090266,9.94245056063e-06,557.337764465,1.13368510408,,,,,z,1,1.11702794698,2018_Nov_14_1404,59.9893217356,chinese_cond2,001,1020,
images/nailclipper03a.jpg,aquarium,x,sounds/greatgatsby_chinese.wav,,,,,,,,,0,0,0,0,0,186,186,123,558.467468093,9.621726349e-06,559.805255331,1.33779814164,,,,,x,1,1.3172621401,2018_Nov_14_1404,59.9893217356,chinese_cond2,001,1020,
images/electricguitar02.jpg,electric guitar,z,sounds/greatgatsby_chinese.wav,,,,,,,,,0,0,0,0,0,187,187,100,560.987580899,9.30111855268e-06,562.022524815,1.03495417978,,,,,z,1,1.01719437109,2018_Nov_14_1404,59.9893217356,chinese_cond2,001,1020,
,,,sounds/greatgatsby_chinese.wav,,,,,,,,,0,0,0,0,,,,,,,,,,,,,,,,2018_Nov_14_1404,59.9893217356,chinese_cond2,001,1020,
images/tulip02.jpg,sport shorts,x,sounds/animalfarm_english.wav,,,,,,,,,0,1,1,1,0,0,0,225,583.217871485,9.30100213736e-06,584.41173769,1.19387678849,,,,573.025595433,x,1,1.18392726732,2018_Nov_14_1404,59.9893217356,chinese_cond2,001,1020,
images/corkscrew02a.jpg,masquerade mask,x,sounds/animalfarm_english.wav,,,,,,,,,0,1,1,1,0,1,1,201,585.515152477,9.30100213736e-06,588.512637354,2.99749481946,,,,,None,0,,2018_Nov_14_1404,59.9893217356,chinese_cond2,001,1020,
images/showerhead01.jpg,skateboard,x,sounds/animalfarm_english.wav,,,,,,,,,0,1,1,1,0,2,2,223,589.619533929,9.94245056063e-06,591.079977511,1.46045416535,,,,,x,1,1.45048155217,2018_Nov_14_1404,59.9893217356,chinese_cond2,001,1020,
images/croissant02b.jpg,croissant,z,sounds/animalfarm_english.wav,,,,,,,,,0,1,1,1,0,3,3,39,592.190326046,9.30100213736e-06,593.164018924,0.973703141673,,,,,z,1,0.950512501993,2018_Nov_14_1404,59.9893217356,chinese_cond2,001,1020,
images/puma.jpg,puma,z,sounds/animalfarm_english.wav,,,,,,,,,0,1,1,1,0,4,4,4,594.261874912,9.30111855268e-06,595.447778805,1.18591447757,,,,,z,1,1.16705522465,2018_Nov_14_1404,59.9893217356,chinese_cond2,001,1020,
images/broadsword.jpg,teapot,x,sounds/animalfarm_english.wav,,,,,,,,,0,1,1,1,0,5,5,231,596.54026522,9.621726349e-06,597.731874806,1.19162016967,,,,,x,1,1.16723130248,2018_Nov_14_1404,59.9893217356,chinese_cond2,001,1020,
images/diaper01a.jpg,camera,x,sounds/animalfarm_english.wav,,,,,,,,,0,1,1,1,0,6,6,143,598.851151033,9.621726349e-06,599.732394059,0.881253289408,,,,,x,1,0.867145252065,2018_Nov_14_1404,59.9893217356,chinese_cond2,001,1020,
images/mushroom01.jpg,shower head,x,sounds/animalfarm_english.wav,,,,,,,,,0,1,1,1,0,7,7,222,600.923280731,8.98027792573e-06,602.816542915,1.89327405056,,,,,x,1,1.8840814397,2018_Nov_14_1404,59.9893217356,chinese_cond2,001,1020,
images/radio03a.jpg,radio,z,sounds/animalfarm_english.wav,,,,,,,,,0,1,1,1,0,8,8,37,603.929861681,9.30111855268e-06,604.917094594,0.987242855015,,,,,z,1,0.96716035821,2018_Nov_14_1404,59.9893217356,chinese_cond2,001,1020,
images/seagull.jpg,seagull,z,sounds/animalfarm_english.wav,,,,,,,,,0,1,1,1,0,9,9,50,606.104116533,9.30100213736e-06,607.100998769,0.996892177849,,,,,x,0,0.983847342664,2018_Nov_14_1404,59.9893217356,chinese_cond2,001,1020,
images/magnifyingglass01b.jpg,magnifying glass,z,sounds/animalfarm_english.wav,,,,,,,,,0,1,1,1,0,10,10,64,608.20768142,9.30100213736e-06,609.518299428,1.31062827085,,,,,z,1,1.30059536127,2018_Nov_14_1404,59.9893217356,chinese_cond2,001,1020,
images/floorlamp.jpg,floor lamp,z,sounds/animalfarm_english.wav,,,,,,,,,0,1,1,1,0,11,11,26,610.678709237,9.94245056063e-06,611.51884049,0.840141195804,,,,,z,1,0.817145877518,2018_Nov_14_1404,59.9893217356,chinese_cond2,001,1020,
images/bullet (2).jpg,rubber glove,x,sounds/animalfarm_english.wav,,,,,,,,,0,1,1,1,0,12,12,217,612.623117065,8.98027792573e-06,613.786085937,1.16297881387,,,,,x,1,1.15055810905,2018_Nov_14_1404,59.9893217356,chinese_cond2,001,1020,
images/donut.jpg,rhinoceros,x,sounds/animalfarm_english.wav,,,,,,,,,0,1,1,1,0,13,13,216,614.911566583,9.30100213736e-06,616.136687087,1.22513076745,,,,,x,1,1.2171973217,2018_Nov_14_1404,59.9893217356,chinese_cond2,001,1020,
images/cola.jpg,comb,x,sounds/animalfarm_english.wav,,,,,,,,,0,1,1,1,0,14,14,157,617.257242044,9.30100213736e-06,618.187231052,0.92999927199,,,,,x,1,0.917143985163,2018_Nov_14_1404,59.9893217356,chinese_cond2,001,1020,
images/straw.jpg,straw,z,sounds/animalfarm_english.wav,,,,,,,,,0,1,1,1,0,15,15,109,619.277894468,9.30100213736e-06,620.621206829,1.34332198289,,,,,z,1,1.33393822005,2018_Nov_14_1404,59.9893217356,chinese_cond2,001,1020,
images/drink.jpg,drink,z,sounds/animalfarm_english.wav,,,,,,,,,0,1,1,1,0,16,16,117,621.72042718,9.30100213736e-06,622.738538823,1.01812190679,,,,,z,1,1.00062348868,2018_Nov_14_1404,59.9893217356,chinese_cond2,001,1020,
images/electricguitar02.jpg,electric guitar,z,sounds/animalfarm_english.wav,,,,,,,,,0,1,1,1,0,17,17,100,623.839785191,8.6595537141e-06,624.605602932,0.765827683033,,,,,z,1,0.750460480456,2018_Nov_14_1404,59.9893217356,chinese_cond2,001,1020,
images/dragonfly02.jpg,dragon fly,z,sounds/animalfarm_english.wav,,,,,,,,,0,1,1,1,0,18,18,29,625.770580502,8.98027792573e-06,627.056222075,1.28565119463,,,,,z,1,1.26722171274,2018_Nov_14_1404,59.9893217356,chinese_cond2,001,1020,
images/egg01b (1).jpg,egg,z,sounds/animalfarm_english.wav,,,,,,,,,0,1,1,1,0,19,19,19,628.168744482,9.621726349e-06,628.706662638,0.537928099278,,,,,z,1,0.517052450334,2018_Nov_14_1404,59.9893217356,chinese_cond2,001,1020,
images/bandaid01.jpg,door handle,x,sounds/animalfarm_english.wav,,,,,,,,,0,1,1,1,0,20,20,170,629.813248752,8.98027792573e-06,631.057280146,1.24404037406,,,,,x,1,1.23390387057,2018_Nov_14_1404,59.9893217356,chinese_cond2,001,1020,
images/printer03a.jpg,printer,z,sounds/animalfarm_english.wav,,,,,,,,,0,1,1,1,0,21,21,72,632.165916331,9.30100213736e-06,633.024459427,0.858553037746,,,,,x,0,0.850473020808,2018_Nov_14_1404,59.9893217356,chinese_cond2,001,1020,
images/bracelet02a.jpg,chess knight,x,sounds/animalfarm_english.wav,,,,,,,,,0,1,1,1,0,22,22,152,634.13255455,8.98027792573e-06,634.99164865,0.859103401308,,,,,x,1,0.850478793844,2018_Nov_14_1404,59.9893217356,chinese_cond2,001,1020,
images/lighter02b.jpg,stapler,x,sounds/animalfarm_english.wav,,,,,,,,,0,1,1,1,0,23,23,227,636.092870322,8.98027792573e-06,636.908820538,0.815960158361,,,,,x,1,0.800451836898,2018_Nov_14_1404,59.9893217356,chinese_cond2,001,1020,
images/glasses01b.jpg,calculator,x,sounds/animalfarm_english.wav,,,,,,,,,0,1,1,1,0,24,24,142,638.07837934,9.30100213736e-06,639.292777056,1.21440765832,,,,,x,1,1.20056518109,2018_Nov_14_1404,59.9893217356,chinese_cond2,001,1020,
images/atm.jpg,atm,z,sounds/animalfarm_english.wav,,,,,,,,,0,1,1,1,0,25,25,96,640.429714949,8.6595537141e-06,641.426669027,0.996963699465,,,,,z,1,0.983844135422,2018_Nov_14_1404,59.9893217356,chinese_cond2,001,1020,
images/weight01.jpg,weight,z,sounds/animalfarm_english.wav,,,,,,,,,0,1,1,1,0,26,26,67,642.530821802,9.30100213736e-06,644.127392807,1.59658126731,,,,,z,1,1.58400436956,2018_Nov_14_1404,59.9893217356,chinese_cond2,001,1020,
images/raisin.jpg,ruler,x,sounds/animalfarm_english.wav,,,,,,,,,0,1,1,1,0,27,27,218,645.231989144,9.30111855268e-06,646.161238241,0.929259360186,,,,,x,1,0.917159059201,2018_Nov_14_1404,59.9893217356,chinese_cond2,001,1020,
images/tent.jpg,tent,z,sounds/animalfarm_english.wav,,,,,,,,,0,1,1,1,0,28,28,11,647.355384117,9.30100213736e-06,648.378493935,1.02312008024,,,,,z,1,1.00050193409,2018_Nov_14_1404,59.9893217356,chinese_cond2,001,1020,
images/scooter.jpg,pen,x,sounds/animalfarm_english.wav,,,,,,,,,0,1,1,1,0,29,29,212,649.470886698,9.94245056063e-06,650.44570083,0.974824715871,,,,,z,0,0.950493258541,2018_Nov_14_1404,59.9893217356,chinese_cond2,001,1020,
images/remotecontrol01c.jpg,remote control,z,sounds/animalfarm_english.wav,,,,,,,,,0,1,1,1,0,30,30,85,651.554988407,8.98039434105e-06,652.312862439,0.757883653278,,,,,z,1,0.733781834715,2018_Nov_14_1404,59.9893217356,chinese_cond2,001,1020,
images/lip.jpg,boxing glove,x,sounds/animalfarm_english.wav,,,,,,,,,0,1,1,1,0,31,31,136,653.415275283,9.94245056063e-06,654.396962865,0.981740181567,,,,,x,1,0.967281271354,2018_Nov_14_1404,59.9893217356,chinese_cond2,001,1020,
images/mailbox01.jpg,mail box,z,sounds/animalfarm_english.wav,,,,,,,,,0,1,1,1,0,32,32,73,655.516050827,9.621726349e-06,656.230552939,0.714511733502,,,,,z,1,0.700435768696,2018_Nov_14_1404,59.9893217356,chinese_cond2,001,1020,
images/plant01.jpg,plant,z,sounds/animalfarm_english.wav,,,,,,,,,0,1,1,1,0,33,33,47,657.342038443,1.3149692677e-05,658.281083754,0.939056537114,,,,,z,1,0.917156493408,2018_Nov_14_1404,59.9893217356,chinese_cond2,001,1020,
images/table02.jpg,table,z,sounds/animalfarm_english.wav,,,,,,,,,0,1,1,1,0,34,34,49,659.395755016,9.621726349e-06,660.181592712,0.785847959109,,,,,z,1,0.767118920572,2018_Nov_14_1404,59.9893217356,chinese_cond2,001,1020,
images/toothbrush03a.jpg,parrot,x,sounds/animalfarm_english.wav,,,,,,,,,0,1,1,1,0,35,35,210,661.299707916,9.621726349e-06,662.165449035,0.865751061821,,,,,x,1,0.850478793844,2018_Nov_14_1404,59.9893217356,chinese_cond2,001,1020,
images/pineapple01a.jpg,pineapple,z,sounds/animalfarm_english.wav,,,,,,,,,0,1,1,1,0,36,36,51,663.27861225,9.30100213736e-06,663.949246281,0.670644294238,,,,,z,1,0.650424206513,2018_Nov_14_1404,59.9893217356,chinese_cond2,001,1020,
images/lily.jpg,kiwi,x,sounds/animalfarm_english.wav,,,,,,,,,0,1,1,1,0,37,37,190,665.048304665,8.98039434105e-06,665.899765518,0.851470795344,,,,,z,0,0.833797903033,2018_Nov_14_1404,59.9893217356,chinese_cond2,001,1020,
images/eraser.jpg,eraser,z,sounds/animalfarm_english.wav,,,,,,,,,0,1,1,1,0,38,38,110,667.006960688,9.30100213736e-06,667.96698877,0.960038025049,,,,,z,1,0.950508653303,2018_Nov_14_1404,59.9893217356,chinese_cond2,001,1020,
images/leek.jpg,donut,x,sounds/animalfarm_english.wav,,,,,,,,,0,1,1,1,0,39,39,169,669.139128443,9.621726349e-06,670.034171932,0.895053431159,,,,,x,1,0.883815879584,2018_Nov_14_1404,59.9893217356,chinese_cond2,001,1020,
images/nailclipper03a.jpg,aquarium,x,sounds/animalfarm_english.wav,,,,,,,,,0,1,1,1,0,40,40,123,671.133120629,9.30100213736e-06,672.051366945,0.918256258359,,,,,x,1,0.900486828061,2018_Nov_14_1404,59.9893217356,chinese_cond2,001,1020,
images/hairband.jpg,hairband,z,sounds/animalfarm_english.wav,,,,,,,,,0,1,1,1,0,41,41,66,673.160345023,9.30111855268e-06,673.73514299,0.574807589292,,,,,z,1,0.550394346938,2018_Nov_14_1404,59.9893217356,chinese_cond2,001,1020,
images/snowman.jpg,globe,x,sounds/animalfarm_english.wav,,,,,,,,,0,1,1,1,0,42,42,180,674.922574495,3.7845573388e-05,675.652327387,0.729776945664,,,,,z,0,0.717117942288,2018_Nov_14_1404,59.9893217356,chinese_cond2,001,1020,
images/antelope.jpg,antelope,z,sounds/animalfarm_english.wav,,,,,,,,,0,1,1,1,0,43,43,12,676.755571228,9.30100213736e-06,677.836249523,1.08068791602,,,,,x,0,1.06722229009,2018_Nov_14_1404,59.9893217356,chinese_cond2,001,1020,
images/ant.jpg,ant,z,sounds/animalfarm_english.wav,,,,,,,,,0,1,1,1,0,44,44,98,678.930510828,9.94245056063e-06,679.620015658,0.689514772384,,,,,z,1,0.667086174479,2018_Nov_14_1404,59.9893217356,chinese_cond2,001,1020,
images/lychee02a.jpg,lychee,z,sounds/animalfarm_english.wav,,,,,,,,,0,1,1,1,0,45,45,62,680.744105962,9.94245056063e-06,681.320469708,0.576373687945,,,,,z,1,0.567063371069,2018_Nov_14_1404,59.9893217356,chinese_cond2,001,1020,
images/backpack01b.jpg,swallow,x,sounds/animalfarm_english.wav,,,,,,,,,0,1,1,1,0,46,46,228,682.52113303,9.30100213736e-06,684.137872165,1.61674875615,,,,,x,1,1.60066762054,2018_Nov_14_1404,59.9893217356,chinese_cond2,001,1020,
images/razor04a.jpg,razor,z,sounds/animalfarm_english.wav,,,,,,,,,0,1,1,1,0,47,47,36,685.237543133,9.30100213736e-06,685.905002952,0.667470081942,,,,,z,1,0.650412981166,2018_Nov_14_1404,59.9893217356,chinese_cond2,001,1020,
images/safe.jpg,safe,z,sounds/animalfarm_english.wav,,,,,,,,,0,1,1,1,0,48,48,78,687.016015708,9.621726349e-06,687.888865369,0.87285992445,,,,,z,1,0.850483925547,2018_Nov_14_1404,59.9893217356,chinese_cond2,001,1020,
images/lamp04b.jpg,parking meter,x,sounds/animalfarm_english.wav,,,,,,,,,0,1,1,1,0,49,49,209,689.009278565,9.621726349e-06,690.38951211,1.38024348777,,,,,x,1,1.3672778717,2018_Nov_14_1404,59.9893217356,chinese_cond2,001,1020,
images/djmixer01.jpg,light bulb,x,sounds/animalfarm_english.wav,,,,,,,,,0,1,1,1,0,50,50,196,691.510316591,9.30111855268e-06,692.556756242,1.04644959385,,,,,x,1,1.03386403644,2018_Nov_14_1404,59.9893217356,chinese_cond2,001,1020,
images/coin01b.jpg,arrow,x,sounds/animalfarm_english.wav,,,,,,,,,0,1,1,1,0,51,51,124,693.659245739,9.94245056063e-06,694.573947085,0.914711929858,,,,,x,1,0.900492601097,2018_Nov_14_1404,59.9893217356,chinese_cond2,001,1020,
images/cheetah.jpg,cheetah,z,sounds/animalfarm_english.wav,,,,,,,,,0,1,1,1,0,52,52,82,695.676371475,9.94245056063e-06,696.324408527,0.648047636496,,,,,z,1,0.633749730187,2018_Nov_14_1404,59.9893217356,chinese_cond2,001,1020,
images/feather03b.jpg,feather,z,sounds/animalfarm_english.wav,,,,,,,,,0,1,1,1,0,53,53,114,697.425427823,9.621726349e-06,698.0581894,0.632771519944,,,,,z,1,0.617067556479,2018_Nov_14_1404,59.9893217356,chinese_cond2,001,1020,
images/tank.jpg,wallet,x,sounds/animalfarm_english.wav,,,,,,,,,0,1,1,1,0,54,54,237,699.163221282,9.621726349e-06,700.108745873,0.94553453417,,,,,x,1,0.933828724665,2018_Nov_14_1404,59.9893217356,chinese_cond2,001,1020,
images/cloud.jpg,ceiling fan,x,sounds/animalfarm_english.wav,,,,,,,,,0,1,1,1,0,55,55,149,701.213799244,9.62184276432e-06,703.026164078,1.81237541861,,,,,x,1,1.8007029643,2018_Nov_14_1404,59.9893217356,chinese_cond2,001,1020,
images/skateboard.jpg,key,x,sounds/animalfarm_english.wav,,,,,,,,,0,1,1,1,0,56,56,189,704.194218681,8.98027792573e-06,705.110053789,0.915845370968,,,,,x,1,0.900499977753,2018_Nov_14_1404,59.9893217356,chinese_cond2,001,1020,
images/8ball.jpg,nail clipper,x,sounds/animalfarm_english.wav,,,,,,,,,0,1,1,1,0,57,57,206,706.225926806,9.30100213736e-06,707.160579152,0.934662929503,,,,,x,1,0.917158097029,2018_Nov_14_1404,59.9893217356,chinese_cond2,001,1020,
images/beermug01b.jpg,beer mug,z,sounds/animalfarm_english.wav,,,,,,,,,0,1,1,1,0,58,58,111,708.277228002,8.98027792573e-06,709.144448624,0.867230564705,,,,,z,1,0.850472700084,2018_Nov_14_1404,59.9893217356,chinese_cond2,001,1020,
images/orange.jpg,bat,x,sounds/animalfarm_english.wav,,,,,,,,,0,1,1,1,0,59,59,128,710.269301612,8.6595537141e-06,711.011608309,0.742316318559,,,,,x,1,0.733797550201,2018_Nov_14_1404,59.9893217356,chinese_cond2,001,1020,
images/beachumbrella01.jpg,beach umbrella,z,sounds/animalfarm_english.wav,,,,,,,,,0,1,1,1,0,60,60,92,712.116702411,8.98039434105e-06,712.745378277,0.628685808158,,,,,z,1,0.61707525386,2018_Nov_14_1404,59.9893217356,chinese_cond2,001,1020,
images/apricot.jpg,apricot,z,sounds/animalfarm_english.wav,,,,,,,,,0,1,1,1,0,61,61,32,713.862106988,9.30100213736e-06,714.645869916,0.783773191157,,,,,x,0,0.76711090235,2018_Nov_14_1404,59.9893217356,chinese_cond2,001,1020,
images/parrot01.jpg,chameleon,x,sounds/animalfarm_english.wav,,,,,,,,,0,1,1,1,0,62,62,150,715.843186156,8.98027792573e-06,716.779760605,0.936584070441,,,,,z,0,0.91713308054,2018_Nov_14_1404,59.9893217356,chinese_cond2,001,1020,
images/battery03b.jpg,battery,z,sounds/animalfarm_english.wav,,,,,,,,,0,1,1,1,0,63,63,34,717.888705648,9.621726349e-06,718.730268296,0.84157291078,,,,,z,1,0.81710995629,2018_Nov_14_1404,59.9893217356,chinese_cond2,001,1020,
images/banjo.jpg,knife,x,sounds/animalfarm_english.wav,,,,,,,,,0,1,1,1,0,64,64,191,719.826870571,9.30100213736e-06,720.730795567,0.903934939066,,,,,x,1,0.88380337134,2018_Nov_14_1404,59.9893217356,chinese_cond2,001,1020,
images/banana04a.jpg,banana,z,sounds/animalfarm_english.wav,,,,,,,,,0,1,1,1,0,65,65,118,721.836081463,9.30111855268e-06,722.564630674,0.728559154086,,,,,z,1,0.717111848528,2018_Nov_14_1404,59.9893217356,chinese_cond2,001,1020,
images/bed.jpg,bed,z,sounds/animalfarm_english.wav,,,,,,,,,0,1,1,1,0,66,66,103,723.684214156,9.621726349e-06,724.415113638,0.730909745209,,,,,z,1,0.717113452149,2018_Nov_14_1404,59.9893217356,chinese_cond2,001,1020,
images/shotglass.jpg,shot glass,z,sounds/animalfarm_english.wav,,,,,,,,,0,1,1,1,0,67,67,86,725.523222231,9.30100213736e-06,726.599059507,1.075847539,,,,,z,1,1.06724538223,2018_Nov_14_1404,59.9893217356,chinese_cond2,001,1020,
images/aloe02.jpg,broad sword,x,sounds/animalfarm_english.wav,,,,,,,,,0,1,1,1,0,68,68,137,727.719228952,9.94245056063e-06,728.566194849,0.846975838766,,,,,x,1,0.83379694086,2018_Nov_14_1404,59.9893217356,chinese_cond2,001,1020,
images/bull.jpg,button,x,sounds/animalfarm_english.wav,,,,,,,,,0,1,1,1,0,69,69,141,729.751353378,1.02631747723e-05,731.250229398,1.49888852856,,,,,z,0,1.48396713345,2018_Nov_14_1404,59.9893217356,chinese_cond2,001,1020,
images/button07.jpg,radish,x,sounds/animalfarm_english.wav,,,,,,,,,0,1,1,1,0,70,70,215,732.44331079,9.621726349e-06,734.334382103,1.8910815767,,,,,z,0,1.86740119033,2018_Nov_14_1404,59.9893217356,chinese_cond2,001,1020,
images/arrow02.jpg,hammer,x,sounds/animalfarm_english.wav,,,,,,,,,0,1,1,1,0,71,71,184,735.4306489,9.30100213736e-06,736.368242291,0.937603012775,,,,,x,1,0.917158417753,2018_Nov_14_1404,59.9893217356,chinese_cond2,001,1020,
images/peach01.jpg,peach,z,sounds/animalfarm_english.wav,,,,,,,,,0,1,1,1,0,72,72,106,737.496916392,9.30100213736e-06,738.185399714,0.688492622809,,,,,z,1,0.667097399943,2018_Nov_14_1404,59.9893217356,chinese_cond2,001,1020,
images/candycane01a.jpg,lip,x,sounds/animalfarm_english.wav,,,,,,,,,0,1,1,1,0,73,73,200,739.279512524,9.621726349e-06,740.119227477,0.839724895195,,,,,x,1,0.817112842808,2018_Nov_14_1404,59.9893217356,chinese_cond2,001,1020,
images/hairpin.jpg,hair pin,z,sounds/animalfarm_english.wav,,,,,,,,,0,1,1,1,0,74,74,28,741.283592463,9.621726349e-06,742.319812543,1.03623002244,,,,,z,1,1.01717288245,2018_Nov_14_1404,59.9893217356,chinese_cond2,001,1020,
images/tie01.jpg,bench,x,sounds/animalfarm_english.wav,,,,,,,,,0,1,1,1,0,75,75,130,743.417941788,9.30100213736e-06,744.270312537,0.852380691213,,,,,x,1,0.833800148102,2018_Nov_14_1404,59.9893217356,chinese_cond2,001,1020,
images/dreamcatcher.jpg,dream catcher,z,sounds/animalfarm_english.wav,,,,,,,,,0,1,1,1,0,76,76,48,745.397644405,8.98027792573e-06,746.720973694,1.3233389107,,,,,z,1,1.30057066539,2018_Nov_14_1404,59.9893217356,chinese_cond2,001,1020,
images/lettuce.jpg,mushroom,x,sounds/animalfarm_english.wav,,,,,,,,,0,1,1,1,0,77,77,205,747.844480601,8.98027792573e-06,748.688144316,0.843673016061,,,,,x,1,0.833805600414,2018_Nov_14_1404,59.9893217356,chinese_cond2,001,1020,
images/pouch01b.jpg,pouch,z,sounds/animalfarm_english.wav,,,,,,,,,0,1,1,1,0,78,78,25,749.799939319,8.98027792573e-06,750.6718329,0.871903844178,,,,,z,1,0.850301433122,2018_Nov_14_1404,59.9893217356,chinese_cond2,001,1020,
images/comb02a.jpg,diploma,x,sounds/animalfarm_english.wav,,,,,,,,,0,1,1,1,0,79,79,166,751.775804145,9.30100213736e-06,752.88924639,1.11345154606,,,,,x,1,1.10054398107,2018_Nov_14_1404,59.9893217356,chinese_cond2,001,1020,
images/pingpongpaddle01c (1).jpg,ping pong paddle,z,sounds/animalfarm_english.wav,,,,,,,,,0,1,1,1,0,80,80,10,754.000596548,1.02631747723e-05,755.256530997,1.2559447122,,,,,z,1,1.23388879641,2018_Nov_14_1404,59.9893217356,chinese_cond2,001,1020,
images/cactus.jpg,cactus,z,sounds/animalfarm_english.wav,,,,,,,,,0,1,1,1,0,81,81,70,756.441976575,9.30100213736e-06,757.44043421,0.998467577505,,,,,z,1,0.983835796593,2018_Nov_14_1404,59.9893217356,chinese_cond2,001,1020,
images/ashtray02b.jpg,ashtray,z,sounds/animalfarm_english.wav,,,,,,,,,0,1,1,1,0,82,82,43,758.553155786,9.30100213736e-06,759.540981719,0.987835874897,,,,,z,1,0.967161961831,2018_Nov_14_1404,59.9893217356,chinese_cond2,001,1020,
images/spoon02b.jpg,spoon,z,sounds/animalfarm_english.wav,,,,,,,,,0,1,1,1,0,83,83,38,760.633049909,9.621726349e-06,761.241446994,0.608407348511,,,,,z,1,0.600421624724,2018_Nov_14_1404,59.9893217356,chinese_cond2,001,1020,
images/stapler03a.jpg,candy cane,x,sounds/animalfarm_english.wav,,,,,,,,,0,1,1,1,0,84,84,145,762.35219419,9.30100213736e-06,763.175277643,0.823093716637,,,,,x,1,0.800464665983,2018_Nov_14_1404,59.9893217356,chinese_cond2,001,1020,
images/camera01a.jpg,bull,x,sounds/animalfarm_english.wav,,,,,,,,,0,1,1,1,0,85,85,138,764.362850909,9.62184276432e-06,765.025755475,0.662914829329,,,,,x,1,0.650416829856,2018_Nov_14_1404,59.9893217356,chinese_cond2,001,1020,
images/cat.jpg,black olive,x,sounds/animalfarm_english.wav,,,,,,,,,0,1,1,1,0,86,86,133,766.15644469,9.30100213736e-06,767.09296686,0.936532113003,,,,,x,1,0.917149116751,2018_Nov_14_1404,59.9893217356,chinese_cond2,001,1020,
images/flipflop01b.jpg,flip flop,z,sounds/animalfarm_english.wav,,,,,,,,,0,1,1,1,0,87,87,27,768.209827389,8.98027792573e-06,768.81008352,0.600266073248,,,,,z,1,0.583732715691,2018_Nov_14_1404,59.9893217356,chinese_cond2,001,1020,
images/acousticguitar02.jpg,acoustic guitar,z,sounds/animalfarm_english.wav,,,,,,,,,0,1,1,1,0,88,88,97,769.922938197,9.94245056063e-06,771.060684959,1.13775702473,,,,,z,1,1.11721396737,2018_Nov_14_1404,59.9893217356,chinese_cond2,001,1020,
images/cherry01.jpg,highlighter,x,sounds/animalfarm_english.wav,,,,,,,,,0,1,1,1,0,89,89,187,772.246449658,9.30100213736e-06,773.911451122,1.66501044447,,,,,x,1,1.65067340957,2018_Nov_14_1404,59.9893217356,chinese_cond2,001,1020,
images/scissors04a.jpg,leek,x,sounds/animalfarm_english.wav,,,,,,,,,0,1,1,1,0,90,90,194,775.079608998,8.98027792573e-06,776.095337337,1.01573796023,,,,,x,1,1.00051219738,2018_Nov_14_1404,59.9893217356,chinese_cond2,001,1020,
images/mirror02.jpg,8 ball,x,sounds/animalfarm_english.wav,,,,,,,,,0,1,1,1,0,91,91,121,777.196428474,9.30100213736e-06,778.329240566,1.13282235479,,,,,x,1,1.11719985539,2018_Nov_14_1404,59.9893217356,chinese_cond2,001,1020,
images/triangleruler02.jpg,bottle of red wine,x,sounds/animalfarm_english.wav,,,,,,,,,0,1,1,1,0,92,92,134,779.439591025,9.94245056063e-06,781.280023439,1.8404423563,,,,,x,1,1.81737583713,2018_Nov_14_1404,59.9893217356,chinese_cond2,001,1020,
images/watermelon01.jpg,orange,x,sounds/animalfarm_english.wav,,,,,,,,,0,1,1,1,0,93,93,207,782.409117048,9.621726349e-06,783.230670645,0.821572840214,,,,,x,1,0.800458572223,2018_Nov_14_1404,59.9893217356,chinese_cond2,001,1020,
images/elbow.jpg,elbow,z,sounds/animalfarm_english.wav,,,,,,,,,0,1,1,1,0,94,94,105,784.342151017,9.94245056063e-06,785.081024356,0.738883922924,,,,,z,1,0.717107037664,2018_Nov_14_1404,59.9893217356,chinese_cond2,001,1020,
images/lollipop03b.jpg,lollipop,z,sounds/animalfarm_english.wav,,,,,,,,,0,1,1,1,0,95,95,42,786.173656701,8.98027792573e-06,786.881553488,0.707906408701,,,,,z,1,0.683821588522,2018_Nov_14_1404,59.9893217356,chinese_cond2,001,1020,
images/cigar.jpg,crocodile,x,sounds/animalfarm_english.wav,,,,,,,,,0,1,1,1,0,96,96,162,787.979406589,8.98027792573e-06,788.998719988,1.01932398288,,,,,z,0,1.00051027304,2018_Nov_14_1404,59.9893217356,chinese_cond2,001,1020,
images/lion.jpg,lion,z,sounds/animalfarm_english.wav,,,,,,,,,0,1,1,1,0,97,97,44,790.111380947,9.30100213736e-06,791.049258501,0.937887495616,,,,,z,1,0.917157776305,2018_Nov_14_1404,59.9893217356,chinese_cond2,001,1020,
images/doorhandle.jpg,doll,x,sounds/animalfarm_english.wav,,,,,,,,,0,1,1,1,0,98,98,168,792.153662403,8.98027792573e-06,792.999798264,0.846145161893,,,,,x,1,0.833829654846,2018_Nov_14_1404,59.9893217356,chinese_cond2,001,1020,
images/binder03b.jpg,dj mixer,x,sounds/animalfarm_english.wav,,,,,,,,,0,1,1,1,0,99,99,167,794.113089448,9.30100213736e-06,794.966954774,0.853875909699,,,,,x,1,0.833805921138,2018_Nov_14_1404,59.9893217356,chinese_cond2,001,1020,
images/hairdryer03a.jpg,hairdryer,z,sounds/animalfarm_english.wav,,,,,,,,,0,1,1,1,0,100,100,119,796.065959597,9.30100213736e-06,796.684068226,0.61811825051,,,,,z,1,0.600403664168,2018_Nov_14_1404,59.9893217356,chinese_cond2,001,1020,
images/pepper05a.jpg,lighter,x,sounds/animalfarm_english.wav,,,,,,,,,0,1,1,1,0,101,101,198,797.805043331,9.30100213736e-06,798.617894705,0.812861637096,,,,,x,1,0.800453440635,2018_Nov_14_1404,59.9893217356,chinese_cond2,001,1020,
images/handfan01b.jpg,handfan,z,sounds/animalfarm_english.wav,,,,,,,,,0,1,1,1,0,102,102,69,799.732319651,8.98027792573e-06,800.468400761,0.736090731807,,,,,z,1,0.717108320561,2018_Nov_14_1404,59.9893217356,chinese_cond2,001,1020,
images/broom02.jpg,broom,z,sounds/animalfarm_english.wav,,,,,,,,,0,1,1,1,0,103,103,116,801.562219145,9.94245056063e-06,802.302208606,0.739999724203,,,,,z,1,0.717105434043,2018_Nov_14_1404,59.9893217356,chinese_cond2,001,1020,
images/coffeepot03b.jpg,coffee pot,z,sounds/animalfarm_english.wav,,,,,,,,,0,1,1,1,0,104,104,107,803.423499305,8.98027792573e-06,804.069523169,0.646033485536,,,,,z,1,0.63393863698,2018_Nov_14_1404,59.9893217356,chinese_cond2,001,1020,
images/key03b.jpg,cigar,x,sounds/animalfarm_english.wav,,,,,,,,,0,1,1,1,0,105,105,153,805.170898789,9.621726349e-06,806.303263791,1.13237494382,,,,,x,1,1.11721332581,2018_Nov_14_1404,59.9893217356,chinese_cond2,001,1020,
images/ladybug03.jpg,giraffe,x,sounds/animalfarm_english.wav,,,,,,,,,0,1,1,1,0,106,106,178,807.406067598,9.621726349e-06,808.537182414,1.13112475898,,,,,x,1,1.11720979796,2018_Nov_14_1404,59.9893217356,chinese_cond2,001,1020,
images/sunglasses03a.jpg,sun glasses,z,sounds/animalfarm_english.wav,,,,,,,,,0,1,1,1,0,107,107,17,809.645478311,9.30100213736e-06,810.404334722,0.758866353659,,,,,z,1,0.750454065972,2018_Nov_14_1404,59.9893217356,chinese_cond2,001,1020,
images/boxingglove02a.jpg,bracelet,x,sounds/animalfarm_english.wav,,,,,,,,,0,1,1,1,0,108,108,135,811.605445135,9.621726349e-06,812.838317876,1.2328820416,,,,,x,1,1.21724959975,2018_Nov_14_1404,59.9893217356,chinese_cond2,001,1020,
images/sportshorts02.jpg,tape,x,sounds/animalfarm_english.wav,,,,,,,,,0,1,1,1,0,109,109,230,813.946484841,8.98027792573e-06,814.805507741,0.859032841865,,,,,x,1,0.850495471503,2018_Nov_14_1404,59.9893217356,chinese_cond2,001,1020,
images/parkbench03.jpg,park bench,z,sounds/animalfarm_english.wav,,,,,,,,,0,1,1,1,0,110,110,71,815.9441474,9.30100213736e-06,816.739344484,0.795207346906,,,,,z,1,0.783807508764,2018_Nov_14_1404,59.9893217356,chinese_cond2,001,1020,
images/bowlingball.jpg,bowling ball,z,sounds/animalfarm_english.wav,,,,,,,,,0,1,1,1,0,111,111,20,817.871611985,9.621726349e-06,819.039935355,1.1683333125,,,,,z,1,1.15053245111,2018_Nov_14_1404,59.9893217356,chinese_cond2,001,1020,
images/calculator02b.jpg,dice,x,sounds/animalfarm_english.wav,,,,,,,,,0,1,1,1,0,112,112,165,820.141053433,9.62184276432e-06,821.207182052,1.06613856147,,,,,x,1,1.05054236145,2018_Nov_14_1404,59.9893217356,chinese_cond2,001,1020,
images/bowtie.jpg,bowtie,z,sounds/animalfarm_english.wav,,,,,,,,,0,1,1,1,0,113,113,89,822.317436294,9.30100213736e-06,823.241031335,0.923604342504,,,,,z,1,0.900487148669,2018_Nov_14_1404,59.9893217356,chinese_cond2,001,1020,
images/swallow.jpg,mattress,x,sounds/animalfarm_english.wav,,,,,,,,,0,1,1,1,0,114,114,202,824.342576619,1.15460716188e-05,825.291582998,0.949018566404,,,,,x,1,0.933845723164,2018_Nov_14_1404,59.9893217356,chinese_cond2,001,1020,
images/ladder.jpg,ladder,z,sounds/animalfarm_english.wav,,,,,,,,,0,1,1,1,0,115,115,113,826.383889165,9.94245056063e-06,826.992069761,0.608191180043,,,,,z,1,0.583771202713,2018_Nov_14_1404,59.9893217356,chinese_cond2,001,1020,
images/flashlight05.jpg,flash light,z,sounds/animalfarm_english.wav,,,,,,,,,0,1,1,1,0,116,116,8,828.094035194,9.621726349e-06,828.742487586,0.6484623336,,,,,z,1,0.633744919323,2018_Nov_14_1404,59.9893217356,chinese_cond2,001,1020,
images/parkfountain.jpg,park fountain,z,sounds/animalfarm_english.wav,,,,,,,,,0,1,1,1,0,117,117,93,829.862740098,8.98027792573e-06,831.24313561,1.38040545373,,,,,z,1,1.36728268256,2018_Nov_14_1404,59.9893217356,chinese_cond2,001,1020,
images/headphones02b.jpg,headphones,z,sounds/animalfarm_english.wav,,,,,,,,,0,1,1,1,0,118,118,101,832.350992114,8.98027792573e-06,833.043611501,0.692629329744,,,,,z,1,0.683771555545,2018_Nov_14_1404,59.9893217356,chinese_cond2,001,1020,
images/nametag01a.jpg,name tag,z,sounds/animalfarm_english.wav,,,,,,,,,0,1,1,1,0,119,119,108,834.163037186,8.98039434105e-06,835.444237042,1.28120979923,,,,,z,1,1.26725346455,2018_Nov_14_1404,59.9893217356,chinese_cond2,001,1020,
images/licenseplate.jpg,license plate,z,sounds/animalfarm_english.wav,,,,,,,,,0,1,1,1,0,120,120,40,836.561666537,9.621726349e-06,837.211379697,0.649723423063,,,,,z,1,0.63375454105,2018_Nov_14_1404,59.9893217356,chinese_cond2,001,1020,
images/diploma01.jpg,glasses,x,sounds/animalfarm_english.wav,,,,,,,,,0,1,1,1,0,121,121,179,838.35641653,9.94245056063e-06,839.211895101,0.855489154812,,,,,x,1,0.833789564203,2018_Nov_14_1404,59.9893217356,chinese_cond2,001,1020,
images/grasshopper.jpg,cauliflower,x,sounds/animalfarm_english.wav,,,,,,,,,0,1,1,1,0,122,122,148,840.305454019,9.621726349e-06,841.562516457,1.25707302161,,,,,x,1,1.23391894449,2018_Nov_14_1404,59.9893217356,chinese_cond2,001,1020,
images/bottleofredwine02.jpg,pipe,x,sounds/animalfarm_english.wav,,,,,,,,,0,1,1,1,0,123,123,213,842.661076435,9.30100213736e-06,843.37948786,0.718421688187,,,,,z,0,0.700270916102,2018_Nov_14_1404,59.9893217356,chinese_cond2,001,1020,
images/ceilingfan02.jpg,paper clip,x,sounds/animalfarm_english.wav,,,,,,,,,0,1,1,1,0,124,124,208,844.477847386,9.30100213736e-06,845.480203109,1.002365986,,,,,x,1,0.983827457763,2018_Nov_14_1404,59.9893217356,chinese_cond2,001,1020,
images/mitten01.jpg,mitten,z,sounds/animalfarm_english.wav,,,,,,,,,0,1,1,1,0,125,125,102,846.600624002,8.98027792573e-06,847.447398746,0.846784686903,,,,,x,0,0.833814580692,2018_Nov_14_1404,59.9893217356,chinese_cond2,001,1020,
images/thumbtack02a.jpg,thumb tack,z,sounds/animalfarm_english.wav,,,,,,,,,0,1,1,1,0,126,126,60,848.558104248,8.98027792573e-06,849.497934373,0.939839746687,,,,,x,0,0.917167718755,2018_Nov_14_1404,59.9893217356,chinese_cond2,001,1020,
images/hand01a.jpg,cupcake,x,sounds/animalfarm_english.wav,,,,,,,,,0,1,1,1,0,127,127,163,850.689048118,9.30100213736e-06,852.315334585,1.62629673001,,,,,x,1,1.6173347201,2018_Nov_14_1404,59.9893217356,chinese_cond2,001,1020,
images/birthdaycandle.jpg,birthday candle,z,sounds/animalfarm_english.wav,,,,,,,,,0,1,1,1,0,128,128,55,853.412166819,9.30100213736e-06,854.265845483,0.853689247975,,,,,z,1,0.833810411277,2018_Nov_14_1404,59.9893217356,chinese_cond2,001,1020,
images/hat05.jpg,hat,z,sounds/animalfarm_english.wav,,,,,,,,,0,1,1,1,0,129,129,15,855.369514926,9.621726349e-06,855.949597795,0.580093131983,,,,,z,1,0.567047655582,2018_Nov_14_1404,59.9893217356,chinese_cond2,001,1020,
images/dryingmachine01.jpg,drying machine,z,sounds/animalfarm_english.wav,,,,,,,,,0,1,1,1,0,130,130,18,857.071336867,9.621726349e-06,857.733419416,0.662092811894,,,,,z,1,0.650410094648,2018_Nov_14_1404,59.9893217356,chinese_cond2,001,1020,
images/saltshaker03c.jpg,salt shaker,z,sounds/animalfarm_english.wav,,,,,,,,,0,1,1,1,0,131,131,63,858.844832115,9.30100213736e-06,859.667326397,0.822506469791,,,,,z,1,0.800488720299,2018_Nov_14_1404,59.9893217356,chinese_cond2,001,1020,
images/marker01a.jpg,marker,z,sounds/animalfarm_english.wav,,,,,,,,,0,1,1,1,0,132,132,95,860.765512411,9.621726349e-06,861.834328061,1.0688262342,,,,,z,1,1.05035762407,2018_Nov_14_1404,59.9893217356,chinese_cond2,001,1020,
images/desktopcomputer.jpg,desktop computer,z,sounds/animalfarm_english.wav,,,,,,,,,0,1,1,1,0,133,133,16,862.970383,9.94245056063e-06,863.868359195,0.897986137657,,,,,z,1,0.883814917412,2018_Nov_14_1404,59.9893217356,chinese_cond2,001,1020,
images/radish01.jpg,raisin,x,sounds/animalfarm_english.wav,,,,,,,,,0,1,1,1,0,134,134,214,864.979240453,9.30100213736e-06,866.285663061,1.3064322297,,,,,z,0,1.28392120567,2018_Nov_14_1404,59.9893217356,chinese_cond2,001,1020,
images/pictureframe04.jpg,picture frame,z,sounds/animalfarm_english.wav,,,,,,,,,0,1,1,1,0,135,135,41,867.407637224,9.30100213736e-06,868.819660359,1.41203307698,,,,,z,1,1.40061656106,2018_Nov_14_1404,59.9893217356,chinese_cond2,001,1020,
images/umbrella01.jpg,umbrella,z,sounds/animalfarm_english.wav,,,,,,,,,0,1,1,1,0,136,136,53,869.933016329,9.94256697595e-06,870.820182499,0.88717643288,,,,,z,1,0.867142365547,2018_Nov_14_1404,59.9893217356,chinese_cond2,001,1020,
images/icecube02 (2).jpg,aloe,x,sounds/animalfarm_english.wav,,,,,,,,,0,1,1,1,0,137,137,122,871.930787934,8.98027792573e-06,873.870989137,1.94021114591,,,,,x,1,1.91742975079,2018_Nov_14_1404,59.9893217356,chinese_cond2,001,1020,
images/graduationcap.jpg,graduation cap,z,sounds/animalfarm_english.wav,,,,,,,,,0,1,1,1,0,138,138,35,874.972996264,9.621726349e-06,875.58810291,0.615116588189,,,,,z,1,0.600408475031,2018_Nov_14_1404,59.9893217356,chinese_cond2,001,1020,
images/lightswitch02a.jpg,fork,x,sounds/animalfarm_english.wav,,,,,,,,,0,1,1,1,0,139,139,177,876.777860311,9.621726349e-06,877.655306919,0.877456229879,,,,,x,1,0.867143648444,2018_Nov_14_1404,59.9893217356,chinese_cond2,001,1020,
images/charcoalbarbecue.jpg,charcoal barbecue,z,sounds/animalfarm_english.wav,,,,,,,,,0,1,1,1,0,140,140,77,878.772010613,8.98027792573e-06,880.13929522,1.36729422864,,,,,z,1,1.35060082958,2018_Nov_14_1404,59.9893217356,chinese_cond2,001,1020,
images/ear.jpg,bullet,x,sounds/animalfarm_english.wav,,,,,,,,,0,1,1,1,0,141,141,139,881.243057032,9.30111855268e-06,881.923097277,0.68005050777,,,,,x,1,0.667072062613,2018_Nov_14_1404,59.9893217356,chinese_cond2,001,1020,
images/notebook02b.jpg,notebook,z,sounds/animalfarm_english.wav,,,,,,,,,0,1,1,1,0,142,142,7,883.029506029,8.98027792573e-06,883.673385849,0.643889441038,,,,,z,1,0.633581670467,2018_Nov_14_1404,59.9893217356,chinese_cond2,001,1020,
images/aquarium.jpg,computer mouse,x,sounds/animalfarm_english.wav,,,,,,,,,0,1,1,1,0,143,143,159,884.808652767,8.98027792573e-06,885.690750845,0.882108020713,,,,,z,0,0.867142044823,2018_Nov_14_1404,59.9893217356,chinese_cond2,001,1020,
images/cockroach02.jpg,belt,x,sounds/animalfarm_english.wav,,,,,,,,,0,1,1,1,0,144,144,129,886.789556499,9.30100213736e-06,887.391196556,0.601650000201,,,,,x,1,0.583736243774,2018_Nov_14_1404,59.9893217356,chinese_cond2,001,1020,
images/baseball01a.jpg,baseball,z,sounds/animalfarm_english.wav,,,,,,,,,0,1,1,1,0,145,145,74,888.523860152,9.30100213736e-06,889.091650927,0.567800717079,,,,,z,1,0.550400761538,2018_Nov_14_1404,59.9893217356,chinese_cond2,001,1020,
images/grandpiano.jpg,tulip,x,sounds/animalfarm_english.wav,,,,,,,,,0,1,1,1,0,146,146,236,890.20640654,8.98027792573e-06,891.142177252,0.935780334403,,,,,x,1,0.91713532561,2018_Nov_14_1404,59.9893217356,chinese_cond2,001,1020,
images/microphone01.jpg,diaper,x,sounds/animalfarm_english.wav,,,,,,,,,0,1,1,1,0,147,147,164,892.240990924,9.621726349e-06,893.092696169,0.851715187542,,,,,x,1,0.833807524759,2018_Nov_14_1404,59.9893217356,chinese_cond2,001,1020,
images/basketball01.jpg,basket ball,z,sounds/animalfarm_english.wav,,,,,,,,,0,1,1,1,0,148,148,33,894.23187689,9.621726349e-06,894.809808017,0.577940748655,,,,,z,1,0.567061767448,2018_Nov_14_1404,59.9893217356,chinese_cond2,001,1020,
images/computermouse02a.jpg,world map,x,sounds/animalfarm_english.wav,,,,,,,,,0,1,1,1,0,149,149,239,895.911179147,9.30100213736e-06,896.893698369,0.982528843568,,,,,z,0,0.967178960214,2018_Nov_14_1404,59.9893217356,chinese_cond2,001,1020,
images/barrel01.jpg,barrel,z,sounds/animalfarm_english.wav,,,,,,,,,0,1,1,1,0,150,150,9,898.105483462,8.98027792573e-06,899.244303689,1.13882984873,,,,,x,0,1.11720242118,2018_Nov_14_1404,59.9893217356,chinese_cond2,001,1020,
images/gluestick.jpg,squirrel,x,sounds/animalfarm_english.wav,,,,,,,,,0,1,1,1,0,151,151,226,900.35251716,9.621726349e-06,901.495085055,1.14257751673,,,,,x,1,1.13406933227,2018_Nov_14_1404,59.9893217356,chinese_cond2,001,1020,
images/honeycomb.jpg,honey comb,z,sounds/animalfarm_english.wav,,,,,,,,,0,1,1,1,0,152,152,59,902.685874227,9.30100213736e-06,903.41206964,0.726205034764,,,,,z,1,0.717089077109,2018_Nov_14_1404,59.9893217356,chinese_cond2,001,1020,
images/bowl02b (1).jpg,bowl,z,sounds/animalfarm_english.wav,,,,,,,,,0,1,1,1,0,153,153,24,904.529499775,9.30100213736e-06,905.129175394,0.599685561494,,,,,z,1,0.583729187842,2018_Nov_14_1404,59.9893217356,chinese_cond2,001,1020,
images/plate01b.jpg,plate,z,sounds/animalfarm_english.wav,,,,,,,,,0,1,1,1,0,154,154,3,906.228077907,9.621726349e-06,906.946329931,0.718262929469,,,,,z,1,0.700432882062,2018_Nov_14_1404,59.9893217356,chinese_cond2,001,1020,
images/daisy.jpg,daisy,z,sounds/animalfarm_english.wav,,,,,,,,,0,1,1,1,0,155,155,6,908.124512699,9.621726349e-06,908.896847886,0.77234480856,,,,,z,1,0.750445727143,2018_Nov_14_1404,59.9893217356,chinese_cond2,001,1020,
images/tissuebox03.jpg,tissue box,z,sounds/animalfarm_english.wav,,,,,,,,,0,1,1,1,0,156,156,58,910.022224938,8.98027792573e-06,911.414186102,1.39197142725,,,,,z,1,1.36729198357,2018_Nov_14_1404,59.9893217356,chinese_cond2,001,1020,
images/gamecontroller01.jpg,game controller,z,sounds/animalfarm_english.wav,,,,,,,,,0,1,1,1,0,157,157,112,912.609395181,9.30100213736e-06,913.364693151,0.755307592568,,,,,z,1,0.73378985282,2018_Nov_14_1404,59.9893217356,chinese_cond2,001,1020,
images/bicycle.jpg,hand bag,x,sounds/animalfarm_english.wav,,,,,,,,,0,1,1,1,0,158,158,186,914.475103907,9.621726349e-06,915.231836479,0.756742835627,,,,,x,1,0.733776382403,2018_Nov_14_1404,59.9893217356,chinese_cond2,001,1020,
images/pen03c.jpg,pepper,x,sounds/animalfarm_english.wav,,,,,,,,,0,1,1,1,0,159,159,211,916.393578579,9.30100213736e-06,916.89893869,0.505370053812,,,,,z,0,0.483705101302,2018_Nov_14_1404,59.9893217356,chinese_cond2,001,1020,
images/gps.jpg,gps,z,sounds/animalfarm_english.wav,,,,,,,,,0,1,1,1,0,160,160,21,918.017697909,9.30100213736e-06,918.849446702,0.831758414861,,,,,z,1,0.817135614227,2018_Nov_14_1404,59.9893217356,chinese_cond2,001,1020,
images/dice05a.jpg,band aid,x,sounds/animalfarm_english.wav,,,,,,,,,0,1,1,1,0,161,161,126,919.961710604,8.98027792573e-06,920.73328407,0.771583087393,,,,,x,1,0.750429370208,2018_Nov_14_1404,59.9893217356,chinese_cond2,001,1020,
images/hanger02a.jpg,hanger,z,sounds/animalfarm_english.wav,,,,,,,,,0,1,1,1,0,162,162,88,921.826680702,9.94245056063e-06,922.500418706,0.673747946857,,,,,z,1,0.650430300273,2018_Nov_14_1404,59.9893217356,chinese_cond2,001,1020,
images/carrot02.jpg,corkscrew,x,sounds/animalfarm_english.wav,,,,,,,,,0,1,1,1,0,163,163,161,923.602765801,9.94245056063e-06,925.167781666,1.56502580713,,,,,x,1,1.55066215212,2018_Nov_14_1404,59.9893217356,chinese_cond2,001,1020,
images/fork01.jpg,cooking pot,x,sounds/animalfarm_english.wav,,,,,,,,,0,1,1,1,0,164,164,160,926.338019121,9.30111855268e-06,927.585092588,1.24708373065,,,,,z,0,1.23391669954,2018_Nov_14_1404,59.9893217356,chinese_cond2,001,1020,
images/globe.jpg,cloud,x,sounds/animalfarm_english.wav,,,,,,,,,0,1,1,1,0,165,165,154,928.793009741,9.30100213736e-06,929.718969165,0.925969366217,,,,,x,1,0.917158738477,2018_Nov_14_1404,59.9893217356,chinese_cond2,001,1020,
images/lemon02.jpg,lemon,z,sounds/animalfarm_english.wav,,,,,,,,,0,1,1,1,0,166,166,14,930.830640369,9.94245056063e-06,931.702838959,0.872208853252,,,,,z,1,0.850492584985,2018_Nov_14_1404,59.9893217356,chinese_cond2,001,1020,
images/hammer02a.jpg,flower,x,sounds/animalfarm_english.wav,,,,,,,,,0,1,1,1,0,167,167,176,932.797746524,9.30100213736e-06,933.936746357,1.13901041681,,,,,x,1,1.11721108074,2018_Nov_14_1404,59.9893217356,chinese_cond2,001,1020,
images/candy.jpg,candy,z,sounds/animalfarm_english.wav,,,,,,,,,0,1,1,1,0,168,168,31,935.038877284,9.94245056063e-06,935.687200744,0.648334043799,,,,,z,1,0.633729203837,2018_Nov_14_1404,59.9893217356,chinese_cond2,001,1020,
images/corn01.jpg,corn,z,sounds/animalfarm_english.wav,,,,,,,,,0,1,1,1,0,169,169,22,936.858623918,8.98027792573e-06,938.121172993,1.26255901728,,,,,z,1,1.25058411993,2018_Nov_14_1404,59.9893217356,chinese_cond2,001,1020,
images/screwdriver02b.jpg,cola,x,sounds/animalfarm_english.wav,,,,,,,,,0,1,1,1,0,170,170,158,939.214693103,9.30100213736e-06,940.271735592,1.05705243105,,,,,x,1,1.03385249036,2018_Nov_14_1404,59.9893217356,chinese_cond2,001,1020,
images/flamingo.jpg,flamingo,z,sounds/animalfarm_english.wav,,,,,,,,,0,1,1,1,0,171,171,52,941.369723718,8.98039434105e-06,942.038867021,0.669152924442,,,,,z,1,0.650413622614,2018_Nov_14_1404,59.9893217356,chinese_cond2,001,1020,
images/paperclip04.jpg,eye drops,x,sounds/animalfarm_english.wav,,,,,,,,,0,1,1,1,0,172,172,174,943.144121165,9.621726349e-06,943.856010974,0.711899431073,,,,,x,1,0.700430316268,2018_Nov_14_1404,59.9893217356,chinese_cond2,001,1020,
images/cupcake.jpg,scissors,x,sounds/animalfarm_english.wav,,,,,,,,,0,1,1,1,0,173,173,219,944.97525577,9.30100213736e-06,945.839860241,0.864613772021,,,,,x,1,0.850469813566,2018_Nov_14_1404,59.9893217356,chinese_cond2,001,1020,
images/rhinoceros01.jpg,envelope,x,sounds/animalfarm_english.wav,,,,,,,,,0,1,1,1,0,174,174,173,946.9522643,9.30100213736e-06,947.723695043,0.771440364886,,,,,x,1,0.75044861366,2018_Nov_14_1404,59.9893217356,chinese_cond2,001,1020,
images/bat.jpg,hand,x,sounds/animalfarm_english.wav,,,,,,,,,0,1,1,1,0,175,175,185,948.822062266,9.94245056063e-06,949.707561309,0.885508985259,,,,,x,1,0.867152628722,2018_Nov_14_1404,59.9893217356,chinese_cond2,001,1020,
images/giraffe.jpg,lettuce,x,sounds/animalfarm_english.wav,,,,,,,,,0,1,1,1,0,176,176,195,950.808480217,9.621726349e-06,951.708086977,0.89961638127,,,,,x,1,0.883824539138,2018_Nov_14_1404,59.9893217356,chinese_cond2,001,1020,
images/cookingpot.jpg,grasshopper,x,sounds/animalfarm_english.wav,,,,,,,,,0,1,1,1,0,177,177,183,952.901536881,9.621726349e-06,953.842104031,0.940577092813,,,,,x,1,0.917293122155,2018_Nov_14_1404,59.9893217356,chinese_cond2,001,1020,
images/kiwi03.jpg,backpack,x,sounds/animalfarm_english.wav,,,,,,,,,0,1,1,1,0,178,178,125,954.970810526,9.30100213736e-06,955.692458384,0.721657158807,,,,,x,1,0.700420694659,2018_Nov_14_1404,59.9893217356,chinese_cond2,001,1020,
images/bus.jpg,microphone,x,sounds/animalfarm_english.wav,,,,,,,,,0,1,1,1,0,179,179,203,956.811197076,9.94245056063e-06,957.5096126,0.698425466311,,,,,x,1,0.683777970029,2018_Nov_14_1404,59.9893217356,chinese_cond2,001,1020,
images/swan.jpg,swan,z,sounds/animalfarm_english.wav,,,,,,,,,0,1,1,1,0,180,180,54,958.602221852,9.621726349e-06,959.376765229,0.774553318741,,,,,z,1,0.750459197559,2018_Nov_14_1404,59.9893217356,chinese_cond2,001,1020,
images/highheelshoe02a.jpg,high heel shoe,z,sounds/animalfarm_english.wav,,,,,,,,,0,1,1,1,0,181,181,75,960.557528547,9.30100213736e-06,961.343932963,0.786414679606,,,,,x,0,0.767115071882,2018_Nov_14_1404,59.9893217356,chinese_cond2,001,1020,
images/apple06.jpg,apple,z,sounds/animalfarm_english.wav,,,,,,,,,0,1,1,1,0,182,182,13,962.471296905,9.621726349e-06,963.094395368,0.623108085128,,,,,z,1,0.600411040708,2018_Nov_14_1404,59.9893217356,chinese_cond2,001,1020,
images/wallet01.jpg,lamp,x,sounds/animalfarm_english.wav,,,,,,,,,0,1,1,1,0,183,183,193,964.199655606,9.94245056063e-06,965.04489889,0.845253226464,,,,,x,1,0.833797261585,2018_Nov_14_1404,59.9893217356,chinese_cond2,001,1020,
images/rubberglove02a.jpg,lady bug,x,sounds/animalfarm_english.wav,,,,,,,,,0,1,1,1,0,184,184,192,966.149122545,9.62184276432e-06,967.328836773,1.17972417036,,,,,x,1,1.16720147512,2018_Nov_14_1404,59.9893217356,chinese_cond2,001,1020,
images/dolphin01.jpg,dolphin,z,sounds/animalfarm_english.wav,,,,,,,,,0,1,1,1,0,185,185,99,968.513863164,9.621726349e-06,969.412721994,0.898869092693,,,,,z,1,0.883819407667,2018_Nov_14_1404,59.9893217356,chinese_cond2,001,1020,
images/cauliflower01.jpg,glue stick,x,sounds/animalfarm_english.wav,,,,,,,,,0,1,1,1,0,186,186,181,970.599670487,9.621726349e-06,971.479927606,0.880267381668,,,,,x,1,0.867145893513,2018_Nov_14_1404,59.9893217356,chinese_cond2,001,1020,
images/flower01.jpg,bus,x,sounds/animalfarm_english.wav,,,,,,,,,0,1,1,1,0,187,187,140,972.594656919,9.94245056063e-06,973.480468669,0.885822012555,,,,,x,1,0.867164816242,2018_Nov_14_1404,59.9893217356,chinese_cond2,001,1020,
images/butterfly.jpg,butterfly,z,sounds/animalfarm_english.wav,,,,,,,,,0,1,1,1,0,188,188,91,974.61393151,1.02631747723e-05,975.581010084,0.967088836594,,,,,z,1,0.950504163164,2018_Nov_14_1404,59.9893217356,chinese_cond2,001,1020,
images/doll.jpg,carrot,x,sounds/animalfarm_english.wav,,,,,,,,,0,1,1,1,0,189,189,146,976.692030537,9.30100213736e-06,977.581540562,0.88951996807,,,,,x,1,0.86715936393,2018_Nov_14_1404,59.9893217356,chinese_cond2,001,1020,
images/sock03.jpg,sock,z,sounds/animalfarm_english.wav,,,,,,,,,0,1,1,1,0,190,190,90,978.687560597,9.621726349e-06,979.948651657,1.26110164437,,,,,z,1,1.25040066533,2018_Nov_14_1404,59.9893217356,chinese_cond2,001,1020,
images/50dollarbill.jpg,cherry,x,sounds/animalfarm_english.wav,,,,,,,,,0,1,1,1,0,191,191,151,981.099395145,9.621726349e-06,981.949336725,0.849951843149,,,,,x,1,0.833781866706,2018_Nov_14_1404,59.9893217356,chinese_cond2,001,1020,
images/blackolive.jpg,tank,x,sounds/animalfarm_english.wav,,,,,,,,,0,1,1,1,0,192,192,229,983.064718713,9.621726349e-06,983.916520176,0.851811404922,,,,,x,1,0.833799506654,2018_Nov_14_1404,59.9893217356,chinese_cond2,001,1020,
images/panda.jpg,panda,z,sounds/animalfarm_english.wav,,,,,,,,,0,1,1,1,0,193,193,83,985.025529043,9.62184276432e-06,985.716992218,0.691472796607,,,,,z,1,0.667087778216,2018_Nov_14_1404,59.9893217356,chinese_cond2,001,1020,
images/cake.jpg,cake,z,sounds/animalfarm_english.wav,,,,,,,,,0,1,1,1,0,194,194,23,986.831134926,9.94245056063e-06,988.017604578,1.18648216012,,,,,z,1,1.16722007713,2018_Nov_14_1404,59.9893217356,chinese_cond2,001,1020,
images/nailpolish02b.jpg,nail polish,z,sounds/animalfarm_english.wav,,,,,,,,,0,1,1,1,0,195,195,94,989.126424539,9.94256697595e-06,990.218184192,1.09177023673,,,,,z,1,1.06719855638,2018_Nov_14_1404,59.9893217356,chinese_cond2,001,1020,
images/crocodile.jpg,triangle ruler,x,sounds/animalfarm_english.wav,,,,,,,,,0,1,1,1,0,196,196,235,991.315910927,9.621726349e-06,992.451920323,1.13601965911,,,,,x,1,1.1170308335,2018_Nov_14_1404,59.9893217356,chinese_cond2,001,1020,
images/blueberry02.jpg,blueberry,z,sounds/animalfarm_english.wav,,,,,,,,,0,1,1,1,0,197,197,46,993.644612996,8.6595537141e-06,994.335905866,0.691302812542,,,,,z,1,0.667060195818,2018_Nov_14_1404,59.9893217356,chinese_cond2,001,1020,
images/cocktailshrimp01.jpg,cocktail shrimp,z,sounds/animalfarm_english.wav,,,,,,,,,0,1,1,1,0,198,198,30,995.450716643,8.98027792573e-06,996.236424766,0.785718065687,,,,,x,0,0.767114430433,2018_Nov_14_1404,59.9893217356,chinese_cond2,001,1020,
images/gorilla.jpg,gorilla,z,sounds/animalfarm_english.wav,,,,,,,,,0,1,1,1,0,199,199,80,997.347680631,8.98027792573e-06,998.103578357,0.755907347775,,,,,z,1,0.733752648812,2018_Nov_14_1404,59.9893217356,chinese_cond2,001,1020,
images/highlighter03b.jpg,coin,x,sounds/animalfarm_english.wav,,,,,,,,,0,1,1,1,0,200,200,156,999.205189069,9.30100213736e-06,1000.07077175,0.865592944552,,,,,x,1,0.850485208328,2018_Nov_14_1404,59.9893217356,chinese_cond2,001,1020,
images/chessknight02b (1).jpg,cockroach,x,sounds/animalfarm_english.wav,,,,,,,,,0,1,1,1,0,201,201,155,1001.1803111,9.94245056063e-06,1002.12130289,0.941002052976,,,,,x,1,0.917161945719,2018_Nov_14_1404,59.9893217356,chinese_cond2,001,1020,
images/tape01a.jpg,tie,x,sounds/animalfarm_english.wav,,,,,,,,,0,1,1,1,0,202,202,232,1003.2469827,9.621726349e-06,1004.20517175,0.958199310466,,,,,x,1,0.933822951629,2018_Nov_14_1404,59.9893217356,chinese_cond2,001,1020,
images/knife04.jpg,tooth brush,x,sounds/animalfarm_english.wav,,,,,,,,,0,1,1,1,0,203,203,233,1005.37796602,9.30100213736e-06,1006.405752,1.02779624611,,,,,x,1,1.01717352401,2018_Nov_14_1404,59.9893217356,chinese_cond2,001,1020,
images/lipstick04.jpg,lipstick,z,sounds/animalfarm_english.wav,,,,,,,,,0,1,1,1,0,204,204,56,1007.56715638,9.30100213736e-06,1009.0397798,1.47263240244,,,,,z,1,1.45061080414,2018_Nov_14_1404,59.9893217356,chinese_cond2,001,1020,
images/medal01.jpg,medal,z,sounds/animalfarm_english.wav,,,,,,,,,0,1,1,1,0,205,205,115,1010.14079236,9.621726349e-06,1011.09031992,0.94953878189,,,,,z,1,0.933829045389,2018_Nov_14_1404,59.9893217356,chinese_cond2,001,1020,
images/belt02a.jpg,snowman,x,sounds/animalfarm_english.wav,,,,,,,,,0,1,1,1,0,206,206,224,1012.26962779,9.621726349e-06,1013.89089973,1.62128284096,,,,,x,1,1.6005114275,2018_Nov_14_1404,59.9893217356,chinese_cond2,001,1020,
images/lantern03.jpg,lantern,z,sounds/animalfarm_english.wav,,,,,,,,,0,1,1,1,0,207,207,5,1014.99814397,9.94245056063e-06,1015.82489651,0.826762165641,,,,,z,1,0.817137859412,2018_Nov_14_1404,59.9893217356,chinese_cond2,001,1020,
images/mattress.jpg,cat,x,sounds/animalfarm_english.wav,,,,,,,,,0,1,1,1,0,208,208,147,1016.92957624,9.30100213736e-06,1017.89211303,0.962546412833,,,,,x,1,0.950508974027,2018_Nov_14_1404,59.9893217356,chinese_cond2,001,1020,
images/leaf01a.jpg,leaf,z,sounds/animalfarm_english.wav,,,,,,,,,0,1,1,1,0,209,209,68,1019.08574767,8.98027792573e-06,1019.90930323,0.823565182043,,,,,z,1,0.800456968485,2018_Nov_14_1404,59.9893217356,chinese_cond2,001,1020,
images/pipe.jpg,icecube,x,sounds/animalfarm_english.wav,,,,,,,,,0,1,1,1,0,210,210,188,1021.0853458,8.98027792573e-06,1022.49330407,1.40796821227,,,,,z,0,1.38391803054,2018_Nov_14_1404,59.9893217356,chinese_cond2,001,1020,
images/volleyball.jpg,volley ball,z,sounds/animalfarm_english.wav,,,,,,,,,0,1,1,1,0,211,211,2,1023.62737501,9.621726349e-06,1024.46048977,0.833124701865,,,,,z,1,0.817127275397,2018_Nov_14_1404,59.9893217356,chinese_cond2,001,1020,
images/fryingpan01.jpg,frying pan,z,sounds/animalfarm_english.wav,,,,,,,,,0,1,1,1,0,212,212,45,1025.56169989,9.94245056063e-06,1028.01141491,2.44972592476,,,,,z,1,2.43421888619,2018_Nov_14_1404,59.9893217356,chinese_cond2,001,1020,
images/envelope02a.jpg,grand piano,x,sounds/animalfarm_english.wav,,,,,,,,,0,1,1,1,0,213,213,182,1029.13406163,9.30100213736e-06,1030.71213035,1.5780786603,,,,,x,1,1.56732989324,2018_Nov_14_1404,59.9893217356,chinese_cond2,001,1020,
images/parkingmeter.jpg,ear,x,sounds/animalfarm_english.wav,,,,,,,,,0,1,1,1,0,214,214,171,1031.81370097,9.62184276432e-06,1032.74599824,0.932307527517,,,,,x,1,0.91715392773,2018_Nov_14_1404,59.9893217356,chinese_cond2,001,1020,
images/screw03c.jpg,screw,z,sounds/animalfarm_english.wav,,,,,,,,,0,1,1,1,0,215,215,84,1033.83984902,9.30100213736e-06,1034.52980094,0.68996154191,,,,,z,1,0.667086815927,2018_Nov_14_1404,59.9893217356,chinese_cond2,001,1020,
images/worldmap.jpg,scooter,x,sounds/animalfarm_english.wav,,,,,,,,,0,1,1,1,0,216,216,220,1035.66255081,9.30100213736e-06,1036.3636152,0.701074652141,,,,,x,1,0.683762895991,2018_Nov_14_1404,59.9893217356,chinese_cond2,001,1020,
images/electrictoothbrush01a.jpg,banjo,x,sounds/animalfarm_english.wav,,,,,,,,,0,1,1,1,0,217,217,127,1037.45812282,8.98039434105e-06,1038.28078676,0.822673567454,,,,,x,1,0.800461458624,2018_Nov_14_1404,59.9893217356,chinese_cond2,001,1020,
images/eyedrops.jpg,bicycle,x,sounds/animalfarm_english.wav,,,,,,,,,0,1,1,1,0,218,218,131,1039.38112356,9.30100213736e-06,1040.0812758,0.700162511203,,,,,z,0,0.683772838442,2018_Nov_14_1404,59.9893217356,chinese_cond2,001,1020,
images/redfox.jpg,red fox,z,sounds/animalfarm_english.wav,,,,,,,,,0,1,1,1,0,219,219,1,1041.27566319,9.621726349e-06,1042.0484599,0.772806972847,,,,,z,1,0.750450217281,2018_Nov_14_1404,59.9893217356,chinese_cond2,001,1020,
images/chameleon.jpg,50 dollar bill,x,sounds/animalfarm_english.wav,,,,,,,,,0,1,1,1,0,220,220,120,1043.23076045,1.02631747723e-05,1044.46574195,1.23499208933,,,,,x,1,1.21723580861,2018_Nov_14_1404,59.9893217356,chinese_cond2,001,1020,
images/paintbrush03a.jpg,paint brush,z,sounds/animalfarm_english.wav,,,,,,,,,0,1,1,1,0,221,221,0,1045.56586739,9.621726349e-06,1046.46626826,0.900411457755,,,,,z,1,0.883813313907,2018_Nov_14_1404,59.9893217356,chinese_cond2,001,1020,
images/candle08a.jpg,screw driver,x,sounds/animalfarm_english.wav,,,,,,,,,0,1,1,1,0,222,222,221,1047.57988819,8.98027792573e-06,1048.38344079,0.803562545683,,,,,x,1,0.783792434609,2018_Nov_14_1404,59.9893217356,chinese_cond2,001,1020,
images/toucan.jpg,toucan,z,sounds/animalfarm_english.wav,,,,,,,,,0,1,1,1,0,223,223,81,1049.48417368,9.30100213736e-06,1050.85075141,1.36658799287,,,,,z,1,1.35060307477,2018_Nov_14_1404,59.9893217356,chinese_cond2,001,1020,
images/lock02a.jpg,lock,z,sounds/animalfarm_english.wav,,,,,,,,,0,1,1,1,0,224,224,65,1051.96167725,9.621726349e-06,1052.76792522,0.80625823664,,,,,z,1,0.783791472553,2018_Nov_14_1404,59.9893217356,chinese_cond2,001,1020,
,,,sounds/animalfarm_english.wav,,,,,,,,,0,1,1,1,,,,,,,,,,,,,,,,2018_Nov_14_1404,59.9893217356,chinese_cond2,001,1020,
