images,name,corrAns,sounds,trials_3.thisRepN,trials_3.thisTrialN,trials_3.thisN,trials_3.thisIndex,trials_4.thisRepN,trials_4.thisTrialN,trials_4.thisN,trials_4.thisIndex,trials_2.thisRepN,trials_2.thisTrialN,trials_2.thisN,trials_2.thisIndex,trials.thisRepN,trials.thisTrialN,trials.thisN,trials.thisIndex,begin_global,begin_routine,end_global,end_routine,key_resp_2.keys,key_resp_2.corr,key_resp_2.rt,begin_book,key_resp_1.keys,key_resp_1.corr,key_resp_1.rt,date,frameRate,expName,session,participant,
images/volleyball.jpg,volley ball,z,,0,0,0,0,,,,,,,,,,,,,,,,,,,,,,,,2018_Nov_14_1535,59.9964401795,chinese_cond1,001,1029,
images/puma.jpg,puma,z,,,,,,0,0,0,0,,,,,,,,,48.1527407921,1.05838989839e-05,49.6301982489,1.47746900283,z,1,1.46731200546,,,,,2018_Nov_14_1535,59.9964401795,chinese_cond1,001,1029,
images/atm.jpg,atm,z,sounds/greatgatsby_english.wav,,,,,,,,,0,0,0,0,0,0,0,96,91.8181580263,9.94245056063e-06,93.1414740907,1.32332664833,,,,81.6267411687,z,1,1.3005847754,2018_Nov_14_1535,59.9964401795,chinese_cond1,001,1029,
images/raisin.jpg,ruler,x,sounds/greatgatsby_english.wav,,,,,,,,,0,0,0,0,0,1,1,218,94.2505621484,9.621726349e-06,95.7754616897,1.52490980446,,,,,z,0,1.50061627058,2018_Nov_14_1535,59.9964401795,chinese_cond1,001,1029,
images/radish01.jpg,raisin,x,sounds/greatgatsby_english.wav,,,,,,,,,0,0,0,0,0,2,2,214,96.8888817617,9.30100213736e-06,98.1927972523,1.30392607453,,,,,x,1,1.28392959596,2018_Nov_14_1535,59.9964401795,chinese_cond1,001,1029,
images/lollipop03b.jpg,lollipop,z,sounds/greatgatsby_english.wav,,,,,,,,,0,0,0,0,0,3,3,42,99.2892115939,9.30100213736e-06,100.460086101,1.17088444997,,,,,z,1,1.15059290582,2018_Nov_14_1535,59.9964401795,chinese_cond1,001,1029,
images/charcoalbarbecue.jpg,charcoal barbecue,z,sounds/greatgatsby_english.wav,,,,,,,,,0,0,0,0,0,4,4,77,101.577676864,9.621726349e-06,103.144067462,1.56640118232,,,,,z,1,1.55065621657,2018_Nov_14_1535,59.9964401795,chinese_cond1,001,1029,
images/toothbrush03a.jpg,parrot,x,sounds/greatgatsby_english.wav,,,,,,,,,0,0,0,0,0,5,5,210,104.2354365,9.30100213736e-06,105.477978954,1.24255239579,,,,,z,0,1.23388323537,2018_Nov_14_1535,59.9964401795,chinese_cond1,001,1029,
images/sportshorts02.jpg,tape,x,sounds/greatgatsby_english.wav,,,,,,,,,0,0,0,0,0,6,6,230,106.584784742,9.30100213736e-06,107.978629221,1.39385474229,,,,,x,1,1.38393187313,2018_Nov_14_1535,59.9964401795,chinese_cond1,001,1029,
images/doll.jpg,carrot,x,sounds/greatgatsby_english.wav,,,,,,,,,0,0,0,0,0,7,7,146,109.088924482,8.6595537141e-06,110.295922736,1.20700819674,,,,,x,1,1.18389813299,2018_Nov_14_1535,59.9964401795,chinese_cond1,001,1029,
images/lightswitch02a.jpg,fork,x,sounds/greatgatsby_english.wav,,,,,,,,,0,0,0,0,0,8,8,177,111.406862652,8.98027792573e-06,112.279746077,0.872893046122,,,,,x,1,0.850447842386,2018_Nov_14_1535,59.9964401795,chinese_cond1,001,1029,
images/puzzle.jpg,puzzle,z,sounds/greatgatsby_english.wav,,,,,,,,,0,0,0,0,0,9,9,57,113.399507817,8.6595537141e-06,114.847068377,1.44757018157,,,,,z,1,1.43391601346,2018_Nov_14_1535,59.9964401795,chinese_cond1,001,1029,
images/eyedrops.jpg,bicycle,x,sounds/greatgatsby_english.wav,,,,,,,,,0,0,0,0,0,10,10,131,115.947546288,9.30100213736e-06,116.930961026,0.983425001497,,,,,x,1,0.967158539104,2018_Nov_14_1535,59.9964401795,chinese_cond1,001,1029,
images/electricguitar02.jpg,electric guitar,z,sounds/greatgatsby_english.wav,,,,,,,,,0,0,0,0,0,11,11,100,118.031945359,9.30100213736e-06,120.248471351,2.21653593436,,,,,z,1,2.20079898671,2018_Nov_14_1535,59.9964401795,chinese_cond1,001,1029,
images/doorhandle.jpg,doll,x,sounds/greatgatsby_english.wav,,,,,,,,,0,0,0,0,0,12,12,168,121.352093636,1.05838989839e-05,123.149294616,1.79721124365,,,,,x,1,1.78408883535,2018_Nov_14_1535,59.9964401795,chinese_cond1,001,1029,
images/carrot02.jpg,corkscrew,x,sounds/greatgatsby_english.wav,,,,,,,,,0,0,0,0,0,13,13,161,124.249672782,9.30100213736e-06,125.24976964,1.00010712165,,,,,x,1,0.983815322164,2018_Nov_14_1535,59.9964401795,chinese_cond1,001,1029,
images/candle08a.jpg,screw driver,x,sounds/greatgatsby_english.wav,,,,,,,,,0,0,0,0,0,14,14,221,126.362496949,9.621726349e-06,128.41726789,2.05478088313,,,,,x,1,2.03410158411,2018_Nov_14_1535,59.9964401795,chinese_cond1,001,1029,
images/cactus.jpg,cactus,z,sounds/greatgatsby_english.wav,,,,,,,,,0,0,0,0,0,15,15,70,129.527733776,9.30100213736e-06,130.517800644,0.990076489397,,,,,z,1,0.967122618109,2018_Nov_14_1535,59.9964401795,chinese_cond1,001,1029,
images/ladybug03.jpg,giraffe,x,sounds/greatgatsby_english.wav,,,,,,,,,0,0,0,0,0,16,16,178,131.620964294,8.98027792573e-06,132.651688658,1.03073462716,,,,,x,1,1.01715743262,2018_Nov_14_1535,59.9964401795,chinese_cond1,001,1029,
images/backpack01b.jpg,swallow,x,sounds/greatgatsby_english.wav,,,,,,,,,0,0,0,0,0,17,17,228,133.782454748,8.98027792573e-06,135.985895215,2.20345008851,,,,,x,1,2.18413931725,2018_Nov_14_1535,59.9964401795,chinese_cond1,001,1029,
images/scooter.jpg,pen,x,sounds/greatgatsby_english.wav,,,,,,,,,0,0,0,0,0,18,18,212,137.076857254,8.98016151041e-06,137.85303961,0.776191977435,,,,,x,1,0.767085029394,2018_Nov_14_1535,59.9964401795,chinese_cond1,001,1029,
images/croissant02b.jpg,croissant,z,sounds/greatgatsby_english.wav,,,,,,,,,0,0,0,0,0,19,19,39,138.96316585,8.98027792573e-06,139.836874817,0.873718909454,,,,,x,0,0.850400375435,2018_Nov_14_1535,59.9964401795,chinese_cond1,001,1029,
images/boxingglove02a.jpg,bracelet,x,sounds/greatgatsby_english.wav,,,,,,,,,0,0,0,0,0,20,20,135,140.946923763,9.30100213736e-06,142.137500325,1.19058714563,,,,,x,1,1.16720991908,2018_Nov_14_1535,59.9964401795,chinese_cond1,001,1029,
images/birthdaycandle.jpg,birthday candle,z,sounds/greatgatsby_english.wav,,,,,,,,,0,0,0,0,0,21,21,55,143.234798581,9.30100213736e-06,144.538117846,1.30332888698,,,,,z,1,1.28391548421,2018_Nov_14_1535,59.9964401795,chinese_cond1,001,1029,
images/bracelet02a.jpg,chess knight,x,sounds/greatgatsby_english.wav,,,,,,,,,0,0,0,0,0,22,22,152,145.645399909,9.30088572204e-06,147.772270169,2.1268798816,,,,,x,1,2.11745060608,2018_Nov_14_1535,59.9964401795,chinese_cond1,001,1029,
images/desktopcomputer.jpg,desktop computer,z,sounds/greatgatsby_english.wav,,,,,,,,,0,0,0,0,0,23,23,16,148.907355444,9.30100213736e-06,150.67302512,1.76567993895,,,,,z,1,1.75068610802,2018_Nov_14_1535,59.9964401795,chinese_cond1,001,1029,
images/worldmap.jpg,scooter,x,sounds/greatgatsby_english.wav,,,,,,,,,0,0,0,0,0,24,24,220,151.802700429,8.98027792573e-06,152.706881671,0.904191184673,,,,,x,1,0.883787387167,2018_Nov_14_1535,59.9964401795,chinese_cond1,001,1029,
images/coin01b.jpg,arrow,x,sounds/greatgatsby_english.wav,,,,,,,,,0,0,0,0,0,25,25,124,153.808009688,9.30100213736e-06,155.174184696,1.36618462973,,,,,x,1,1.35058174469,2018_Nov_14_1535,59.9964401795,chinese_cond1,001,1029,
images/bandaid01.jpg,door handle,x,sounds/greatgatsby_english.wav,,,,,,,,,0,0,0,0,0,26,26,170,156.280394901,9.621726349e-06,157.658158296,1.37777397898,,,,,x,1,1.36724526284,2018_Nov_14_1535,59.9964401795,chinese_cond1,001,1029,
images/thumbtack02a.jpg,thumb tack,z,sounds/greatgatsby_english.wav,,,,,,,,,0,0,0,0,0,27,27,60,158.767235449,9.30100213736e-06,161.392505458,2.62527963088,,,,,z,1,2.60093381896,2018_Nov_14_1535,59.9964401795,chinese_cond1,001,1029,
images/highlighter03b.jpg,coin,x,sounds/greatgatsby_english.wav,,,,,,,,,0,0,0,0,0,28,28,156,162.492940712,9.621726349e-06,164.076523702,1.58359389449,,,,,x,1,1.56730850949,2018_Nov_14_1535,59.9964401795,chinese_cond1,001,1029,
images/toucan.jpg,toucan,z,sounds/greatgatsby_english.wav,,,,,,,,,0,0,0,0,0,29,29,81,165.175806275,9.30100213736e-06,166.393784504,1.21798785031,,,,,x,0,1.20054818084,2018_Nov_14_1535,59.9964401795,chinese_cond1,001,1029,
images/dice05a.jpg,band aid,x,sounds/greatgatsby_english.wav,,,,,,,,,0,0,0,0,0,30,30,126,167.505528474,9.30100213736e-06,169.011138412,1.505620201,,,,,x,1,1.4839713542,2018_Nov_14_1535,59.9964401795,chinese_cond1,001,1029,
images/nametag01a.jpg,name tag,z,sounds/greatgatsby_english.wav,,,,,,,,,0,0,0,0,0,31,31,108,170.131402727,9.30100213736e-06,171.52845765,1.39706518606,,,,,z,1,1.38394694717,2018_Nov_14_1535,59.9964401795,chinese_cond1,001,1029,
images/squirrel.jpg,binder,x,sounds/greatgatsby_english.wav,,,,,,,,,0,0,0,0,0,32,32,132,172.630631867,9.621726349e-06,173.628988479,0.998366554384,,,,,x,1,0.983832320548,2018_Nov_14_1535,59.9964401795,chinese_cond1,001,1029,
images/bench02.jpg,electric toothbrush,x,sounds/greatgatsby_english.wav,,,,,,,,,0,0,0,0,0,33,33,172,174.736694218,9.30100213736e-06,176.162978933,1.42629401572,,,,,x,1,1.41726949357,2018_Nov_14_1535,59.9964401795,chinese_cond1,001,1029,
images/teapot.jpg,light switch,x,sounds/greatgatsby_english.wav,,,,,,,,,0,0,0,0,0,34,34,197,177.278759851,8.98016151041e-06,178.413557759,1.13480784965,,,,,x,1,1.117193065,2018_Nov_14_1535,59.9964401795,chinese_cond1,001,1029,
images/dreamcatcher.jpg,dream catcher,z,sounds/greatgatsby_english.wav,,,,,,,,,0,0,0,0,0,35,35,48,179.511464107,9.30088572204e-06,181.114275121,1.60282127769,,,,,z,1,1.58397363138,2018_Nov_14_1535,59.9964401795,chinese_cond1,001,1029,
images/ostrich.jpg,ostrich,z,sounds/greatgatsby_english.wav,,,,,,,,,0,0,0,0,0,36,36,76,182.21328091,9.94245056063e-06,183.331492914,1.11822258809,,,,,z,1,1.1005183215,2018_Nov_14_1535,59.9964401795,chinese_cond1,001,1029,
images/parkfountain.jpg,park fountain,z,sounds/greatgatsby_english.wav,,,,,,,,,0,0,0,0,0,37,37,93,184.452492969,8.98027792573e-06,186.799066951,2.34658360353,,,,,z,1,2.33417769184,2018_Nov_14_1535,59.9964401795,chinese_cond1,001,1029,
images/tulip02.jpg,sport shorts,x,sounds/greatgatsby_english.wav,,,,,,,,,0,0,0,0,0,38,38,225,187.89252839,9.62160993367e-06,189.183011011,1.29049256409,,,,,x,1,1.26722694945,2018_Nov_14_1535,59.9964401795,chinese_cond1,001,1029,
images/knife04.jpg,tooth brush,x,sounds/greatgatsby_english.wav,,,,,,,,,0,0,0,0,0,39,39,233,190.278026356,9.94233414531e-06,191.366924218,1.0889084459,,,,,x,1,1.06718647422,2018_Nov_14_1535,59.9964401795,chinese_cond1,001,1029,
images/screwdriver02b.jpg,cola,x,sounds/greatgatsby_english.wav,,,,,,,,,0,0,0,0,0,40,40,158,192.459062672,9.30088572204e-06,193.534155305,1.07510257536,,,,,x,1,1.05052135233,2018_Nov_14_1535,59.9964401795,chinese_cond1,001,1029,
images/gluestick.jpg,squirrel,x,sounds/greatgatsby_english.wav,,,,,,,,,0,0,0,0,0,41,41,226,194.642650345,9.30088572204e-06,196.418222363,1.77558164031,,,,,x,1,1.76736117236,2018_Nov_14_1535,59.9964401795,chinese_cond1,001,1029,
images/ant.jpg,ant,z,sounds/greatgatsby_english.wav,,,,,,,,,0,0,0,0,0,42,42,98,197.511268786,8.98016151041e-06,198.835522005,1.3242631614,,,,,z,1,1.30057290872,2018_Nov_14_1535,59.9964401795,chinese_cond1,001,1029,
images/magnifyingglass01b.jpg,magnifying glass,z,sounds/greatgatsby_english.wav,,,,,,,,,0,0,0,0,0,43,43,64,199.942839027,9.30100213736e-06,201.019481717,1.07665327424,,,,,z,1,1.06724163867,2018_Nov_14_1535,59.9964401795,chinese_cond1,001,1029,
images/beermug01b.jpg,beer mug,z,sounds/greatgatsby_english.wav,,,,,,,,,0,0,0,0,0,44,44,111,202.135173154,9.94245056063e-06,205.137015391,3.0018524999,,,,,None,0,,2018_Nov_14_1535,59.9964401795,chinese_cond1,001,1029,
images/axe01.jpg,axe,z,sounds/greatgatsby_english.wav,,,,,,,,,0,0,0,0,0,45,45,104,206.24041349,9.621726349e-06,207.504441542,1.2640379942,,,,,z,1,1.25056984578,2018_Nov_14_1535,59.9964401795,chinese_cond1,001,1029,
images/comb02a.jpg,diploma,x,sounds/greatgatsby_english.wav,,,,,,,,,0,0,0,0,0,46,46,166,208.607431039,9.30100213736e-06,209.571628657,0.964207560872,,,,,x,1,0.950482833316,2018_Nov_14_1535,59.9964401795,chinese_cond1,001,1029,
images/saltshaker03c.jpg,salt shaker,z,sounds/greatgatsby_english.wav,,,,,,,,,0,0,0,0,0,47,47,63,210.68207081,9.30100213736e-06,211.988931185,1.30687063839,,,,,z,1,1.28390586248,2018_Nov_14_1535,59.9964401795,chinese_cond1,001,1029,
images/pouch01b.jpg,pouch,z,sounds/greatgatsby_english.wav,,,,,,,,,0,0,0,0,0,48,48,25,213.100093363,9.30100213736e-06,214.072803949,0.972720849561,,,,,z,1,0.950489568524,2018_Nov_14_1535,59.9964401795,chinese_cond1,001,1029,
images/flipflop01b.jpg,flip flop,z,sounds/greatgatsby_english.wav,,,,,,,,,0,0,0,0,0,49,49,27,215.189406883,9.30100213736e-06,215.939966305,0.750570006086,,,,,z,1,0.733777556918,2018_Nov_14_1535,59.9964401795,chinese_cond1,001,1029,
images/masquerademask02b.jpg,mirror,x,sounds/greatgatsby_english.wav,,,,,,,,,0,0,0,0,0,50,50,204,217.044037282,9.94245056063e-06,218.690678391,1.64665169315,,,,,x,1,1.63398375013,2018_Nov_14_1535,59.9964401795,chinese_cond1,001,1029,
images/cigar.jpg,crocodile,x,sounds/greatgatsby_english.wav,,,,,,,,,0,0,0,0,0,51,51,162,219.788108786,8.98027792573e-06,222.05820108,2.27010191628,,,,,x,1,2.25081519934,2018_Nov_14_1535,59.9964401795,chinese_cond1,001,1029,
images/watermelon01.jpg,orange,x,sounds/greatgatsby_english.wav,,,,,,,,,0,0,0,0,0,52,52,207,223.186946291,8.98027792573e-06,224.258780051,1.07184370235,,,,,x,1,1.05051878653,2018_Nov_14_1535,59.9964401795,chinese_cond1,001,1029,
images/tape01a.jpg,tie,x,sounds/greatgatsby_english.wav,,,,,,,,,0,0,0,0,0,53,53,232,225.383737515,8.98027792573e-06,226.842760738,1.45903252426,,,,,x,1,1.45060037868,2018_Nov_14_1535,59.9964401795,chinese_cond1,001,1029,
images/ladder.jpg,ladder,z,sounds/greatgatsby_english.wav,,,,,,,,,0,0,0,0,0,54,54,113,227.93363971,9.30100213736e-06,228.876474246,0.942844799603,,,,,z,1,0.933640672127,2018_Nov_14_1535,59.9964401795,chinese_cond1,001,1029,
images/triangleruler02.jpg,bottle of red wine,x,sounds/greatgatsby_english.wav,,,,,,,,,0,0,0,0,0,55,55,134,229.986951037,9.621726349e-06,232.060633448,2.07369267428,,,,,x,1,2.05059030792,2018_Nov_14_1535,59.9964401795,chinese_cond1,001,1029,
images/medal01.jpg,medal,z,sounds/greatgatsby_english.wav,,,,,,,,,0,0,0,0,0,56,56,115,233.160777806,8.98027792573e-06,234.244964238,1.08419637394,,,,,z,1,1.06744914688,2018_Nov_14_1535,59.9964401795,chinese_cond1,001,1029,
images/dresser02.jpg,dresser,z,sounds/greatgatsby_english.wav,,,,,,,,,0,0,0,0,0,57,57,87,235.367459827,9.30100213736e-06,236.31191049,0.944460925995,,,,,z,1,0.933832464856,2018_Nov_14_1535,59.9964401795,chinese_cond1,001,1029,
images/dryingmachine01.jpg,drying machine,z,sounds/greatgatsby_english.wav,,,,,,,,,0,0,0,0,0,58,58,18,237.432985594,9.621726349e-06,239.346032921,1.91305791086,,,,,z,1,1.9007453298,2018_Nov_14_1535,59.9964401795,chinese_cond1,001,1029,
images/cloud.jpg,ceiling fan,x,sounds/greatgatsby_english.wav,,,,,,,,,0,0,0,0,0,59,59,149,240.451556135,9.30100213736e-06,241.379872153,0.928326281253,,,,,x,1,0.91713815718,2018_Nov_14_1535,59.9964401795,chinese_cond1,001,1029,
images/bowlingball.jpg,bowling ball,z,sounds/greatgatsby_english.wav,,,,,,,,,0,0,0,0,0,60,60,20,242.513005505,9.94233414531e-06,244.414213639,1.90121839708,,,,,z,1,1.88426879328,2018_Nov_14_1535,59.9964401795,chinese_cond1,001,1029,
images/lipstick04.jpg,lipstick,z,sounds/greatgatsby_english.wav,,,,,,,,,0,0,0,0,0,61,61,56,245.51301256,9.30088572204e-06,246.447864285,0.934861666989,,,,,z,1,0.917141043697,2018_Nov_14_1535,59.9964401795,chinese_cond1,001,1029,
images/bowtie.jpg,bowtie,z,sounds/greatgatsby_english.wav,,,,,,,,,0,0,0,0,0,62,62,89,247.557116232,9.30100213736e-06,249.215268114,1.65816182375,,,,,z,1,1.63402865152,2018_Nov_14_1535,59.9964401795,chinese_cond1,001,1029,
images/calculator02b.jpg,dice,x,sounds/greatgatsby_english.wav,,,,,,,,,0,0,0,0,0,63,63,165,250.316953549,9.621726349e-06,251.332442897,1.01549961208,,,,,x,1,1.00048557564,2018_Nov_14_1535,59.9964401795,chinese_cond1,001,1029,
images/hammer02a.jpg,flower,x,sounds/greatgatsby_english.wav,,,,,,,,,0,0,0,0,0,64,64,176,252.426670545,9.30100213736e-06,254.183175222,1.75651493983,,,,,x,1,1.73400078074,2018_Nov_14_1535,59.9964401795,chinese_cond1,001,1029,
images/gps.jpg,gps,z,sounds/greatgatsby_english.wav,,,,,,,,,0,0,0,0,0,65,65,21,255.301127761,9.30100213736e-06,256.867063573,1.56594575476,,,,,z,1,1.55048013944,2018_Nov_14_1535,59.9964401795,chinese_cond1,001,1029,
images/parkbench03.jpg,park bench,z,sounds/greatgatsby_english.wav,,,,,,,,,0,0,0,0,0,66,66,71,257.971667272,9.30100213736e-06,260.55151287,2.57985586044,,,,,z,1,2.56752018712,2018_Nov_14_1535,59.9964401795,chinese_cond1,001,1029,
images/butterfly.jpg,butterfly,z,sounds/greatgatsby_english.wav,,,,,,,,,0,0,0,0,0,67,67,91,261.657816084,9.30088572204e-06,264.002414087,2.34460826649,,,,,z,1,2.3341825027,2018_Nov_14_1535,59.9964401795,chinese_cond1,001,1029,
images/dolphin01.jpg,dolphin,z,sounds/greatgatsby_english.wav,,,,,,,,,0,0,0,0,0,68,68,99,265.10170981,9.30100213736e-06,266.136315251,1.03461538337,,,,,z,1,1.01718501491,2018_Nov_14_1535,59.9964401795,chinese_cond1,001,1029,
images/cupcake.jpg,scissors,x,sounds/greatgatsby_english.wav,,,,,,,,,0,0,0,0,0,69,69,219,267.256722929,9.30100213736e-06,269.153747864,1.89703487779,,,,,x,1,1.88406353025,2018_Nov_14_1535,59.9964401795,chinese_cond1,001,1029,
images/apple06.jpg,apple,z,sounds/greatgatsby_english.wav,,,,,,,,,0,0,0,0,0,70,70,13,270.2802262,8.98027792573e-06,272.554455509,2.27423925151,,,,,x,0,2.25065034733,2018_Nov_14_1535,59.9964401795,chinese_cond1,001,1029,
images/hairpin.jpg,hair pin,z,sounds/greatgatsby_english.wav,,,,,,,,,0,0,0,0,0,71,71,28,273.644738576,9.30100213736e-06,274.821885477,1.17715716327,,,,,z,1,1.16721440922,2018_Nov_14_1535,59.9964401795,chinese_cond1,001,1029,
images/paperclip04.jpg,eye drops,x,sounds/greatgatsby_english.wav,,,,,,,,,0,0,0,0,0,72,72,174,275.927392655,9.30100213736e-06,277.589277118,1.66189536778,,,,,x,1,1.65067260561,2018_Nov_14_1535,59.9964401795,chinese_cond1,001,1029,
images/globe.jpg,cloud,x,sounds/greatgatsby_english.wav,,,,,,,,,0,0,0,0,0,73,73,154,278.716508513,9.30100213736e-06,280.173270313,1.45677174325,,,,,z,0,1.43394840648,2018_Nov_14_1535,59.9964401795,chinese_cond1,001,1029,
images/acousticguitar02.jpg,acoustic guitar,z,sounds/greatgatsby_english.wav,,,,,,,,,0,0,0,0,0,74,74,97,281.286478387,9.30088572204e-06,283.157376211,1.87090776651,,,,,z,1,1.85072847572,2018_Nov_14_1535,59.9964401795,chinese_cond1,001,1029,
images/tent.jpg,tent,z,sounds/greatgatsby_english.wav,,,,,,,,,0,0,0,0,0,75,75,11,284.284541216,9.621726349e-06,285.174565395,0.890034763259,,,,,x,0,0.867136377143,2018_Nov_14_1535,59.9964401795,chinese_cond1,001,1029,
images/plant01.jpg,plant,z,sounds/greatgatsby_english.wav,,,,,,,,,0,0,0,0,0,76,76,47,286.28507907,9.30100213736e-06,287.758551214,1.47348240786,,,,,z,1,1.45059909578,2018_Nov_14_1535,59.9964401795,chinese_cond1,001,1029,
images/envelope02a.jpg,grand piano,x,sounds/greatgatsby_english.wav,,,,,,,,,0,0,0,0,0,77,77,182,288.882771655,8.98027792573e-06,290.976054451,2.09329209686,,,,,x,1,2.084070971,2018_Nov_14_1535,59.9964401795,chinese_cond1,001,1029,
images/handbag02a.jpg,candle,x,sounds/greatgatsby_english.wav,,,,,,,,,0,0,0,0,0,78,78,144,292.091083594,8.98016151041e-06,293.043276205,0.952202553628,,,,,x,1,0.933810335002,2018_Nov_14_1535,59.9964401795,chinese_cond1,001,1029,
images/umbrella01.jpg,umbrella,z,sounds/greatgatsby_english.wav,,,,,,,,,0,0,0,0,0,79,79,53,294.155195932,9.30100213736e-06,294.960435209,0.805249540601,,,,,z,1,0.783785430714,2018_Nov_14_1535,59.9964401795,chinese_cond1,001,1029,
images/lamp04b.jpg,parking meter,x,sounds/greatgatsby_english.wav,,,,,,,,,0,0,0,0,0,80,80,209,296.081138915,9.621726349e-06,297.277713972,1.19658499863,,,,,x,1,1.18389973673,2018_Nov_14_1535,59.9964401795,chinese_cond1,001,1029,
images/sock03.jpg,sock,z,sounds/greatgatsby_english.wav,,,,,,,,,0,0,0,0,0,81,81,90,298.382672712,9.621726349e-06,299.294896421,0.912233330309,,,,,z,1,0.900478487718,2018_Nov_14_1535,59.9964401795,chinese_cond1,001,1029,
images/graduationcap.jpg,graduation cap,z,sounds/greatgatsby_english.wav,,,,,,,,,0,0,0,0,0,82,82,35,300.397376288,9.94245056063e-06,301.462108264,1.06474223919,,,,,z,1,1.0504783754,2018_Nov_14_1535,59.9964401795,chinese_cond1,001,1029,
images/cherry01.jpg,highlighter,x,sounds/greatgatsby_english.wav,,,,,,,,,0,0,0,0,0,83,83,187,302.570152687,9.30100213736e-06,304.512732248,1.9425895036,,,,,x,1,1.9338982132,2018_Nov_14_1535,59.9964401795,chinese_cond1,001,1029,
images/lightbulb03b.jpg,treadmill,x,sounds/greatgatsby_english.wav,,,,,,,,,0,0,0,0,0,84,84,234,305.614986967,9.94245056063e-06,307.997149087,2.38217238314,,,,,x,1,2.36752493388,2018_Nov_14_1535,59.9964401795,chinese_cond1,001,1029,
images/50dollarbill.jpg,cherry,x,sounds/greatgatsby_english.wav,,,,,,,,,0,0,0,0,0,85,85,151,309.118049397,9.621726349e-06,310.064347749,0.946308294311,,,,,x,1,0.933797506033,2018_Nov_14_1535,59.9964401795,chinese_cond1,001,1029,
images/mattress.jpg,cat,x,sounds/greatgatsby_english.wav,,,,,,,,,0,0,0,0,0,86,86,147,311.167826671,9.94245056063e-06,311.931503049,0.763686962193,,,,,x,1,0.750433057081,2018_Nov_14_1535,59.9964401795,chinese_cond1,001,1029,
images/arrow02.jpg,hammer,x,sounds/greatgatsby_english.wav,,,,,,,,,0,0,0,0,0,87,87,184,313.028893673,9.621726349e-06,314.048744864,1.01986145379,,,,,x,1,1.00052919402,2018_Nov_14_1535,59.9964401795,chinese_cond1,001,1029,
images/lip.jpg,boxing glove,x,sounds/greatgatsby_english.wav,,,,,,,,,0,0,0,0,0,88,88,136,315.151345965,9.621726349e-06,318.149612454,2.99827707256,,,,,None,0,,2018_Nov_14_1535,59.9964401795,chinese_cond1,001,1029,
images/baseball01a.jpg,baseball,z,sounds/greatgatsby_english.wav,,,,,,,,,0,0,0,0,0,89,89,74,319.282529637,9.30100213736e-06,320.450359194,1.16783949966,,,,,z,1,1.15051400778,2018_Nov_14_1535,59.9964401795,chinese_cond1,001,1029,
images/pictureframe04.jpg,picture frame,z,sounds/greatgatsby_english.wav,,,,,,,,,0,0,0,0,0,90,90,41,321.571623846,9.30100213736e-06,324.567934241,2.99632033752,,,,,None,0,,2018_Nov_14_1535,59.9964401795,chinese_cond1,001,1029,
images/orange.jpg,bat,x,sounds/greatgatsby_english.wav,,,,,,,,,0,0,0,0,0,91,91,128,325.692338136,9.30100213736e-06,326.752013583,1.05968538939,,,,,x,1,1.05052969116,2018_Nov_14_1535,59.9964401795,chinese_cond1,001,1029,
images/cheetah.jpg,cheetah,z,sounds/greatgatsby_english.wav,,,,,,,,,0,0,0,0,0,92,92,82,327.853020046,1.02631747723e-05,328.919228313,1.06621885102,,,,,z,1,1.05051846581,2018_Nov_14_1535,59.9964401795,chinese_cond1,001,1029,
images/grasshopper.jpg,cauliflower,x,sounds/greatgatsby_english.wav,,,,,,,,,0,0,0,0,0,93,93,148,330.011134563,9.30100213736e-06,331.236483984,1.22535936278,,,,,x,1,1.21708340966,2018_Nov_14_1535,59.9964401795,chinese_cond1,001,1029,
images/seagull.jpg,seagull,z,sounds/greatgatsby_english.wav,,,,,,,,,0,0,0,0,0,94,94,50,332.343284319,9.621726349e-06,333.103660451,0.760387357208,,,,,x,0,0.750441075303,2018_Nov_14_1535,59.9964401795,chinese_cond1,001,1029,
images/cauliflower01.jpg,glue stick,x,sounds/greatgatsby_english.wav,,,,,,,,,0,0,0,0,0,95,95,181,334.219176773,9.62160993367e-06,335.137505136,0.918338625808,,,,,z,0,0.900475921808,2018_Nov_14_1535,59.9964401795,chinese_cond1,001,1029,
images/flamingo.jpg,flamingo,z,sounds/greatgatsby_english.wav,,,,,,,,,0,0,0,0,0,96,96,52,336.234577281,8.98027792573e-06,337.854872546,1.62030456564,,,,,z,1,1.60064548836,2018_Nov_14_1535,59.9964401795,chinese_cond1,001,1029,
images/bus.jpg,microphone,x,sounds/greatgatsby_english.wav,,,,,,,,,0,0,0,0,0,97,97,203,338.975056359,8.6595537141e-06,341.089308068,2.11426165083,,,,,x,1,2.10104206332,2018_Nov_14_1535,59.9964401795,chinese_cond1,001,1029,
images/rubberglove02a.jpg,lady bug,x,sounds/greatgatsby_english.wav,,,,,,,,,0,0,0,0,0,98,98,192,342.19272541,9.621726349e-06,343.089586135,0.896870346507,,,,,x,1,0.883814327884,2018_Nov_14_1535,59.9964401795,chinese_cond1,001,1029,
images/lantern03.jpg,lantern,z,sounds/greatgatsby_english.wav,,,,,,,,,0,0,0,0,0,99,99,5,344.19511865,1.18667958304e-05,345.106751906,0.911643840256,,,,,z,1,0.900465338025,2018_Nov_14_1535,59.9964401795,chinese_cond1,001,1029,
images/table02.jpg,table,z,sounds/greatgatsby_english.wav,,,,,,,,,0,0,0,0,0,100,100,49,346.220785523,9.62160993367e-06,347.557409053,1.33663411427,,,,,z,1,1.31726208469,2018_Nov_14_1535,59.9964401795,chinese_cond1,001,1029,
images/diploma01.jpg,glasses,x,sounds/greatgatsby_english.wav,,,,,,,,,0,0,0,0,0,101,101,179,348.687931393,9.30100213736e-06,349.824665509,1.13674405834,,,,,z,0,1.11721519497,2018_Nov_14_1535,59.9964401795,chinese_cond1,001,1029,
images/puma.jpg,puma,z,sounds/greatgatsby_english.wav,,,,,,,,,0,0,0,0,0,102,102,4,350.922667433,9.30100213736e-06,351.741820986,0.8191638157,,,,,z,1,0.800442855223,2018_Nov_14_1535,59.9964401795,chinese_cond1,001,1029,
images/blueberry02.jpg,blueberry,z,sounds/greatgatsby_english.wav,,,,,,,,,0,0,0,0,0,103,103,46,352.855256452,9.94245056063e-06,353.892354878,1.03710868908,,,,,z,1,1.01715133898,2018_Nov_14_1535,59.9964401795,chinese_cond1,001,1029,
images/razor04a.jpg,razor,z,sounds/greatgatsby_english.wav,,,,,,,,,0,0,0,0,0,104,104,36,354.991682994,9.621726349e-06,355.892901391,0.901228980976,,,,,z,1,0.883804064826,2018_Nov_14_1535,59.9964401795,chinese_cond1,001,1029,
images/ear.jpg,bullet,x,sounds/greatgatsby_english.wav,,,,,,,,,0,0,0,0,0,105,105,139,356.995586522,9.30100213736e-06,358.760307176,1.76473091764,,,,,x,1,1.75070022,2018_Nov_14_1535,59.9964401795,chinese_cond1,001,1029,
images/microphone01.jpg,diaper,x,sounds/greatgatsby_english.wav,,,,,,,,,0,0,0,0,0,106,106,164,359.858634955,9.30100213736e-06,360.827483387,0.96885869524,,,,,x,1,0.950471608085,2018_Nov_14_1535,59.9964401795,chinese_cond1,001,1029,
images/handfan01b.jpg,handfan,z,sounds/greatgatsby_english.wav,,,,,,,,,0,0,0,0,0,107,107,69,361.942756921,9.94245056063e-06,363.161420536,1.21867419896,,,,,x,0,1.20054433215,2018_Nov_14_1535,59.9964401795,chinese_cond1,001,1029,
images/basketball01.jpg,basket ball,z,sounds/greatgatsby_english.wav,,,,,,,,,0,0,0,0,0,108,108,33,364.301209224,8.6595537141e-06,365.712092789,1.41089318646,,,,,x,0,1.40059571213,2018_Nov_14_1535,59.9964401795,chinese_cond1,001,1029,
images/daisy.jpg,daisy,z,sounds/greatgatsby_english.wav,,,,,,,,,0,0,0,0,0,109,109,6,366.813418372,9.62160993367e-06,367.162444607,0.349036497995,,,,,z,1,0.333638234646,2018_Nov_14_1535,59.9964401795,chinese_cond1,001,1029,
images/fireextinguisher02.jpg,fire extinguisher,z,sounds/greatgatsby_english.wav,,,,,,,,,0,0,0,0,0,110,110,175,368.2725144,9.30100213736e-06,368.546158709,0.273653930752,,,,,z,1,0.250308135292,2018_Nov_14_1535,59.9964401795,chinese_cond1,001,1029,
images/skateboard.jpg,key,x,sounds/greatgatsby_english.wav,,,,,,,,,0,0,0,0,0,111,111,189,369.63611111,9.30100213736e-06,369.929838173,0.293737325352,,,,,z,0,0.283621380571,2018_Nov_14_1535,59.9964401795,chinese_cond1,001,1029,
images/ceilingfan02.jpg,paper clip,x,sounds/greatgatsby_english.wav,,,,,,,,,0,0,0,0,0,112,112,208,371.027977687,9.30100213736e-06,371.396892316,0.368924892624,,,,,x,1,0.350316506228,2018_Nov_14_1535,59.9964401795,chinese_cond1,001,1029,
images/cocktailshrimp01.jpg,cocktail shrimp,z,sounds/greatgatsby_english.wav,,,,,,,,,0,0,0,0,0,113,113,30,372.511256278,9.30100213736e-06,373.464093864,0.952847849578,,,,,x,0,0.933808731264,2018_Nov_14_1535,59.9964401795,chinese_cond1,001,1029,
images/treadmill.jpg,lily,x,sounds/greatgatsby_english.wav,,,,,,,,,0,0,0,0,0,114,114,199,374.569453509,9.30100213736e-06,375.614665602,1.0452223561,,,,,x,1,1.03384308086,2018_Nov_14_1535,59.9964401795,chinese_cond1,001,1029,
images/parrot01.jpg,chameleon,x,sounds/greatgatsby_english.wav,,,,,,,,,0,0,0,0,0,115,115,150,376.728662977,8.98027792573e-06,378.081952912,1.35329955677,,,,,x,1,1.33387685299,2018_Nov_14_1535,59.9964401795,chinese_cond1,001,1029,
images/screw03c.jpg,screw,z,sounds/greatgatsby_english.wav,,,,,,,,,0,0,0,0,0,116,116,84,379.174745001,9.30100213736e-06,380.549269408,1.37453467003,,,,,z,1,1.35058270686,2018_Nov_14_1535,59.9964401795,chinese_cond1,001,1029,
images/bottleofredwine02.jpg,pipe,x,sounds/greatgatsby_english.wav,,,,,,,,,0,0,0,0,0,117,117,213,381.647157795,4.87499637529e-05,383.166605996,1.51947514212,,,,,z,0,1.50060921465,2018_Nov_14_1535,59.9964401795,chinese_cond1,001,1029,
images/lettuce.jpg,mushroom,x,sounds/greatgatsby_english.wav,,,,,,,,,0,0,0,0,0,118,118,205,384.289748806,9.30100213736e-06,385.233818449,0.94407990633,,,,,x,1,0.93380488269,2018_Nov_14_1535,59.9964401795,chinese_cond1,001,1029,
images/swallow.jpg,mattress,x,sounds/greatgatsby_english.wav,,,,,,,,,0,0,0,0,0,119,119,202,386.33503691,9.30100213736e-06,388.968108202,2.6330809131,,,,,x,1,2.6175662271,2018_Nov_14_1535,59.9964401795,chinese_cond1,001,1029,
images/aquarium.jpg,computer mouse,x,sounds/greatgatsby_english.wav,,,,,,,,,0,0,0,0,0,120,120,159,390.103248321,9.621726349e-06,391.368729893,1.26549119316,,,,,x,1,1.25055124378,2018_Nov_14_1535,59.9964401795,chinese_cond1,001,1029,
images/antelope.jpg,antelope,z,sounds/greatgatsby_english.wav,,,,,,,,,0,0,0,0,0,121,121,12,392.473005812,9.30100213736e-06,393.902732854,1.42973698408,,,,,z,1,1.41727462504,2018_Nov_14_1535,59.9964401795,chinese_cond1,001,1029,
images/egg01b (1).jpg,egg,z,sounds/greatgatsby_english.wav,,,,,,,,,0,0,0,0,0,122,122,19,395.01443962,9.30100213736e-06,396.436709196,1.42227951775,,,,,z,1,1.40058641112,2018_Nov_14_1535,59.9964401795,chinese_cond1,001,1029,
images/nailclipper03a.jpg,aquarium,x,sounds/greatgatsby_english.wav,,,,,,,,,0,0,0,0,0,123,123,123,397.534570322,9.94245056063e-06,399.487500918,1.95294118032,,,,,x,1,1.93406114075,2018_Nov_14_1535,59.9964401795,chinese_cond1,001,1029,
images/computerkeyboard01a.jpg,computer keyboard,z,sounds/greatgatsby_english.wav,,,,,,,,,0,0,0,0,0,124,124,61,400.604133037,9.62160993367e-06,402.738339209,2.13421611441,,,,,z,1,2.11743938085,2018_Nov_14_1535,59.9964401795,chinese_cond1,001,1029,
images/honeycomb.jpg,honey comb,z,sounds/greatgatsby_english.wav,,,,,,,,,0,0,0,0,0,125,125,59,403.850580301,9.94245056063e-06,404.888901005,1.03833096696,,,,,z,1,1.01716577145,2018_Nov_14_1535,59.9964401795,chinese_cond1,001,1029,
images/key03b.jpg,cigar,x,sounds/greatgatsby_english.wav,,,,,,,,,0,0,0,0,0,126,126,153,405.989211177,9.30100213736e-06,407.789654674,1.8004531184,,,,,x,1,1.7840070508,2018_Nov_14_1535,59.9964401795,chinese_cond1,001,1029,
images/banana04a.jpg,banana,z,sounds/greatgatsby_english.wav,,,,,,,,,0,0,0,0,0,127,127,118,408.895668274,9.30100213736e-06,410.60705932,1.711401309,,,,,z,1,1.70067278191,2018_Nov_14_1535,59.9964401795,chinese_cond1,001,1029,
images/belt02a.jpg,snowman,x,sounds/greatgatsby_english.wav,,,,,,,,,0,0,0,0,0,128,128,224,411.709523793,8.98027792573e-06,414.374870468,2.66537265363,,,,,x,1,2.65102828818,2018_Nov_14_1535,59.9964401795,chinese_cond1,001,1029,
images/mitten01.jpg,mitten,z,sounds/greatgatsby_english.wav,,,,,,,,,0,0,0,0,0,129,129,102,415.496465465,8.98027792573e-06,416.758649356,1.26219351252,,,,,z,1,1.25055862044,2018_Nov_14_1535,59.9964401795,chinese_cond1,001,1029,
images/grandpiano.jpg,tulip,x,sounds/greatgatsby_english.wav,,,,,,,,,0,0,0,0,0,130,130,236,417.872316706,9.621726349e-06,420.609650446,2.73734368326,,,,,x,1,2.71761372627,2018_Nov_14_1535,59.9964401795,chinese_cond1,001,1029,
images/flower01.jpg,bus,x,sounds/greatgatsby_english.wav,,,,,,,,,0,0,0,0,0,131,131,140,421.72313755,9.30100213736e-06,422.476789389,0.753661782132,,,,,x,1,0.73375286127,2018_Nov_14_1535,59.9964401795,chinese_cond1,001,1029,
images/weight01.jpg,weight,z,sounds/greatgatsby_english.wav,,,,,,,,,0,0,0,0,0,132,132,67,423.580609882,9.30100213736e-06,426.577709257,2.99710963841,,,,,None,0,,2018_Nov_14_1535,59.9964401795,chinese_cond1,001,1029,
images/chessknight02b (1).jpg,cockroach,x,sounds/greatgatsby_english.wav,,,,,,,,,0,0,0,0,0,133,133,155,427.686776467,9.621726349e-06,429.078503208,1.39173668332,,,,,x,1,1.36721351126,2018_Nov_14_1535,59.9964401795,chinese_cond1,001,1029,
images/barrel01.jpg,barrel,z,sounds/greatgatsby_english.wav,,,,,,,,,0,0,0,0,0,134,134,9,430.208417136,9.30100213736e-06,431.095716126,0.887308932841,,,,,z,1,0.867147281766,2018_Nov_14_1535,59.9964401795,chinese_cond1,001,1029,
images/kiwi03.jpg,backpack,x,sounds/greatgatsby_english.wav,,,,,,,,,0,0,0,0,0,135,135,125,432.224677825,9.30088572204e-06,433.262921555,1.0382533517,,,,,x,1,1.01715326321,2018_Nov_14_1535,59.9964401795,chinese_cond1,001,1029,
images/hat05.jpg,hat,z,sounds/greatgatsby_english.wav,,,,,,,,,0,0,0,0,0,136,136,15,434.36696463,8.6595537141e-06,435.380139957,1.01318494952,,,,,z,1,1.00049840449,2018_Nov_14_1535,59.9964401795,chinese_cond1,001,1029,
images/hairband.jpg,hairband,z,sounds/greatgatsby_english.wav,,,,,,,,,0,0,0,0,0,137,137,66,436.490494553,9.621726349e-06,437.930788797,1.44030450785,,,,,z,1,1.4172579475,2018_Nov_14_1535,59.9964401795,chinese_cond1,001,1029,
images/safe.jpg,safe,z,sounds/greatgatsby_english.wav,,,,,,,,,0,0,0,0,0,138,138,78,439.041063532,9.30100213736e-06,442.031707703,2.99065411265,,,,,None,0,,2018_Nov_14_1535,59.9964401795,chinese_cond1,001,1029,
images/banjo.jpg,knife,x,sounds/greatgatsby_english.wav,,,,,,,,,0,0,0,0,0,139,139,191,443.128108574,8.98027792573e-06,444.732564901,1.60446594853,,,,,z,0,1.58397427283,2018_Nov_14_1535,59.9964401795,chinese_cond1,001,1029,
images/leaf01a.jpg,leaf,z,sounds/greatgatsby_english.wav,,,,,,,,,0,0,0,0,0,140,140,68,445.835031298,8.98027792573e-06,447.033162505,1.19814147067,,,,,x,0,1.18387215445,2018_Nov_14_1535,59.9964401795,chinese_cond1,001,1029,
images/pineapple01a.jpg,pineapple,z,sounds/greatgatsby_english.wav,,,,,,,,,0,0,0,0,0,141,141,51,448.145658572,9.621726349e-06,448.216794117,0.0711464491906,,,,,z,1,0.0502378327074,2018_Nov_14_1535,59.9964401795,chinese_cond1,001,1029,
images/icecube02 (2).jpg,aloe,x,sounds/greatgatsby_english.wav,,,,,,,,,0,0,0,0,0,142,142,122,449.327261286,9.30100213736e-06,450.450746949,1.12349592627,,,,,x,1,1.10055777046,2018_Nov_14_1535,59.9964401795,chinese_cond1,001,1029,
images/mirror02.jpg,8 ball,x,sounds/greatgatsby_english.wav,,,,,,,,,0,0,0,0,0,143,143,121,451.552307302,8.98027792573e-06,452.701295627,1.14899826772,,,,,x,1,1.13385626255,2018_Nov_14_1535,59.9964401795,chinese_cond1,001,1029,
images/flashlight05.jpg,flash light,z,sounds/greatgatsby_english.wav,,,,,,,,,0,0,0,0,0,144,144,8,453.803076959,9.30100213736e-06,455.368485822,1.56541912642,,,,,z,1,1.55046217889,2018_Nov_14_1535,59.9964401795,chinese_cond1,001,1029,
images/pipe.jpg,icecube,x,sounds/greatgatsby_english.wav,,,,,,,,,0,0,0,0,0,145,145,188,456.477946881,8.98027792573e-06,458.186048264,1.7081106843,,,,,z,0,1.68399739708,2018_Nov_14_1535,59.9964401795,chinese_cond1,001,1029,
images/lychee02a.jpg,lychee,z,sounds/greatgatsby_english.wav,,,,,,,,,0,0,0,0,0,146,146,62,459.309351757,9.30100213736e-06,460.403308713,1.09396689932,,,,,z,1,1.08386538713,2018_Nov_14_1535,59.9964401795,chinese_cond1,001,1029,
images/notebook02b.jpg,notebook,z,sounds/greatgatsby_english.wav,,,,,,,,,0,0,0,0,0,147,147,7,461.509186648,9.30088572204e-06,463.837511454,2.32833442744,,,,,z,1,2.31749942026,2018_Nov_14_1535,59.9964401795,chinese_cond1,001,1029,
images/crocodile.jpg,triangle ruler,x,sounds/greatgatsby_english.wav,,,,,,,,,0,0,0,0,0,148,148,235,464.934155434,8.98027792573e-06,467.938424907,3.00427973643,,,,,None,0,,2018_Nov_14_1535,59.9964401795,chinese_cond1,001,1029,
images/giraffe.jpg,lettuce,x,sounds/greatgatsby_english.wav,,,,,,,,,0,0,0,0,0,149,149,195,469.038556115,9.30100213736e-06,470.039120268,1.00057441613,,,,,x,1,0.983812114922,2018_Nov_14_1535,59.9964401795,chinese_cond1,001,1029,
images/elbow.jpg,elbow,z,sounds/greatgatsby_english.wav,,,,,,,,,0,0,0,0,0,150,150,105,471.150057618,9.94245056063e-06,472.4397426,1.2896952451,,,,,z,1,1.26721123408,2018_Nov_14_1535,59.9964401795,chinese_cond1,001,1029,
images/hand01a.jpg,cupcake,x,sounds/greatgatsby_english.wav,,,,,,,,,0,0,0,0,0,151,151,163,473.551369185,8.98027792573e-06,474.840388024,1.28903038497,,,,,x,1,1.26722342148,2018_Nov_14_1535,59.9964401795,chinese_cond1,001,1029,
images/rhinoceros01.jpg,envelope,x,sounds/greatgatsby_english.wav,,,,,,,,,0,0,0,0,0,152,152,173,475.955000226,9.62160993367e-06,478.957958902,3.00296925951,,,,,None,0,,2018_Nov_14_1535,59.9964401795,chinese_cond1,001,1029,
images/radio03a.jpg,radio,z,sounds/greatgatsby_english.wav,,,,,,,,,0,0,0,0,0,153,153,37,480.072142938,9.30100213736e-06,482.092272516,2.02013984194,,,,,x,0,2.00075979426,2018_Nov_14_1535,59.9964401795,chinese_cond1,001,1029,
images/stapler03a.jpg,candy cane,x,sounds/greatgatsby_english.wav,,,,,,,,,0,0,0,0,0,154,154,145,483.203234241,9.621726349e-06,485.259744787,2.05652112979,,,,,x,1,2.03409933904,2018_Nov_14_1535,59.9964401795,chinese_cond1,001,1029,
images/beachumbrella01.jpg,beach umbrella,z,sounds/greatgatsby_english.wav,,,,,,,,,0,0,0,0,0,155,155,92,486.365051834,9.62160993367e-06,488.027130335,1.66208940546,,,,,z,1,1.65067196416,2018_Nov_14_1535,59.9964401795,chinese_cond1,001,1029,
images/wallet01.jpg,lamp,x,sounds/greatgatsby_english.wav,,,,,,,,,0,0,0,0,0,156,156,193,489.13150632,9.621726349e-06,491.744742457,2.61324607942,,,,,x,1,2.60088859696,2018_Nov_14_1535,59.9964401795,chinese_cond1,001,1029,
images/button07.jpg,radish,x,sounds/greatgatsby_english.wav,,,,,,,,,0,0,0,0,0,157,157,215,492.856187192,9.30100213736e-06,494.078520527,1.22234359838,,,,,x,1,1.2003733865,2018_Nov_14_1535,59.9964401795,chinese_cond1,001,1029,
images/printer03a.jpg,printer,z,sounds/greatgatsby_english.wav,,,,,,,,,0,0,0,0,0,158,158,72,495.187199662,9.621726349e-06,497.062798654,1.87560893397,,,,,z,1,1.85071564675,2018_Nov_14_1535,59.9964401795,chinese_cond1,001,1029,
images/mushroom01.jpg,shower head,x,sounds/greatgatsby_english.wav,,,,,,,,,0,0,0,0,0,159,159,222,498.180235469,9.621726349e-06,499.513438802,1.33321359649,,,,,x,1,1.3172434828,2018_Nov_14_1535,59.9964401795,chinese_cond1,001,1029,
images/lighter02b.jpg,stapler,x,sounds/greatgatsby_english.wav,,,,,,,,,0,0,0,0,0,160,160,227,500.6139908,8.98027792573e-06,501.530646589,0.916665731231,,,,,x,1,0.900491637294,2018_Nov_14_1535,59.9964401795,chinese_cond1,001,1029,
images/glasses01b.jpg,calculator,x,sounds/greatgatsby_english.wav,,,,,,,,,0,0,0,0,0,161,161,142,502.622690429,9.30100213736e-06,503.897936432,1.27525658696,,,,,x,1,1.25058973068,2018_Nov_14_1535,59.9964401795,chinese_cond1,001,1029,
images/sunglasses03a.jpg,sun glasses,z,sounds/greatgatsby_english.wav,,,,,,,,,0,0,0,0,0,162,162,17,505.005701825,9.94245056063e-06,506.31518572,1.3094941579,,,,,z,1,1.30055430671,2018_Nov_14_1535,59.9964401795,chinese_cond1,001,1029,
images/pingpongpaddle01c (1).jpg,ping pong paddle,z,sounds/greatgatsby_english.wav,,,,,,,,,0,0,0,0,0,163,163,10,507.426135899,9.621726349e-06,508.599155086,1.17302977061,,,,,x,0,1.15056179557,2018_Nov_14_1535,59.9964401795,chinese_cond1,001,1029,
images/drink.jpg,drink,z,sounds/greatgatsby_english.wav,,,,,,,,,0,0,0,0,0,164,164,117,509.699139082,1.02631747723e-05,510.849901971,1.15077315248,,,,,z,1,1.1340284911,2018_Nov_14_1535,59.9964401795,chinese_cond1,001,1029,
images/bowl02b (1).jpg,bowl,z,sounds/greatgatsby_english.wav,,,,,,,,,0,0,0,0,0,165,165,24,511.967940463,9.621726349e-06,514.967288432,2.99935855262,,,,,None,0,,2018_Nov_14_1535,59.9964401795,chinese_cond1,001,1029,
images/tank.jpg,wallet,x,sounds/greatgatsby_english.wav,,,,,,,,,0,0,0,0,0,166,166,237,516.072085849,9.621726349e-06,516.851272102,0.779196516611,,,,,x,1,0.767098178971,2018_Nov_14_1535,59.9964401795,chinese_cond1,001,1029,
images/diaper01a.jpg,camera,x,sounds/greatgatsby_english.wav,,,,,,,,,0,0,0,0,0,167,167,143,517.972592239,9.30100213736e-06,518.885125767,0.912543790881,,,,,x,1,0.90047079022,2018_Nov_14_1535,59.9964401795,chinese_cond1,001,1029,
images/lock02a.jpg,lock,z,sounds/greatgatsby_english.wav,,,,,,,,,0,0,0,0,0,168,168,65,519.996712583,9.621726349e-06,520.718941201,0.722238881979,,,,,x,0,0.700428390526,2018_Nov_14_1535,59.9964401795,chinese_cond1,001,1029,
images/remotecontrol01c.jpg,remote control,z,sounds/greatgatsby_english.wav,,,,,,,,,0,0,0,0,0,169,169,85,521.828435295,9.621726349e-06,524.353222262,2.52479723049,,,,,z,1,2.50089914876,2018_Nov_14_1535,59.9964401795,chinese_cond1,001,1029,
images/fryingpan01.jpg,frying pan,z,sounds/greatgatsby_english.wav,,,,,,,,,0,0,0,0,0,170,170,45,525.45432398,9.94245056063e-06,526.603810389,1.1494963516,,,,,z,1,1.13387903397,2018_Nov_14_1535,59.9964401795,chinese_cond1,001,1029,
images/lemon02.jpg,lemon,z,sounds/greatgatsby_english.wav,,,,,,,,,0,0,0,0,0,171,171,14,527.716541226,8.98027792573e-06,528.721000568,1.00446928421,,,,,z,1,0.983822698821,2018_Nov_14_1535,59.9964401795,chinese_cond1,001,1029,
images/hanger02a.jpg,hanger,z,sounds/greatgatsby_english.wav,,,,,,,,,0,0,0,0,0,172,172,88,529.814354885,9.62160993367e-06,530.804899952,0.99055500899,,,,,z,1,0.967174896039,2018_Nov_14_1535,59.9964401795,chinese_cond1,001,1029,
images/camera01a.jpg,bull,x,sounds/greatgatsby_english.wav,,,,,,,,,0,0,0,0,0,173,173,138,531.916501521,9.94245056063e-06,532.805424014,0.888933719019,,,,,z,0,0.867144395248,2018_Nov_14_1535,59.9964401795,chinese_cond1,001,1029,
images/corkscrew02a.jpg,masquerade mask,x,sounds/greatgatsby_english.wav,,,,,,,,,0,0,0,0,0,174,174,201,533.910587376,9.621726349e-06,534.755909414,0.84533197945,,,,,x,1,0.833784644958,2018_Nov_14_1535,59.9964401795,chinese_cond1,001,1029,
images/tissuebox03.jpg,tissue box,z,sounds/greatgatsby_english.wav,,,,,,,,,0,0,0,0,0,175,175,58,535.882656195,9.621726349e-06,536.756438928,0.873792355182,,,,,z,1,0.850474462495,2018_Nov_14_1535,59.9964401795,chinese_cond1,001,1029,
images/marker01a.jpg,marker,z,sounds/greatgatsby_english.wav,,,,,,,,,0,0,0,0,0,176,176,95,537.854782743,8.98027792573e-06,540.057298243,2.20252576296,,,,,z,1,2.18415022187,2018_Nov_14_1535,59.9964401795,chinese_cond1,001,1029,
images/shotglass.jpg,shot glass,z,sounds/greatgatsby_english.wav,,,,,,,,,0,0,0,0,0,177,177,86,541.16798158,9.30088572204e-06,543.324808712,2.15683739528,,,,,z,1,2.13413914084,2018_Nov_14_1535,59.9964401795,chinese_cond1,001,1029,
images/straw.jpg,straw,z,sounds/greatgatsby_english.wav,,,,,,,,,0,0,0,0,0,178,178,109,544.416398087,9.30100213736e-06,545.99215959,1.57577144471,,,,,z,1,1.56732358353,2018_Nov_14_1535,59.9964401795,chinese_cond1,001,1029,
images/swan.jpg,swan,z,sounds/greatgatsby_english.wav,,,,,,,,,0,0,0,0,0,179,179,54,547.084325946,9.30100213736e-06,548.459440485,1.3751241602,,,,,z,1,1.3505701985,2018_Nov_14_1535,59.9964401795,chinese_cond1,001,1029,
images/spoon02b.jpg,spoon,z,sounds/greatgatsby_english.wav,,,,,,,,,0,0,0,0,0,180,180,38,549.551146282,8.98027792573e-06,550.359952648,0.808816308388,,,,,x,0,0.800449911156,2018_Nov_14_1535,59.9964401795,chinese_cond1,001,1029,
images/dragonfly02.jpg,dragon fly,z,sounds/greatgatsby_english.wav,,,,,,,,,0,0,0,0,0,181,181,29,551.457680674,9.621726349e-06,553.127332743,1.66966201179,,,,,z,1,1.6506671533,2018_Nov_14_1535,59.9964401795,chinese_cond1,001,1029,
images/lily.jpg,kiwi,x,sounds/greatgatsby_english.wav,,,,,,,,,0,0,0,0,0,182,182,190,554.228030991,9.30088572204e-06,555.277881389,1.04986034089,,,,,x,1,1.03383377986,2018_Nov_14_1535,59.9964401795,chinese_cond1,001,1029,
images/pepper05a.jpg,lighter,x,sounds/greatgatsby_english.wav,,,,,,,,,0,0,0,0,0,183,183,198,556.400317965,9.30100213736e-06,557.411777422,1.01147004007,,,,,x,1,1.00049551809,2018_Nov_14_1535,59.9964401795,chinese_cond1,001,1029,
images/broom02.jpg,broom,z,sounds/greatgatsby_english.wav,,,,,,,,,0,0,0,0,0,184,184,116,558.505749773,8.98027792573e-06,560.179148216,1.67340838478,,,,,z,1,1.65065464517,2018_Nov_14_1535,59.9964401795,chinese_cond1,001,1029,
images/panda.jpg,panda,z,sounds/greatgatsby_english.wav,,,,,,,,,0,0,0,0,0,185,185,83,561.289254571,9.621726349e-06,563.329961779,2.0407171509,,,,,z,1,2.0174162566,2018_Nov_14_1535,59.9964401795,chinese_cond1,001,1029,
,,,sounds/greatgatsby_english.wav,,,,,,,,,0,0,0,0,,,,,,,,,,,,,,,,2018_Nov_14_1535,59.9964401795,chinese_cond1,001,1029,
images/dice05a.jpg,band aid,x,sounds/animalfarm_chinese.wav,,,,,,,,,0,1,1,1,0,0,0,126,584.469895114,9.30100213736e-06,586.152556697,1.68267184612,,,,574.333041047,x,1,1.66733355809,2018_Nov_14_1535,59.9964401795,chinese_cond1,001,1029,
images/feather03b.jpg,feather,z,sounds/animalfarm_chinese.wav,,,,,,,,,0,1,1,1,0,1,1,114,587.252701054,8.98027792573e-06,588.236445817,0.983755026129,,,,,z,1,0.967177782557,2018_Nov_14_1535,59.9964401795,chinese_cond1,001,1029,
images/redfox.jpg,red fox,z,sounds/animalfarm_chinese.wav,,,,,,,,,0,1,1,1,0,2,2,1,589.348194278,9.621726349e-06,590.203619431,0.855435095262,,,,,z,1,0.833800681168,2018_Nov_14_1535,59.9964401795,chinese_cond1,001,1029,
images/lipstick04.jpg,lipstick,z,sounds/animalfarm_chinese.wav,,,,,,,,,0,1,1,1,0,3,3,56,591.301622316,9.30100213736e-06,593.487774816,2.18616212136,,,,,z,1,2.16745270684,2018_Nov_14_1535,59.9964401795,chinese_cond1,001,1029,
images/dolphin01.jpg,dolphin,z,sounds/animalfarm_chinese.wav,,,,,,,,,0,1,1,1,0,4,4,99,594.587601337,8.98027792573e-06,595.638340781,1.05074906617,,,,,z,1,1.03383698699,2018_Nov_14_1535,59.9964401795,chinese_cond1,001,1029,
images/screw03c.jpg,screw,z,sounds/animalfarm_chinese.wav,,,,,,,,,0,1,1,1,0,5,5,84,596.732188692,9.621726349e-06,597.422133268,0.689955159673,,,,,z,1,0.667062225752,2018_Nov_14_1535,59.9964401795,chinese_cond1,001,1029,
images/ruler02b.jpg,watermelon,x,sounds/animalfarm_chinese.wav,,,,,,,,,0,1,1,1,0,6,6,238,598.523066606,8.98027792573e-06,599.356005182,0.832948518335,,,,,x,1,0.817146784626,2018_Nov_14_1535,59.9964401795,chinese_cond1,001,1029,
images/swan.jpg,swan,z,sounds/animalfarm_chinese.wav,,,,,,,,,0,1,1,1,0,7,7,54,600.446738545,1.02631747723e-05,601.206471305,0.759743985604,,,,,z,1,0.75044973474,2018_Nov_14_1535,59.9964401795,chinese_cond1,001,1029,
images/cake.jpg,cake,z,sounds/animalfarm_chinese.wav,,,,,,,,,0,1,1,1,0,8,8,23,602.320257323,9.94245056063e-06,604.340592806,2.02034638799,,,,,z,1,2.0007508141,2018_Nov_14_1535,59.9964401795,chinese_cond1,001,1029,
images/dragonfly02.jpg,dragon fly,z,sounds/animalfarm_chinese.wav,,,,,,,,,0,1,1,1,0,9,9,29,605.437656293,9.30088572204e-06,606.357793216,0.920147186494,,,,,z,1,0.900477525429,2018_Nov_14_1535,59.9964401795,chinese_cond1,001,1029,
images/broadsword.jpg,teapot,x,sounds/animalfarm_chinese.wav,,,,,,,,,0,1,1,1,0,10,10,231,607.448499318,9.621726349e-06,608.625072764,1.17658435076,,,,,x,1,1.16724231222,2018_Nov_14_1535,59.9964401795,chinese_cond1,001,1029,
images/cloud.jpg,ceiling fan,x,sounds/animalfarm_chinese.wav,,,,,,,,,0,1,1,1,0,11,11,149,609.728566439,9.30100213736e-06,611.659186215,1.93063003919,,,,,x,1,1.91742360126,2018_Nov_14_1535,59.9964401795,chinese_cond1,001,1029,
images/bull.jpg,button,x,sounds/animalfarm_chinese.wav,,,,,,,,,0,1,1,1,0,12,12,141,612.765296674,9.621726349e-06,615.760052201,2.99476611067,,,,,None,0,,2018_Nov_14_1535,59.9964401795,chinese_cond1,001,1029,
images/barrel01.jpg,barrel,z,sounds/animalfarm_chinese.wav,,,,,,,,,0,1,1,1,0,13,13,9,616.88953251,9.30100213736e-06,618.27753597,1.38801276102,,,,,z,1,1.3672487908,2018_Nov_14_1535,59.9964401795,chinese_cond1,001,1029,
images/worldmap.jpg,scooter,x,sounds/animalfarm_chinese.wav,,,,,,,,,0,1,1,1,0,14,14,220,619.407210958,1.05838989839e-05,620.311393483,0.904193429742,,,,,x,1,0.883790915133,2018_Nov_14_1535,59.9964401795,chinese_cond1,001,1029,
images/envelope02a.jpg,grand piano,x,sounds/animalfarm_chinese.wav,,,,,,,,,0,1,1,1,0,15,15,182,621.433370462,9.30100213736e-06,624.428983604,2.99562404654,,,,,None,0,,2018_Nov_14_1535,59.9964401795,chinese_cond1,001,1029,
images/cauliflower01.jpg,glue stick,x,sounds/animalfarm_chinese.wav,,,,,,,,,0,1,1,1,0,16,16,181,625.543835707,9.30100213736e-06,626.829752186,1.28592642152,,,,,x,1,1.26722983608,2018_Nov_14_1535,59.9964401795,chinese_cond1,001,1029,
images/backpack01b.jpg,swallow,x,sounds/animalfarm_chinese.wav,,,,,,,,,0,1,1,1,0,17,17,228,627.959640777,9.30100213736e-06,628.813600222,0.853969067568,,,,,x,1,0.83377951337,2018_Nov_14_1535,59.9964401795,chinese_cond1,001,1029,
images/volleyball.jpg,volley ball,z,sounds/animalfarm_chinese.wav,,,,,,,,,0,1,1,1,0,18,18,2,629.945379799,9.30100213736e-06,630.597402972,0.652033115388,,,,,z,1,0.633665592293,2018_Nov_14_1535,59.9964401795,chinese_cond1,001,1029,
images/straw.jpg,straw,z,sounds/animalfarm_chinese.wav,,,,,,,,,0,1,1,1,0,19,19,109,631.687319132,9.621726349e-06,632.264510099,0.577201230684,,,,,z,1,0.567055779276,2018_Nov_14_1535,59.9964401795,chinese_cond1,001,1029,
images/ladder.jpg,ladder,z,sounds/animalfarm_chinese.wav,,,,,,,,,0,1,1,1,0,20,20,113,633.355848348,9.30100213736e-06,634.148314164,0.792475758819,,,,,z,1,0.78376073495,2018_Nov_14_1535,59.9964401795,chinese_cond1,001,1029,
images/tent.jpg,tent,z,sounds/animalfarm_chinese.wav,,,,,,,,,0,1,1,1,0,21,21,11,635.274287039,9.30100213736e-06,636.79885848,1.5245820249,,,,,z,1,1.50047162408,2018_Nov_14_1535,59.9964401795,chinese_cond1,001,1029,
images/grasshopper.jpg,cauliflower,x,sounds/animalfarm_chinese.wav,,,,,,,,,0,1,1,1,0,22,22,148,637.892292658,9.30100213736e-06,638.632831069,0.740548674832,,,,,z,0,0.717100889073,2018_Nov_14_1535,59.9964401795,chinese_cond1,001,1029,
images/ladybug03.jpg,giraffe,x,sounds/animalfarm_chinese.wav,,,,,,,,,0,1,1,1,0,23,23,178,639.737060164,1.02630583569e-05,641.216827793,1.47977821308,,,,,x,1,1.46728185739,2018_Nov_14_1535,59.9964401795,chinese_cond1,001,1029,
images/orange.jpg,bat,x,sounds/animalfarm_chinese.wav,,,,,,,,,0,1,1,1,0,24,24,128,642.342620421,9.621726349e-06,643.400735227,1.05812538951,,,,,x,1,1.03385270247,2018_Nov_14_1535,59.9964401795,chinese_cond1,001,1029,
images/calculator02b.jpg,dice,x,sounds/animalfarm_chinese.wav,,,,,,,,,0,1,1,1,0,25,25,165,644.501106336,8.98027792573e-06,645.934553131,1.43345673708,,,,,x,1,1.41710977315,2018_Nov_14_1535,59.9964401795,chinese_cond1,001,1029,
images/flower01.jpg,bus,x,sounds/animalfarm_chinese.wav,,,,,,,,,0,1,1,1,0,26,26,140,647.048062364,9.30100213736e-06,650.052309387,3.00425696501,,,,,None,0,,2018_Nov_14_1535,59.9964401795,chinese_cond1,001,1029,
images/microphone01.jpg,diaper,x,sounds/animalfarm_chinese.wav,,,,,,,,,0,1,1,1,0,27,27,164,651.149616944,9.30100213736e-06,652.269674392,1.12006771122,,,,,x,1,1.10051286919,2018_Nov_14_1535,59.9964401795,chinese_cond1,001,1029,
images/doll.jpg,carrot,x,sounds/animalfarm_chinese.wav,,,,,,,,,0,1,1,1,0,28,28,146,653.3827205,9.30100213736e-06,654.270208717,0.887498480617,,,,,x,1,0.867124510463,2018_Nov_14_1535,59.9964401795,chinese_cond1,001,1029,
images/nailclipper03a.jpg,aquarium,x,sounds/animalfarm_chinese.wav,,,,,,,,,0,1,1,1,0,29,29,123,655.367327689,9.621726349e-06,656.17071158,0.80339447502,,,,,x,1,0.783774526091,2018_Nov_14_1535,59.9964401795,chinese_cond1,001,1029,
images/kiwi03.jpg,backpack,x,sounds/animalfarm_chinese.wav,,,,,,,,,0,1,1,1,0,30,30,125,657.298393591,9.621726349e-06,658.054529436,0.756146107567,,,,,x,1,0.73376889748,2018_Nov_14_1535,59.9964401795,chinese_cond1,001,1029,
images/donut.jpg,rhinoceros,x,sounds/animalfarm_chinese.wav,,,,,,,,,0,1,1,1,0,31,31,216,659.179485296,9.30100213736e-06,659.854977423,0.675502068829,,,,,x,1,0.667075054836,2018_Nov_14_1535,59.9964401795,chinese_cond1,001,1029,
images/pingpongpaddle01c (1).jpg,ping pong paddle,z,sounds/animalfarm_chinese.wav,,,,,,,,,0,1,1,1,0,32,32,10,660.965077043,9.621726349e-06,663.122534397,2.1574672967,,,,,x,0,2.13413561287,2018_Nov_14_1535,59.9964401795,chinese_cond1,001,1029,
images/floorlamp.jpg,floor lamp,z,sounds/animalfarm_chinese.wav,,,,,,,,,0,1,1,1,0,33,33,26,664.213849232,8.98027792573e-06,665.073006326,0.859166715061,,,,,z,1,0.850456501939,2018_Nov_14_1535,59.9964401795,chinese_cond1,001,1029,
images/lightswitch02a.jpg,fork,x,sounds/animalfarm_chinese.wav,,,,,,,,,0,1,1,1,0,34,34,177,666.183663684,8.98027792573e-06,667.373598478,1.18994473608,,,,,x,1,1.16720574966,2018_Nov_14_1535,59.9964401795,chinese_cond1,001,1029,
images/bench02.jpg,electric toothbrush,x,sounds/animalfarm_chinese.wav,,,,,,,,,0,1,1,1,0,35,35,172,668.481785623,9.621726349e-06,671.474505516,2.99273047759,,,,,None,0,,2018_Nov_14_1535,59.9964401795,chinese_cond1,001,1029,
images/comb02a.jpg,diploma,x,sounds/animalfarm_chinese.wav,,,,,,,,,0,1,1,1,0,36,36,166,672.578156666,9.621726349e-06,673.625210996,1.04706427199,,,,,x,1,1.03381197061,2018_Nov_14_1535,59.9964401795,chinese_cond1,001,1029,
images/umbrella01.jpg,umbrella,z,sounds/animalfarm_chinese.wav,,,,,,,,,0,1,1,1,0,37,37,53,674.737135213,8.98027792573e-06,676.092527812,1.35540254193,,,,,z,1,1.33392271644,2018_Nov_14_1535,59.9964401795,chinese_cond1,001,1029,
images/weight01.jpg,weight,z,sounds/animalfarm_chinese.wav,,,,,,,,,0,1,1,1,0,38,38,67,677.195669974,9.94245056063e-06,678.609826845,1.41416713363,,,,,z,1,1.40058769402,2018_Nov_14_1535,59.9964401795,chinese_cond1,001,1029,
images/egg01b (1).jpg,egg,z,sounds/animalfarm_chinese.wav,,,,,,,,,0,1,1,1,0,39,39,19,679.721303652,8.98027792573e-06,680.493663623,0.772369593033,,,,,z,1,0.750433057081,2018_Nov_14_1535,59.9964401795,chinese_cond1,001,1029,
images/chameleon.jpg,50 dollar bill,x,sounds/animalfarm_chinese.wav,,,,,,,,,0,1,1,1,0,40,40,120,681.606087207,9.621726349e-06,684.144610447,2.538533504,,,,,x,1,2.51756234618,2018_Nov_14_1535,59.9964401795,chinese_cond1,001,1029,
images/medal01.jpg,medal,z,sounds/animalfarm_chinese.wav,,,,,,,,,0,1,1,1,0,41,41,115,685.244192577,9.30100213736e-06,687.262075807,2.01789317268,,,,,z,1,2.0007415131,2018_Nov_14_1535,59.9964401795,chinese_cond1,001,1029,
images/fireextinguisher02.jpg,fire extinguisher,z,sounds/animalfarm_chinese.wav,,,,,,,,,0,1,1,1,0,42,42,175,688.371383881,9.621726349e-06,690.446236613,2.07486299495,,,,,z,1,2.05076285719,2018_Nov_14_1535,59.9964401795,chinese_cond1,001,1029,
images/lettuce.jpg,mushroom,x,sounds/animalfarm_chinese.wav,,,,,,,,,0,1,1,1,0,43,43,205,691.568524694,8.98027792573e-06,692.813509778,1.24499438575,,,,,x,1,1.23387233086,2018_Nov_14_1535,59.9964401795,chinese_cond1,001,1029,
images/dreamcatcher.jpg,dream catcher,z,sounds/animalfarm_chinese.wav,,,,,,,,,0,1,1,1,0,44,44,48,693.910909383,9.30100213736e-06,694.664008295,0.753108854522,,,,,z,1,0.7337506162,2018_Nov_14_1535,59.9964401795,chinese_cond1,001,1029,
images/radio03a.jpg,radio,z,sounds/animalfarm_chinese.wav,,,,,,,,,0,1,1,1,0,45,45,37,695.776159584,8.98027792573e-06,696.731214013,0.955064370879,,,,,z,1,0.933823163854,2018_Nov_14_1535,59.9964401795,chinese_cond1,001,1029,
images/snowman.jpg,globe,x,sounds/animalfarm_chinese.wav,,,,,,,,,0,1,1,1,0,46,46,180,697.840831585,9.621726349e-06,699.865377208,2.02455620666,,,,,x,1,2.00077871711,2018_Nov_14_1535,59.9964401795,chinese_cond1,001,1029,
images/tissuebox03.jpg,tissue box,z,sounds/animalfarm_chinese.wav,,,,,,,,,0,1,1,1,0,47,47,58,700.989521637,9.621726349e-06,702.466026224,1.4765142086,,,,,z,1,1.46728410246,2018_Nov_14_1535,59.9964401795,chinese_cond1,001,1029,
images/dresser02.jpg,dresser,z,sounds/animalfarm_chinese.wav,,,,,,,,,0,1,1,1,0,48,48,87,703.589303738,8.98016151041e-06,704.316514799,0.727221003268,,,,,z,1,0.717086135759,2018_Nov_14_1535,59.9964401795,chinese_cond1,001,1029,
images/puzzle.jpg,puzzle,z,sounds/animalfarm_chinese.wav,,,,,,,,,0,1,1,1,0,49,49,57,705.435313086,9.621726349e-06,707.267257418,1.83195491659,,,,,z,1,1.81736263155,2018_Nov_14_1535,59.9964401795,chinese_cond1,001,1029,
images/banana04a.jpg,banana,z,sounds/animalfarm_chinese.wav,,,,,,,,,0,1,1,1,0,50,50,118,708.372977877,8.98027792573e-06,708.901026925,0.528058990138,,,,,z,1,0.51703956665,2018_Nov_14_1535,59.9964401795,chinese_cond1,001,1029,
images/shotglass.jpg,shot glass,z,sounds/animalfarm_chinese.wav,,,,,,,,,0,1,1,1,0,51,51,86,710.008626504,9.30100213736e-06,710.61813038,0.609513818286,,,,,z,1,0.60038762656,2018_Nov_14_1535,59.9964401795,chinese_cond1,001,1029,
images/candy.jpg,candy,z,sounds/animalfarm_chinese.wav,,,,,,,,,0,1,1,1,0,52,52,31,711.719536144,3.36759258062e-05,712.802037814,1.08251706487,,,,,z,1,1.06718390842,2018_Nov_14_1535,59.9964401795,chinese_cond1,001,1029,
images/bandaid01.jpg,door handle,x,sounds/animalfarm_chinese.wav,,,,,,,,,0,1,1,1,0,53,53,170,713.908046924,8.98027792573e-06,714.885915709,0.977878406644,,,,,z,0,0.96715469053,2018_Nov_14_1535,59.9964401795,chinese_cond1,001,1029,
images/parkingmeter.jpg,ear,x,sounds/animalfarm_chinese.wav,,,,,,,,,0,1,1,1,0,54,54,171,715.986755717,9.30100213736e-06,716.819738552,0.832992136828,,,,,z,0,0.817112146528,2018_Nov_14_1535,59.9964401795,chinese_cond1,001,1029,
images/sock03.jpg,sock,z,sounds/animalfarm_chinese.wav,,,,,,,,,0,1,1,1,0,55,55,90,717.9244699,9.30088572204e-06,718.6202045,0.695744221564,,,,,z,1,0.683744025417,2018_Nov_14_1535,59.9964401795,chinese_cond1,001,1029,
images/safe.jpg,safe,z,sounds/animalfarm_chinese.wav,,,,,,,,,0,1,1,1,0,56,56,78,719.732206011,9.30100213736e-06,720.470707186,0.738511117408,,,,,z,1,0.717098323395,2018_Nov_14_1535,59.9964401795,chinese_cond1,001,1029,
images/bat.jpg,hand,x,sounds/animalfarm_chinese.wav,,,,,,,,,0,1,1,1,0,57,57,185,721.56924568,9.30100213736e-06,722.737953379,1.16871764103,,,,,x,1,1.15052811964,2018_Nov_14_1535,59.9964401795,chinese_cond1,001,1029,
images/daisy.jpg,daisy,z,sounds/animalfarm_chinese.wav,,,,,,,,,0,1,1,1,0,58,58,6,723.840834792,9.30100213736e-06,724.888509401,1.04768423084,,,,,z,1,1.0338530232,2018_Nov_14_1535,59.9964401795,chinese_cond1,001,1029,
images/arrow02.jpg,hammer,x,sounds/animalfarm_chinese.wav,,,,,,,,,0,1,1,1,0,59,59,184,725.985105273,9.621726349e-06,727.639216998,1.65412166785,,,,,x,1,1.6339965791,2018_Nov_14_1535,59.9964401795,chinese_cond1,001,1029,
images/lock02a.jpg,lock,z,sounds/animalfarm_chinese.wav,,,,,,,,,0,1,1,1,0,60,60,65,728.750971231,9.621726349e-06,729.456347747,0.705387419788,,,,,z,1,0.68374274252,2018_Nov_14_1535,59.9964401795,chinese_cond1,001,1029,
images/cactus.jpg,cactus,z,sounds/animalfarm_chinese.wav,,,,,,,,,0,1,1,1,0,61,61,70,730.56989258,9.621726349e-06,731.690110069,1.12022743153,,,,,z,1,1.10036629846,2018_Nov_14_1535,59.9964401795,chinese_cond1,001,1029,
images/atm.jpg,atm,z,sounds/animalfarm_chinese.wav,,,,,,,,,0,1,1,1,0,62,62,96,732.827253108,9.94245056063e-06,733.574104323,0.746862119995,,,,,z,1,0.733775632689,2018_Nov_14_1535,59.9964401795,chinese_cond1,001,1029,
images/tape01a.jpg,tie,x,sounds/animalfarm_chinese.wav,,,,,,,,,0,1,1,1,0,63,63,232,734.701778316,9.621726349e-06,735.508160332,0.80639195838,,,,,z,0,0.784009937313,2018_Nov_14_1535,59.9964401795,chinese_cond1,001,1029,
images/cookingpot.jpg,grasshopper,x,sounds/animalfarm_chinese.wav,,,,,,,,,0,1,1,1,0,64,64,183,736.623929705,8.98016151041e-06,738.225283672,1.60136358859,,,,,x,1,1.583975235,2018_Nov_14_1535,59.9964401795,chinese_cond1,001,1029,
images/apricot.jpg,apricot,z,sounds/animalfarm_chinese.wav,,,,,,,,,0,1,1,1,0,65,65,32,739.343677206,8.98027792573e-06,740.392523418,1.04885551368,,,,,z,1,1.03384500521,2018_Nov_14_1535,59.9964401795,chinese_cond1,001,1029,
images/knife04.jpg,tooth brush,x,sounds/animalfarm_chinese.wav,,,,,,,,,0,1,1,1,0,66,66,233,741.488355967,9.30100213736e-06,742.826474391,1.33812804508,,,,,x,1,1.31723867194,2018_Nov_14_1535,59.9964401795,chinese_cond1,001,1029,
images/candycane01a.jpg,lip,x,sounds/animalfarm_chinese.wav,,,,,,,,,0,1,1,1,0,67,67,200,743.918855953,9.621726349e-06,745.060388095,1.14154176356,,,,,x,1,1.11718793341,2018_Nov_14_1535,59.9964401795,chinese_cond1,001,1029,
images/headphones02b.jpg,headphones,z,sounds/animalfarm_chinese.wav,,,,,,,,,0,1,1,1,0,68,68,101,746.166669179,9.30100213736e-06,747.210951494,1.04429289897,,,,,z,1,1.03380683903,2018_Nov_14_1535,59.9964401795,chinese_cond1,001,1029,
images/hanger02a.jpg,hanger,z,sounds/animalfarm_chinese.wav,,,,,,,,,0,1,1,1,0,69,69,88,748.302267612,9.30100213736e-06,749.094767746,0.792509755585,,,,,z,1,0.783768432331,2018_Nov_14_1535,59.9964401795,chinese_cond1,001,1029,
images/beachumbrella01.jpg,beach umbrella,z,sounds/animalfarm_chinese.wav,,,,,,,,,0,1,1,1,0,70,70,92,750.199483058,8.98027792573e-06,752.929107564,2.72963380732,,,,,z,1,2.71761853702,2018_Nov_14_1535,59.9964401795,chinese_cond1,001,1029,
images/cupcake.jpg,scissors,x,sounds/animalfarm_chinese.wav,,,,,,,,,0,1,1,1,0,71,71,219,754.047938885,9.30088572204e-06,754.812911949,0.764983006404,,,,,z,0,0.750416058814,2018_Nov_14_1535,59.9964401795,chinese_cond1,001,1029,
images/pineapple01a.jpg,pineapple,z,sounds/animalfarm_chinese.wav,,,,,,,,,0,1,1,1,0,72,72,51,755.924945533,9.30100213736e-06,756.64702245,0.722086859052,,,,,z,1,0.700656745816,2018_Nov_14_1535,59.9964401795,chinese_cond1,001,1029,
images/marker01a.jpg,marker,z,sounds/animalfarm_chinese.wav,,,,,,,,,0,1,1,1,0,73,73,95,757.744576643,9.30088572204e-06,758.46388347,0.719316768809,,,,,z,1,0.700428390526,2018_Nov_14_1535,59.9964401795,chinese_cond1,001,1029,
images/chessknight02b (1).jpg,cockroach,x,sounds/animalfarm_chinese.wav,,,,,,,,,0,1,1,1,0,74,74,155,759.571530836,9.30100213736e-06,761.064552692,1.49303179758,,,,,x,1,1.48396012885,2018_Nov_14_1535,59.9964401795,chinese_cond1,001,1029,
images/watermelon01.jpg,orange,x,sounds/animalfarm_chinese.wav,,,,,,,,,0,1,1,1,0,75,75,207,762.193107713,9.621726349e-06,763.448492583,1.25539481244,,,,,x,1,1.23388131114,2018_Nov_14_1535,59.9964401795,chinese_cond1,001,1029,
images/diploma01.jpg,glasses,x,sounds/animalfarm_chinese.wav,,,,,,,,,0,1,1,1,0,76,76,179,764.579165022,8.98027792573e-06,766.015814242,1.43665884202,,,,,x,1,1.41725923039,2018_Nov_14_1535,59.9964401795,chinese_cond1,001,1029,
images/pepper05a.jpg,lighter,x,sounds/animalfarm_chinese.wav,,,,,,,,,0,1,1,1,0,77,77,198,767.13682007,9.30100213736e-06,767.932979981,0.796169533278,,,,,x,1,0.78376073495,2018_Nov_14_1535,59.9964401795,chinese_cond1,001,1029,
images/banjo.jpg,knife,x,sounds/animalfarm_chinese.wav,,,,,,,,,0,1,1,1,0,78,78,191,769.027941765,9.62160993367e-06,769.850178114,0.822246932192,,,,,x,1,0.800463381456,2018_Nov_14_1535,59.9964401795,chinese_cond1,001,1029,
images/eyedrops.jpg,bicycle,x,sounds/animalfarm_chinese.wav,,,,,,,,,0,1,1,1,0,79,79,131,770.949609824,8.98027792573e-06,771.884058078,0.934458838194,,,,,x,1,0.917181454832,2018_Nov_14_1535,59.9964401795,chinese_cond1,001,1029,
images/tie01.jpg,bench,x,sounds/animalfarm_chinese.wav,,,,,,,,,0,1,1,1,0,80,80,130,772.981206556,9.621726349e-06,774.167940528,1.18674359331,,,,,x,1,1.16721280559,2018_Nov_14_1535,59.9964401795,chinese_cond1,001,1029,
images/parrot01.jpg,chameleon,x,sounds/animalfarm_chinese.wav,,,,,,,,,0,1,1,1,0,81,81,150,775.280501381,9.621726349e-06,776.385188468,1.10469735065,,,,,x,1,1.08383844642,2018_Nov_14_1535,59.9964401795,chinese_cond1,001,1029,
images/hairdryer03a.jpg,hairdryer,z,sounds/animalfarm_chinese.wav,,,,,,,,,0,1,1,1,0,82,82,119,777.484320302,9.621726349e-06,778.502432208,1.01812216942,,,,,z,1,1.00052374171,2018_Nov_14_1535,59.9964401795,chinese_cond1,001,1029,
images/sportshorts02.jpg,tape,x,sounds/animalfarm_chinese.wav,,,,,,,,,0,1,1,1,0,83,83,230,779.608835488,9.30100213736e-06,780.602933531,0.994108627201,,,,,x,1,0.983821736649,2018_Nov_14_1535,59.9964401795,chinese_cond1,001,1029,
images/mattress.jpg,cat,x,sounds/animalfarm_chinese.wav,,,,,,,,,0,1,1,1,0,84,84,147,781.706597831,9.62160993367e-06,782.470083699,0.763496452244,,,,,x,1,0.750425680541,2018_Nov_14_1535,59.9964401795,chinese_cond1,001,1029,
images/stapler03a.jpg,candy cane,x,sounds/animalfarm_chinese.wav,,,,,,,,,0,1,1,1,0,85,85,145,783.579722119,8.98027792573e-06,784.587302743,1.00759088749,,,,,x,1,0.983821415924,2018_Nov_14_1535,59.9964401795,chinese_cond1,001,1029,
images/table02.jpg,table,z,sounds/animalfarm_chinese.wav,,,,,,,,,0,1,1,1,0,86,86,49,785.700657067,9.621726349e-06,788.371635649,2.67098884552,,,,,x,0,2.65093175031,2018_Nov_14_1535,59.9964401795,chinese_cond1,001,1029,
images/toucan.jpg,toucan,z,sounds/animalfarm_chinese.wav,,,,,,,,,0,1,1,1,0,87,87,81,789.470801158,9.30088572204e-06,790.455531505,0.984740289161,,,,,x,0,0.967181951972,2018_Nov_14_1535,59.9964401795,chinese_cond1,001,1029,
images/beermug01b.jpg,beer mug,z,sounds/animalfarm_chinese.wav,,,,,,,,,0,1,1,1,0,88,88,111,791.571246355,9.621726349e-06,792.872796188,1.30156009609,,,,,z,1,1.28389912727,2018_Nov_14_1535,59.9964401795,chinese_cond1,001,1029,
images/coffeepot03b.jpg,coffee pot,z,sounds/animalfarm_chinese.wav,,,,,,,,,0,1,1,1,0,89,89,107,793.993610864,9.30100213736e-06,794.923301504,0.929701544228,,,,,z,1,0.917123403866,2018_Nov_14_1535,59.9964401795,chinese_cond1,001,1029,
images/bowtie.jpg,bowtie,z,sounds/animalfarm_chinese.wav,,,,,,,,,0,1,1,1,0,90,90,89,796.032471025,9.621726349e-06,796.99054635,0.958085587714,,,,,z,1,0.933830219787,2018_Nov_14_1535,59.9964401795,chinese_cond1,001,1029,
images/croissant02b.jpg,croissant,z,sounds/animalfarm_chinese.wav,,,,,,,,,0,1,1,1,0,91,91,39,798.101001973,9.30100213736e-06,799.124664323,1.02367229224,,,,,z,1,1.00074760686,2018_Nov_14_1535,59.9964401795,chinese_cond1,001,1029,
images/masquerademask02b.jpg,mirror,x,sounds/animalfarm_chinese.wav,,,,,,,,,0,1,1,1,0,92,92,204,800.228208993,9.30100213736e-06,801.608400586,1.38020185707,,,,,x,1,1.36725745024,2018_Nov_14_1535,59.9964401795,chinese_cond1,001,1029,
images/corkscrew02a.jpg,masquerade mask,x,sounds/animalfarm_chinese.wav,,,,,,,,,0,1,1,1,0,93,93,201,802.711656605,9.621726349e-06,804.092379638,1.38073329616,,,,,x,1,1.36725969543,2018_Nov_14_1535,59.9964401795,chinese_cond1,001,1029,
images/ceilingfan02.jpg,paper clip,x,sounds/animalfarm_chinese.wav,,,,,,,,,0,1,1,1,0,94,94,208,805.189280517,9.621726349e-06,806.326273137,1.13700288231,,,,,x,1,1.1171943479,2018_Nov_14_1535,59.9964401795,chinese_cond1,001,1029,
images/cocktailshrimp01.jpg,cocktail shrimp,z,sounds/animalfarm_chinese.wav,,,,,,,,,0,1,1,1,0,95,95,30,807.44010149,9.94245056063e-06,808.576871848,1.13678030018,,,,,z,1,1.11720332818,2018_Nov_14_1535,59.9964401795,chinese_cond1,001,1029,
images/desktopcomputer.jpg,desktop computer,z,sounds/animalfarm_chinese.wav,,,,,,,,,0,1,1,1,0,96,96,16,809.712592797,9.30100213736e-06,810.444239787,0.731662384467,,,,,z,1,0.717288191663,2018_Nov_14_1535,59.9964401795,chinese_cond1,001,1029,
images/screwdriver02b.jpg,cola,x,sounds/animalfarm_chinese.wav,,,,,,,,,0,1,1,1,0,97,97,158,811.536530585,9.621726349e-06,812.377856405,0.841335762758,,,,,x,1,0.817107335548,2018_Nov_14_1535,59.9964401795,chinese_cond1,001,1029,
images/hat05.jpg,hat,z,sounds/animalfarm_chinese.wav,,,,,,,,,0,1,1,1,0,98,98,15,813.48073878,9.30088572204e-06,814.2950292,0.814300682861,,,,,x,0,0.800453118398,2018_Nov_14_1535,59.9964401795,chinese_cond1,001,1029,
images/computermouse02a.jpg,world map,x,sounds/animalfarm_chinese.wav,,,,,,,,,0,1,1,1,0,99,99,239,815.395844833,9.621726349e-06,817.329115069,1.93328017869,,,,,x,1,1.91739184957,2018_Nov_14_1535,59.9964401795,chinese_cond1,001,1029,
images/teapot.jpg,light switch,x,sounds/animalfarm_chinese.wav,,,,,,,,,0,1,1,1,0,100,100,197,818.445730831,9.30100213736e-06,820.163189007,1.71746811771,,,,,x,1,1.70067695132,2018_Nov_14_1535,59.9964401795,chinese_cond1,001,1029,
images/bicycle.jpg,hand bag,x,sounds/animalfarm_chinese.wav,,,,,,,,,0,1,1,1,0,101,101,186,821.272773224,9.30100213736e-06,822.130389561,0.857627241523,,,,,x,1,0.833799077547,2018_Nov_14_1535,59.9964401795,chinese_cond1,001,1029,
images/corn01.jpg,corn,z,sounds/animalfarm_chinese.wav,,,,,,,,,0,1,1,1,0,102,102,22,823.22867308,9.30100213736e-06,824.547680543,1.31901708466,,,,,z,1,1.30058509612,2018_Nov_14_1535,59.9964401795,chinese_cond1,001,1029,
images/apple06.jpg,apple,z,sounds/animalfarm_chinese.wav,,,,,,,,,0,1,1,1,0,103,103,13,825.673939182,9.30100213736e-06,826.781581738,1.1076521778,,,,,z,1,1.08384774742,2018_Nov_14_1535,59.9964401795,chinese_cond1,001,1029,
images/cherry01.jpg,highlighter,x,sounds/animalfarm_chinese.wav,,,,,,,,,0,1,1,1,0,104,104,187,827.889461951,9.621726349e-06,829.73234296,1.84289031033,,,,,z,0,1.8340469969,2018_Nov_14_1535,59.9964401795,chinese_cond1,001,1029,
images/handbag02a.jpg,candle,x,sounds/animalfarm_chinese.wav,,,,,,,,,0,1,1,1,0,105,105,144,830.84731341,9.30100213736e-06,831.799537773,0.952234305325,,,,,z,0,0.933806807036,2018_Nov_14_1535,59.9964401795,chinese_cond1,001,1029,
images/ear.jpg,bullet,x,sounds/animalfarm_chinese.wav,,,,,,,,,0,1,1,1,0,106,106,139,832.902333553,9.30100213736e-06,833.85009665,0.947773360065,,,,,x,1,0.933832144132,2018_Nov_14_1535,59.9964401795,chinese_cond1,001,1029,
images/key03b.jpg,cigar,x,sounds/animalfarm_chinese.wav,,,,,,,,,0,1,1,1,0,107,107,153,834.950141904,9.30100213736e-06,836.467404053,1.51727241208,,,,,x,1,1.50061498769,2018_Nov_14_1535,59.9964401795,chinese_cond1,001,1029,
images/flashlight05.jpg,flash light,z,sounds/animalfarm_chinese.wav,,,,,,,,,0,1,1,1,0,108,108,8,837.569167745,9.621726349e-06,838.918049333,1.34889217233,,,,,z,1,1.33391309483,2018_Nov_14_1535,59.9964401795,chinese_cond1,001,1029,
images/50dollarbill.jpg,cherry,x,sounds/animalfarm_chinese.wav,,,,,,,,,0,1,1,1,0,109,109,151,840.038328722,9.30100213736e-06,841.201969949,1.16365052795,,,,,x,1,1.15053004387,2018_Nov_14_1535,59.9964401795,chinese_cond1,001,1029,
images/graduationcap.jpg,graduation cap,z,sounds/animalfarm_chinese.wav,,,,,,,,,0,1,1,1,0,110,110,35,842.302741321,9.30100213736e-06,843.385879949,1.08314824908,,,,,z,1,1.06718839856,2018_Nov_14_1535,59.9964401795,chinese_cond1,001,1029,
images/mitten01.jpg,mitten,z,sounds/animalfarm_chinese.wav,,,,,,,,,0,1,1,1,0,111,111,102,844.506006994,9.30100213736e-06,845.386398238,0.880401186761,,,,,z,1,0.867136056419,2018_Nov_14_1535,59.9964401795,chinese_cond1,001,1029,
images/bracelet02a.jpg,chess knight,x,sounds/animalfarm_chinese.wav,,,,,,,,,0,1,1,1,0,112,112,152,846.495167817,9.30100213736e-06,847.770344544,1.2751866692,,,,,x,1,1.26720674394,2018_Nov_14_1535,59.9964401795,chinese_cond1,001,1029,
images/candle08a.jpg,screw driver,x,sounds/animalfarm_chinese.wav,,,,,,,,,0,1,1,1,0,113,113,221,848.883751145,9.94245056063e-06,850.887830109,2.00408890587,,,,,x,1,1.98409050307,2018_Nov_14_1535,59.9964401795,chinese_cond1,001,1029,
images/paperclip04.jpg,eye drops,x,sounds/animalfarm_chinese.wav,,,,,,,,,0,1,1,1,0,114,114,174,851.99397232,9.621726349e-06,854.172014359,2.17805294436,,,,,x,1,2.16747130884,2018_Nov_14_1535,59.9964401795,chinese_cond1,001,1029,
images/remotecontrol01c.jpg,remote control,z,sounds/animalfarm_chinese.wav,,,,,,,,,0,1,1,1,0,115,115,85,855.280772072,9.30088572204e-06,856.055820028,0.775057577877,,,,,z,1,0.767101706937,2018_Nov_14_1535,59.9964401795,chinese_cond1,001,1029,
images/bus.jpg,microphone,x,sounds/animalfarm_chinese.wav,,,,,,,,,0,1,1,1,0,116,116,203,857.174286366,1.21874036267e-05,859.356680946,2.1824058058,,,,,x,1,2.16745751782,2018_Nov_14_1535,59.9964401795,chinese_cond1,001,1029,
images/giraffe.jpg,lettuce,x,sounds/animalfarm_chinese.wav,,,,,,,,,0,1,1,1,0,117,117,195,860.456758273,9.30100213736e-06,861.440559483,0.98381115275,,,,,x,1,0.967153728358,2018_Nov_14_1535,59.9964401795,chinese_cond1,001,1029,
images/hairband.jpg,hairband,z,sounds/animalfarm_chinese.wav,,,,,,,,,0,1,1,1,0,118,118,66,862.549439391,9.30100213736e-06,865.541477426,2.99204861908,,,,,None,0,,2018_Nov_14_1535,59.9964401795,chinese_cond1,001,1029,
images/bed.jpg,bed,z,sounds/animalfarm_chinese.wav,,,,,,,,,0,1,1,1,0,119,119,103,866.660457564,9.621726349e-06,867.508789271,0.848341008765,,,,,z,1,0.833778230473,2018_Nov_14_1535,59.9964401795,chinese_cond1,001,1029,
images/mushroom01.jpg,shower head,x,sounds/animalfarm_chinese.wav,,,,,,,,,0,1,1,1,0,120,120,222,868.625003809,9.30088572204e-06,870.892996967,2.26800310065,,,,,z,0,2.25080974703,2018_Nov_14_1535,59.9964401795,chinese_cond1,001,1029,
images/pen03c.jpg,pepper,x,sounds/animalfarm_chinese.wav,,,,,,,,,0,1,1,1,0,121,121,211,871.985997205,9.30100213736e-06,873.660388929,1.67440166592,,,,,x,1,1.65066394606,2018_Nov_14_1535,59.9964401795,chinese_cond1,001,1029,
images/button07.jpg,radish,x,sounds/animalfarm_chinese.wav,,,,,,,,,0,1,1,1,0,122,122,215,874.772258623,9.30100213736e-06,876.31107725,1.5388285697,,,,,x,1,1.51729710773,2018_Nov_14_1535,59.9964401795,chinese_cond1,001,1029,
images/panda.jpg,panda,z,sounds/animalfarm_chinese.wav,,,,,,,,,0,1,1,1,0,123,123,83,877.41875701,9.621726349e-06,878.228233688,0.809486941551,,,,,z,1,0.800439968705,2018_Nov_14_1535,59.9964401795,chinese_cond1,001,1029,
images/charcoalbarbecue.jpg,charcoal barbecue,z,sounds/animalfarm_chinese.wav,,,,,,,,,0,1,1,1,0,124,124,77,879.345381852,9.30100213736e-06,880.195413074,0.850041806349,,,,,z,1,0.833776626852,2018_Nov_14_1535,59.9964401795,chinese_cond1,001,1029,
images/cat.jpg,black olive,x,sounds/animalfarm_chinese.wav,,,,,,,,,0,1,1,1,0,125,125,133,881.3256628,9.30088572204e-06,883.212856593,1.88720341481,,,,,x,1,1.86737916491,2018_Nov_14_1535,59.9964401795,chinese_cond1,001,1029,
images/gluestick.jpg,squirrel,x,sounds/animalfarm_chinese.wav,,,,,,,,,0,1,1,1,0,126,126,226,884.320243211,9.621726349e-06,885.31341308,0.993180132238,,,,,x,1,0.983808907797,2018_Nov_14_1535,59.9964401795,chinese_cond1,001,1029,
images/printer03a.jpg,printer,z,sounds/animalfarm_chinese.wav,,,,,,,,,0,1,1,1,0,127,127,72,886.421552758,8.98016151041e-06,887.263908101,0.84236496489,,,,,z,1,0.833700615331,2018_Nov_14_1535,59.9964401795,chinese_cond1,001,1029,
images/mailbox01.jpg,mail box,z,sounds/animalfarm_chinese.wav,,,,,,,,,0,1,1,1,0,128,128,73,888.383343987,9.30100213736e-06,889.181091801,0.797758077504,,,,,x,0,0.783788638073,2018_Nov_14_1535,59.9964401795,chinese_cond1,001,1029,
images/peach01.jpg,peach,z,sounds/animalfarm_chinese.wav,,,,,,,,,0,1,1,1,0,129,129,106,890.309418146,3.49588226527e-05,892.031809372,1.7224210531,,,,,z,1,1.70067246119,2018_Nov_14_1535,59.9964401795,chinese_cond1,001,1029,
images/notebook02b.jpg,notebook,z,sounds/animalfarm_chinese.wav,,,,,,,,,0,1,1,1,0,130,130,7,893.136983318,8.98027792573e-06,894.115681494,0.978707798058,,,,,z,1,0.967141861445,2018_Nov_14_1535,59.9964401795,chinese_cond1,001,1029,
images/bowl02b (1).jpg,bowl,z,sounds/animalfarm_chinese.wav,,,,,,,,,0,1,1,1,0,131,131,24,895.232265826,9.30100213736e-06,896.349607386,1.11735054047,,,,,z,1,1.10052537743,2018_Nov_14_1535,59.9964401795,chinese_cond1,001,1029,
images/highheelshoe02a.jpg,high heel shoe,z,sounds/animalfarm_chinese.wav,,,,,,,,,0,1,1,1,0,132,132,75,897.454971201,9.62160993367e-06,899.96720344,2.51224282372,,,,,z,1,2.50088215037,2018_Nov_14_1535,59.9964401795,chinese_cond1,001,1029,
images/8ball.jpg,nail clipper,x,sounds/animalfarm_chinese.wav,,,,,,,,,0,1,1,1,0,133,133,206,901.08352991,9.621726349e-06,901.984399039,0.900879071443,,,,,x,1,0.883795725997,2018_Nov_14_1535,59.9964401795,chinese_cond1,001,1029,
images/fork01.jpg,cooking pot,x,sounds/animalfarm_chinese.wav,,,,,,,,,0,1,1,1,0,134,134,160,903.07704584,9.30100213736e-06,905.051853638,1.97481838218,,,,,x,1,1.95073812944,2018_Nov_14_1535,59.9964401795,chinese_cond1,001,1029,
images/dryingmachine01.jpg,drying machine,z,sounds/animalfarm_chinese.wav,,,,,,,,,0,1,1,1,0,135,135,18,906.172205511,9.62160993367e-06,907.18574069,1.01354576356,,,,,z,1,1.00049263146,2018_Nov_14_1535,59.9964401795,chinese_cond1,001,1029,
images/showerhead01.jpg,skateboard,x,sounds/animalfarm_chinese.wav,,,,,,,,,0,1,1,1,0,136,136,223,908.292352441,9.30100213736e-06,909.302959093,1.01061691518,,,,,x,1,1.00049808377,2018_Nov_14_1535,59.9964401795,chinese_cond1,001,1029,
images/lollipop03b.jpg,lollipop,z,sounds/animalfarm_chinese.wav,,,,,,,,,0,1,1,1,0,137,137,42,910.394687341,9.30100213736e-06,911.286804884,0.892127164407,,,,,z,1,0.883803423261,2018_Nov_14_1535,59.9964401795,chinese_cond1,001,1029,
images/carrot02.jpg,corkscrew,x,sounds/animalfarm_chinese.wav,,,,,,,,,0,1,1,1,0,138,138,161,912.388609307,8.98016151041e-06,915.204481856,2.8158828126,,,,,x,1,2.80095473013,2018_Nov_14_1535,59.9964401795,chinese_cond1,001,1029,
images/axe01.jpg,axe,z,sounds/animalfarm_chinese.wav,,,,,,,,,0,1,1,1,0,139,139,104,916.307442809,9.30100213736e-06,917.0383191,0.73088687472,,,,,z,1,0.717107624281,2018_Nov_14_1535,59.9964401795,chinese_cond1,001,1029,
images/cigar.jpg,crocodile,x,sounds/animalfarm_chinese.wav,,,,,,,,,0,1,1,1,0,140,140,162,918.135063466,9.621726349e-06,921.139227422,3.0041742184,,,,,None,0,,2018_Nov_14_1535,59.9964401795,chinese_cond1,001,1029,
images/flipflop01b.jpg,flip flop,z,sounds/animalfarm_chinese.wav,,,,,,,,,0,1,1,1,0,141,141,27,922.257362452,1.02631747723e-05,923.039905079,0.782553851954,,,,,z,1,0.767146928934,2018_Nov_14_1535,59.9964401795,chinese_cond1,001,1029,
images/leek.jpg,donut,x,sounds/animalfarm_chinese.wav,,,,,,,,,0,1,1,1,0,142,142,169,924.140126731,9.94245056063e-06,925.623875823,1.48375935585,,,,,z,0,1.46729885577,2018_Nov_14_1535,59.9964401795,chinese_cond1,001,1029,
images/cola.jpg,comb,x,sounds/animalfarm_chinese.wav,,,,,,,,,0,1,1,1,0,143,143,157,926.744000944,9.621726349e-06,927.49102503,0.747034669272,,,,,z,0,0.733771783998,2018_Nov_14_1535,59.9964401795,chinese_cond1,001,1029,
images/thumbtack02a.jpg,thumb tack,z,sounds/animalfarm_chinese.wav,,,,,,,,,0,1,1,1,0,144,144,60,928.600744271,8.98027792573e-06,929.341500775,0.74076676683,,,,,z,1,0.717103134142,2018_Nov_14_1535,59.9964401795,chinese_cond1,001,1029,
images/elbow.jpg,elbow,z,sounds/animalfarm_chinese.wav,,,,,,,,,0,1,1,1,0,145,145,105,930.451939721,9.621726349e-06,931.558760262,1.10683048377,,,,,z,1,1.0838782161,2018_Nov_14_1535,59.9964401795,chinese_cond1,001,1029,
images/honeycomb.jpg,honey comb,z,sounds/animalfarm_chinese.wav,,,,,,,,,0,1,1,1,0,146,146,59,932.670571263,9.621726349e-06,933.542593224,0.872032544576,,,,,z,1,0.850475424668,2018_Nov_14_1535,59.9964401795,chinese_cond1,001,1029,
images/mirror02.jpg,8 ball,x,sounds/animalfarm_chinese.wav,,,,,,,,,0,1,1,1,0,147,147,121,934.642707113,9.30100213736e-06,935.559787219,0.917090369272,,,,,x,1,0.9004890715,2018_Nov_14_1535,59.9964401795,chinese_cond1,001,1029,
images/raisin.jpg,ruler,x,sounds/animalfarm_chinese.wav,,,,,,,,,0,1,1,1,0,148,148,218,936.663796938,9.621726349e-06,937.543634293,0.879847938544,,,,,x,1,0.86714760249,2018_Nov_14_1535,59.9964401795,chinese_cond1,001,1029,
images/licenseplate.jpg,license plate,z,sounds/animalfarm_chinese.wav,,,,,,,,,0,1,1,1,0,149,149,40,938.660540952,9.30100213736e-06,940.210962399,1.55043171009,,,,,z,1,1.53391732834,2018_Nov_14_1535,59.9964401795,chinese_cond1,001,1029,
images/eraser.jpg,eraser,z,sounds/animalfarm_chinese.wav,,,,,,,,,0,1,1,1,0,150,150,110,941.316664577,9.30100213736e-06,943.82858379,2.51192947663,,,,,z,1,2.50086900068,2018_Nov_14_1535,59.9964401795,chinese_cond1,001,1029,
images/belt02a.jpg,snowman,x,sounds/animalfarm_chinese.wav,,,,,,,,,0,1,1,1,0,151,151,224,944.930903937,9.94245056063e-06,945.695737166,0.764844133053,,,,,x,1,0.750439150841,2018_Nov_14_1535,59.9964401795,chinese_cond1,001,1029,
images/aquarium.jpg,computer mouse,x,sounds/animalfarm_chinese.wav,,,,,,,,,0,1,1,1,0,152,152,159,946.831511997,9.94245056063e-06,949.630098825,2.79859741125,,,,,z,0,2.78430500301,2018_Nov_14_1535,59.9964401795,chinese_cond1,001,1029,
images/binder03b.jpg,dj mixer,x,sounds/animalfarm_chinese.wav,,,,,,,,,0,1,1,1,0,153,153,167,950.742165763,9.30100213736e-06,952.94762711,2.20547128899,,,,,x,1,2.18415278767,2018_Nov_14_1535,59.9964401795,chinese_cond1,001,1029,
images/lighter02b.jpg,stapler,x,sounds/animalfarm_chinese.wav,,,,,,,,,0,1,1,1,0,154,154,227,954.048704774,1.12253474072e-05,955.348222181,1.29952767026,,,,,x,1,1.28390297596,2018_Nov_14_1535,59.9964401795,chinese_cond1,001,1029,
images/camera01a.jpg,bull,x,sounds/animalfarm_chinese.wav,,,,,,,,,0,1,1,1,0,155,155,138,956.458422829,8.98027792573e-06,957.415426615,0.957013729261,,,,,x,1,0.933804241125,2018_Nov_14_1535,59.9964401795,chinese_cond1,001,1029,
images/hand01a.jpg,cupcake,x,sounds/animalfarm_chinese.wav,,,,,,,,,0,1,1,1,0,156,156,163,958.526116688,9.30100213736e-06,959.632678726,1.10657230124,,,,,x,1,1.08385191683,2018_Nov_14_1535,59.9964401795,chinese_cond1,001,1029,
images/fryingpan01.jpg,frying pan,z,sounds/animalfarm_chinese.wav,,,,,,,,,0,1,1,1,0,157,157,45,960.732162393,9.62160993367e-06,961.699892461,0.967740331776,,,,,z,1,0.950501114712,2018_Nov_14_1535,59.9964401795,chinese_cond1,001,1029,
images/gorilla.jpg,gorilla,z,sounds/animalfarm_chinese.wav,,,,,,,,,0,1,1,1,0,158,158,80,962.809886242,9.621726349e-06,965.800783143,2.99090716371,,,,,None,0,,2018_Nov_14_1535,59.9964401795,chinese_cond1,001,1029,
images/cockroach02.jpg,belt,x,sounds/animalfarm_chinese.wav,,,,,,,,,0,1,1,1,0,159,159,129,966.899049343,9.30100213736e-06,969.901852468,3.0028133879,,,,,None,0,,2018_Nov_14_1535,59.9964401795,chinese_cond1,001,1029,
images/rubberglove02a.jpg,lady bug,x,sounds/animalfarm_chinese.wav,,,,,,,,,0,1,1,1,0,160,160,192,971.005766291,9.30100213736e-06,972.019235401,1.01348001522,,,,,x,1,1.00051828939,2018_Nov_14_1535,59.9964401795,chinese_cond1,001,1029,
images/rhinoceros01.jpg,envelope,x,sounds/animalfarm_chinese.wav,,,,,,,,,0,1,1,1,0,161,161,173,973.130476477,9.30100213736e-06,974.119751798,0.989285264164,,,,,z,0,0.967147955322,2018_Nov_14_1535,59.9964401795,chinese_cond1,001,1029,
images/puma.jpg,puma,z,sounds/animalfarm_chinese.wav,,,,,,,,,0,1,1,1,0,162,162,4,975.217761419,9.30100213736e-06,976.603752659,1.38600182359,,,,,x,0,1.36727156222,2018_Nov_14_1535,59.9964401795,chinese_cond1,001,1029,
images/ant.jpg,ant,z,sounds/animalfarm_chinese.wav,,,,,,,,,0,1,1,1,0,163,163,98,977.697285619,9.30100213736e-06,978.104155328,0.406879971502,,,,,x,0,0.383694216958,2018_Nov_14_1535,59.9964401795,chinese_cond1,001,1029,
images/glasses01b.jpg,calculator,x,sounds/animalfarm_chinese.wav,,,,,,,,,0,1,1,1,0,164,164,142,979.196076331,9.621726349e-06,979.80458019,0.608514763997,,,,,z,0,0.600411039428,2018_Nov_14_1535,59.9964401795,chinese_cond1,001,1029,
images/cheetah.jpg,cheetah,z,sounds/animalfarm_chinese.wav,,,,,,,,,0,1,1,1,0,165,165,82,980.906519318,9.30100213736e-06,981.688405102,0.781896047643,,,,,z,1,0.767119667376,2018_Nov_14_1535,59.9964401795,chinese_cond1,001,1029,
images/electrictoothbrush01a.jpg,banjo,x,sounds/animalfarm_chinese.wav,,,,,,,,,0,1,1,1,0,166,166,127,982.782014715,9.94233414531e-06,985.772650226,2.99064801889,,,,,None,0,,2018_Nov_14_1535,59.9964401795,chinese_cond1,001,1029,
images/bullet (2).jpg,rubber glove,x,sounds/animalfarm_chinese.wav,,,,,,,,,0,1,1,1,0,167,167,217,986.877209024,9.621726349e-06,988.240102388,1.36290362675,,,,,x,1,1.35060515744,2018_Nov_14_1535,59.9964401795,chinese_cond1,001,1029,
images/scooter.jpg,pen,x,sounds/animalfarm_chinese.wav,,,,,,,,,0,1,1,1,0,168,168,212,989.331263917,9.621726349e-06,990.924301199,1.59304786578,,,,,x,1,1.58415868902,2018_Nov_14_1535,59.9964401795,chinese_cond1,001,1029,
images/lip.jpg,boxing glove,x,sounds/animalfarm_chinese.wav,,,,,,,,,0,1,1,1,0,169,169,136,992.026395878,9.94233414531e-06,993.10785712,1.08147182642,,,,,x,1,1.06701167976,2018_Nov_14_1535,59.9964401795,chinese_cond1,001,1029,
images/globe.jpg,cloud,x,sounds/animalfarm_chinese.wav,,,,,,,,,0,1,1,1,0,170,170,154,994.23566261,8.98027792573e-06,995.091892138,0.856239470188,,,,,x,1,0.833814793034,2018_Nov_14_1535,59.9964401795,chinese_cond1,001,1029,
images/aloe02.jpg,broad sword,x,sounds/animalfarm_chinese.wav,,,,,,,,,0,1,1,1,0,171,171,137,996.212649726,8.98027792573e-06,997.475840047,1.26319962251,,,,,x,1,1.2505845991,2018_Nov_14_1535,59.9964401795,chinese_cond1,001,1029,
images/butterfly.jpg,butterfly,z,sounds/animalfarm_chinese.wav,,,,,,,,,0,1,1,1,0,172,172,91,998.582934487,9.30100213736e-06,1001.57661912,2.99369553511,,,,,None,0,,2018_Nov_14_1535,59.9964401795,chinese_cond1,001,1029,
images/drink.jpg,drink,z,sounds/animalfarm_chinese.wav,,,,,,,,,0,1,1,1,0,173,173,117,1002.67621921,9.30100213736e-06,1005.67776189,3.00155326468,,,,,None,0,,2018_Nov_14_1535,59.9964401795,chinese_cond1,001,1029,
images/pouch01b.jpg,pouch,z,sounds/animalfarm_chinese.wav,,,,,,,,,0,1,1,1,0,174,174,25,1006.78969733,9.30100213736e-06,1009.77882768,2.98914061778,,,,,None,0,,2018_Nov_14_1535,59.9964401795,chinese_cond1,001,1029,
images/djmixer01.jpg,light bulb,x,sounds/animalfarm_chinese.wav,,,,,,,,,0,1,1,1,0,175,175,196,1010.89964172,9.30088572204e-06,1013.89656277,2.99693131598,,,,,None,0,,2018_Nov_14_1535,59.9964401795,chinese_cond1,001,1029,
images/scissors04a.jpg,leek,x,sounds/animalfarm_chinese.wav,,,,,,,,,0,1,1,1,0,176,176,194,1014.98954633,9.621726349e-06,1016.91420225,1.92466650344,,,,,x,1,1.90073795302,2018_Nov_14_1535,59.9964401795,chinese_cond1,001,1029,
images/diaper01a.jpg,camera,x,sounds/animalfarm_chinese.wav,,,,,,,,,0,1,1,1,0,177,177,143,1018.03401274,9.94245056063e-06,1018.98139931,0.947397151147,,,,,x,1,0.933817390935,2018_Nov_14_1535,59.9964401795,chinese_cond1,001,1029,
images/magnifyingglass01b.jpg,magnifying glass,z,sounds/animalfarm_chinese.wav,,,,,,,,,0,1,1,1,0,178,178,64,1020.08778591,9.621726349e-06,1021.66543103,1.5776560168,,,,,z,1,1.5673309603,2018_Nov_14_1535,59.9964401795,chinese_cond1,001,1029,
images/swallow.jpg,mattress,x,sounds/animalfarm_chinese.wav,,,,,,,,,0,1,1,1,0,179,179,202,1022.76614146,9.30100213736e-06,1023.61593631,0.849804791622,,,,,x,1,0.833800360444,2018_Nov_14_1535,59.9964401795,chinese_cond1,001,1029,
images/tank.jpg,wallet,x,sounds/animalfarm_chinese.wav,,,,,,,,,0,1,1,1,0,180,180,237,1024.71959612,9.30100213736e-06,1026.3166123,1.59702644264,,,,,x,1,1.5839219949,2018_Nov_14_1535,59.9964401795,chinese_cond1,001,1029,
images/clothespin02a.jpg,clothes pin,z,sounds/animalfarm_chinese.wav,,,,,,,,,0,1,1,1,0,181,181,79,1027.42057006,9.621726349e-06,1028.46719526,1.04663578526,,,,,x,0,1.03384917462,2018_Nov_14_1535,59.9964401795,chinese_cond1,001,1029,
images/computerkeyboard01a.jpg,computer keyboard,z,sounds/animalfarm_chinese.wav,,,,,,,,,0,1,1,1,0,182,182,61,1029.58396241,9.30100213736e-06,1030.48435558,0.900403117528,,,,,z,1,0.883784500649,2018_Nov_14_1535,59.9964401795,chinese_cond1,001,1029,
images/basketball01.jpg,basket ball,z,sounds/animalfarm_chinese.wav,,,,,,,,,0,1,1,1,0,183,183,33,1031.62287934,9.30100213736e-06,1032.46824339,0.845373994322,,,,,z,1,0.833815434366,2018_Nov_14_1535,59.9964401795,chinese_cond1,001,1029,
images/icecube02 (2).jpg,aloe,x,sounds/animalfarm_chinese.wav,,,,,,,,,0,1,1,1,0,184,184,122,1033.57828816,9.30100213736e-06,1034.55209787,0.973819328006,,,,,x,1,0.950498228194,2018_Nov_14_1535,59.9964401795,chinese_cond1,001,1029,
images/toothbrush03a.jpg,parrot,x,sounds/animalfarm_chinese.wav,,,,,,,,,0,1,1,1,0,185,185,210,1035.64346338,9.30100213736e-06,1036.45261613,0.809163331403,,,,,x,1,0.800413027871,2018_Nov_14_1535,59.9964401795,chinese_cond1,001,1029,
images/saltshaker03c.jpg,salt shaker,z,sounds/animalfarm_chinese.wav,,,,,,,,,0,1,1,1,0,186,186,63,1037.56376131,9.94245056063e-06,1038.30305595,0.739304908435,,,,,x,0,0.717085494311,2018_Nov_14_1535,59.9964401795,chinese_cond1,001,1029,
images/crocodile.jpg,triangle ruler,x,sounds/animalfarm_chinese.wav,,,,,,,,,0,1,1,1,0,187,187,235,1039.39948216,9.621726349e-06,1040.63701106,1.23753916437,,,,,x,1,1.21721586853,2018_Nov_14_1535,59.9964401795,chinese_cond1,001,1029,
images/parkbench03.jpg,park bench,z,sounds/animalfarm_chinese.wav,,,,,,,,,0,1,1,1,0,188,188,71,1041.74149513,9.94245056063e-06,1042.90426046,1.16277591465,,,,,z,1,1.15054287284,2018_Nov_14_1535,59.9964401795,chinese_cond1,001,1029,
images/plant01.jpg,plant,z,sounds/animalfarm_chinese.wav,,,,,,,,,0,1,1,1,0,189,189,47,1044.01504002,9.30100213736e-06,1046.95529593,2.94026553992,,,,,z,1,2.91766061599,2018_Nov_14_1535,59.9964401795,chinese_cond1,001,1029,
images/lamp04b.jpg,parking meter,x,sounds/animalfarm_chinese.wav,,,,,,,,,0,1,1,1,0,190,190,209,1048.0756446,9.30088572204e-06,1048.82246631,0.746831651195,,,,,z,0,0.733749654028,2018_Nov_14_1535,59.9964401795,chinese_cond1,001,1029,
images/lantern03.jpg,lantern,z,sounds/animalfarm_chinese.wav,,,,,,,,,0,1,1,1,0,191,191,5,1049.92799754,9.30100213736e-06,1050.77297352,0.844985918608,,,,,x,0,0.833805171307,2018_Nov_14_1535,59.9964401795,chinese_cond1,001,1029,
images/pictureframe04.jpg,picture frame,z,sounds/animalfarm_chinese.wav,,,,,,,,,0,1,1,1,0,192,192,41,1051.89443509,9.621726349e-06,1052.27337554,0.378950714134,,,,,x,0,0.367031019414,2018_Nov_14_1535,59.9964401795,chinese_cond1,001,1029,
images/broom02.jpg,broom,z,sounds/animalfarm_chinese.wav,,,,,,,,,0,1,1,1,0,193,193,116,1053.36520995,9.621726349e-06,1053.65705982,0.291860450641,,,,,z,1,0.28366820619,2018_Nov_14_1535,59.9964401795,chinese_cond1,001,1029,
,,,sounds/animalfarm_chinese.wav,,,,,,,,,0,1,1,1,,,,,,,,,,,,,,,,2018_Nov_14_1535,59.9964401795,chinese_cond1,001,1029,
