images,name,corrAns,sounds,trials_3.thisRepN,trials_3.thisTrialN,trials_3.thisN,trials_3.thisIndex,trials_4.thisRepN,trials_4.thisTrialN,trials_4.thisN,trials_4.thisIndex,trials_2.thisRepN,trials_2.thisTrialN,trials_2.thisN,trials_2.thisIndex,trials.thisRepN,trials.thisTrialN,trials.thisN,trials.thisIndex,begin_global,begin_routine,end_global,end_routine,key_resp_2.keys,key_resp_2.corr,begin_book,key_resp_1.keys,key_resp_1.corr,key_resp_1.rt,date,frameRate,expName,session,participant,
images/volleyball.jpg,volley ball,z,,0,0,0,0,,,,,,,,,,,,,,,,,,,,,,,2018_Nov_14_1534,59.9858788674,chinese_cond2,001,1032,
images/puma.jpg,puma,z,,,,,,0,0,0,0,,,,,,,,,48.1537687123,9.94233414531e-06,51.0093108119,2.8555533248,None,0,,,,,2018_Nov_14_1534,59.9858788674,chinese_cond2,001,1032,
images/parrot01.jpg,chameleon,x,sounds/animalfarm_english.wav,,,,,,,,,0,0,0,1,0,0,0,150,93.1786501423,9.62160993367e-06,95.4038415157,2.22520163644,,,83.0057043196,z,0,2.20080000302,2018_Nov_14_1534,59.9858788674,chinese_cond2,001,1032,
images/lettuce.jpg,mushroom,x,sounds/animalfarm_english.wav,,,,,,,,,0,0,0,1,0,1,1,205,96.5287233305,9.62160993367e-06,98.0543071365,1.52559374832,,,,x,1,1.5170991678,2018_Nov_14_1534,59.9858788674,chinese_cond2,001,1032,
images/remotecontrol01c.jpg,remote control,z,sounds/animalfarm_english.wav,,,,,,,,,0,0,0,1,0,2,2,85,99.1664846047,9.30088572204e-06,100.405033951,1.23855864746,,,,z,1,1.21719005972,2018_Nov_14_1534,59.9858788674,chinese_cond2,001,1032,
images/tissuebox03.jpg,tissue box,z,sounds/animalfarm_english.wav,,,,,,,,,0,0,0,1,0,3,3,58,101.532905194,9.30088572204e-06,102.872311568,1.3394163159,,,,z,1,1.31721610227,2018_Nov_14_1534,59.9858788674,chinese_cond2,001,1032,
images/ear.jpg,bullet,x,sounds/animalfarm_english.wav,,,,,,,,,0,0,0,1,0,4,4,139,103.979379972,9.62160993367e-06,105.489625361,1.51025501057,,,,x,1,1.50059685914,2018_Nov_14_1534,59.9858788674,chinese_cond2,001,1032,
images/cola.jpg,comb,x,sounds/animalfarm_english.wav,,,,,,,,,0,0,0,1,0,5,5,157,106.611903574,8.65943729877e-06,108.873785274,2.26189100149,,,,x,1,2.25077389646,2018_Nov_14_1534,59.9858788674,chinese_cond2,001,1032,
images/flipflop01b.jpg,flip flop,z,sounds/animalfarm_english.wav,,,,,,,,,0,0,0,1,0,6,6,27,109.989310414,8.98016151041e-06,111.141025238,1.1517244454,,,,z,1,1.13385106041,2018_Nov_14_1534,59.9858788674,chinese_cond2,001,1032,
images/scissors04a.jpg,leek,x,sounds/animalfarm_english.wav,,,,,,,,,0,0,0,1,0,7,7,194,112.233136561,8.98016151041e-06,113.725006318,1.49187905795,,,,x,1,1.48394060531,2018_Nov_14_1534,59.9858788674,chinese_cond2,001,1032,
images/dice05a.jpg,band aid,x,sounds/animalfarm_english.wav,,,,,,,,,0,0,0,1,0,8,8,126,114.835994879,8.65943729877e-06,117.825858534,2.98987295653,,,,None,0,,2018_Nov_14_1534,59.9858788674,chinese_cond2,001,1032,
images/cockroach02.jpg,belt,x,sounds/animalfarm_english.wav,,,,,,,,,0,0,0,1,0,9,9,129,118.922958651,8.98016151041e-06,120.209930571,1.28698314424,,,,x,1,1.26722200343,2018_Nov_14_1534,59.9858788674,chinese_cond2,001,1032,
images/cat.jpg,black olive,x,sounds/animalfarm_english.wav,,,,,,,,,0,0,0,1,0,10,10,133,121.339777446,9.30088572204e-06,122.943928585,1.60416108079,,,,x,1,1.58395253599,2018_Nov_14_1534,59.9858788674,chinese_cond2,001,1032,
images/bat.jpg,hand,x,sounds/animalfarm_english.wav,,,,,,,,,0,0,0,1,0,11,11,185,124.040093804,9.30088572204e-06,125.777957452,1.73787326948,,,,x,1,1.71731353691,2018_Nov_14_1534,59.9858788674,chinese_cond2,001,1032,
images/pictureframe04.jpg,picture frame,z,sounds/animalfarm_english.wav,,,,,,,,,0,0,0,1,0,12,12,41,126.897868754,8.98016151041e-06,128.595340008,1.69748023397,,,,z,1,1.68399750104,2018_Nov_14_1534,59.9858788674,chinese_cond2,001,1032,
images/umbrella01.jpg,umbrella,z,sounds/animalfarm_english.wav,,,,,,,,,0,0,0,1,0,13,13,53,129.706478986,9.94233414531e-06,131.896133019,2.18966397562,,,,z,1,2.1674057116,2018_Nov_14_1534,59.9858788674,chinese_cond2,001,1032,
images/donut.jpg,rhinoceros,x,sounds/animalfarm_english.wav,,,,,,,,,0,0,0,1,0,14,14,216,133.019435931,9.62160993367e-06,134.81353392,1.79410825192,,,,x,1,1.78401360102,2018_Nov_14_1534,59.9858788674,chinese_cond2,001,1032,
images/hairpin.jpg,hair pin,z,sounds/animalfarm_english.wav,,,,,,,,,0,0,0,1,0,15,15,28,135.90270713,9.30088572204e-06,137.280792934,1.37809574627,,,,z,1,1.3672198226,2018_Nov_14_1534,59.9858788674,chinese_cond2,001,1032,
images/printer03a.jpg,printer,z,sounds/animalfarm_english.wav,,,,,,,,,0,0,0,1,0,16,16,72,138.388016567,9.62160993367e-06,139.714733026,1.32672640181,,,,z,1,1.31722732738,2018_Nov_14_1534,59.9858788674,chinese_cond2,001,1032,
images/fryingpan01.jpg,frying pan,z,sounds/animalfarm_english.wav,,,,,,,,,0,0,0,1,0,17,17,45,140.813601271,5.32395206392e-05,142.882168244,2.06858140568,,,,z,1,2.05071924592,2018_Nov_14_1534,59.9858788674,chinese_cond2,001,1032,
images/chameleon.jpg,50 dollar bill,x,sounds/animalfarm_english.wav,,,,,,,,,0,0,0,1,0,18,18,120,143.991491308,9.62160993367e-06,145.249454135,1.25797276967,,,,x,1,1.23388736579,2018_Nov_14_1534,59.9858788674,chinese_cond2,001,1032,
images/rubberglove02a.jpg,lady bug,x,sounds/animalfarm_english.wav,,,,,,,,,0,0,0,1,0,19,19,192,146.351893272,9.30088572204e-06,147.616743875,1.26486022398,,,,x,1,1.25059846288,2018_Nov_14_1534,59.9858788674,chinese_cond2,001,1032,
images/magnifyingglass01b.jpg,magnifying glass,z,sounds/animalfarm_english.wav,,,,,,,,,0,0,0,1,0,20,20,64,148.723222796,9.30088572204e-06,150.300687815,1.57747528213,,,,z,1,1.56727960473,2018_Nov_14_1534,59.9858788674,chinese_cond2,001,1032,
images/aloe02.jpg,broad sword,x,sounds/animalfarm_english.wav,,,,,,,,,0,0,0,1,0,21,21,137,151.420664223,9.30088572204e-06,152.967998915,1.54734399228,,,,x,1,1.53393470403,2018_Nov_14_1534,59.9858788674,chinese_cond2,001,1032,
images/plate01b.jpg,plate,z,sounds/animalfarm_english.wav,,,,,,,,,0,0,0,1,0,22,22,3,154.065489989,9.30076930672e-06,155.301910399,1.23643003113,,,,z,1,1.21719743626,2018_Nov_14_1534,59.9858788674,chinese_cond2,001,1032,
images/toucan.jpg,toucan,z,sounds/animalfarm_english.wav,,,,,,,,,0,0,0,1,0,23,23,81,156.400137524,9.62160993367e-06,158.05260187,1.65247396717,,,,z,1,1.63397870678,2018_Nov_14_1534,59.9858788674,chinese_cond2,001,1032,
images/charcoalbarbecue.jpg,charcoal barbecue,z,sounds/animalfarm_english.wav,,,,,,,,,0,0,0,1,0,24,24,77,159.167661004,9.30088572204e-06,160.919965696,1.75231399224,,,,z,1,1.73399320326,2018_Nov_14_1534,59.9858788674,chinese_cond2,001,1032,
images/hat05.jpg,hat,z,sounds/animalfarm_english.wav,,,,,,,,,0,0,0,1,0,25,25,15,162.021682893,9.30088572204e-06,163.453926057,1.4322524654,,,,z,1,1.41725272837,2018_Nov_14_1534,59.9858788674,chinese_cond2,001,1032,
images/diaper01a.jpg,camera,x,sounds/animalfarm_english.wav,,,,,,,,,0,0,0,1,0,26,26,143,164.572488412,9.30088572204e-06,165.671138568,1.09865977685,,,,x,1,1.0838367563,2018_Nov_14_1534,59.9858788674,chinese_cond2,001,1032,
images/bracelet02a.jpg,chess knight,x,sounds/animalfarm_english.wav,,,,,,,,,0,0,0,1,0,27,27,152,166.778101455,9.30088572204e-06,168.521857685,1.74376649305,,,,x,1,1.73401212576,2018_Nov_14_1534,59.9858788674,chinese_cond2,001,1032,
images/plant01.jpg,plant,z,sounds/animalfarm_english.wav,,,,,,,,,0,0,0,1,0,28,28,47,169.631832772,9.30088572204e-06,171.005790914,1.37396808446,,,,z,1,1.35057319014,2018_Nov_14_1534,59.9858788674,chinese_cond2,001,1032,
images/lightswitch02a.jpg,fork,x,sounds/animalfarm_english.wav,,,,,,,,,0,0,0,1,0,29,29,177,172.115338802,9.30088572204e-06,173.489571159,1.37424262054,,,,x,1,1.35040256719,2018_Nov_14_1534,59.9858788674,chinese_cond2,001,1032,
images/mitten01.jpg,mitten,z,sounds/animalfarm_english.wav,,,,,,,,,0,0,0,1,0,30,30,102,174.60818066,8.98016151041e-06,176.39044217,1.78227113129,,,,x,0,1.76732752018,2018_Nov_14_1534,59.9858788674,chinese_cond2,001,1032,
images/candy.jpg,candy,z,sounds/animalfarm_english.wav,,,,,,,,,0,0,0,1,0,31,31,31,177.491363982,7.15204514563e-05,179.191184507,1.69987376477,,,,z,1,1.68402732781,2018_Nov_14_1534,59.9858788674,chinese_cond2,001,1032,
images/hammer02a.jpg,flower,x,sounds/animalfarm_english.wav,,,,,,,,,0,0,0,1,0,32,32,176,180.284474154,9.30088572204e-06,181.791775658,1.50731080433,,,,x,1,1.48392873863,2018_Nov_14_1534,59.9858788674,chinese_cond2,001,1032,
images/paintbrush03a.jpg,paint brush,z,sounds/animalfarm_english.wav,,,,,,,,,0,0,0,1,0,33,33,0,182.890140373,9.30088572204e-06,184.192368284,1.30223785341,,,,z,1,1.28387601231,2018_Nov_14_1534,59.9858788674,chinese_cond2,001,1032,
images/desktopcomputer.jpg,desktop computer,z,sounds/animalfarm_english.wav,,,,,,,,,0,0,0,1,0,34,34,16,185.326392212,9.62160993367e-06,186.859694136,1.53331186646,,,,z,1,1.51726946991,2018_Nov_14_1534,59.9858788674,chinese_cond2,001,1032,
images/nailclipper03a.jpg,aquarium,x,sounds/animalfarm_english.wav,,,,,,,,,0,0,0,1,0,35,35,123,187.956951085,9.30088572204e-06,189.360307031,1.40336556779,,,,z,0,1.38390622416,2018_Nov_14_1534,59.9858788674,chinese_cond2,001,1032,
images/bowl02b (1).jpg,bowl,z,sounds/animalfarm_english.wav,,,,,,,,,0,0,0,1,0,36,36,24,190.476107669,9.30088572204e-06,191.410811074,0.934713347233,,,,z,1,0.917116422555,2018_Nov_14_1534,59.9858788674,chinese_cond2,001,1032,
images/treadmill.jpg,lily,x,sounds/animalfarm_english.wav,,,,,,,,,0,0,0,1,0,37,37,199,192.514549767,9.30088572204e-06,194.011470859,1.49693103379,,,,x,1,1.48394381255,2018_Nov_14_1534,59.9858788674,chinese_cond2,001,1032,
images/antelope.jpg,antelope,z,sounds/animalfarm_english.wav,,,,,,,,,0,0,0,1,0,38,38,12,195.115436301,8.98016151041e-06,197.178906718,2.06348068046,,,,x,0,2.05074105482,2018_Nov_14_1534,59.9858788674,chinese_cond2,001,1032,
images/baseball01a.jpg,baseball,z,sounds/animalfarm_english.wav,,,,,,,,,0,0,0,1,0,39,39,74,198.310758733,8.98016151041e-06,200.196317625,1.88556851412,,,,z,1,1.86736061843,2018_Nov_14_1534,59.9858788674,chinese_cond2,001,1032,
images/mailbox01.jpg,mail box,z,sounds/animalfarm_english.wav,,,,,,,,,0,0,0,1,0,40,40,73,201.314106084,9.62160993367e-06,203.130382157,1.81628569448,,,,z,1,1.80068396672,2018_Nov_14_1534,59.9858788674,chinese_cond2,001,1032,
images/banjo.jpg,knife,x,sounds/animalfarm_english.wav,,,,,,,,,0,0,0,1,0,41,41,191,204.224835695,9.30088572204e-06,205.547617566,1.32279245462,,,,x,1,1.30053868075,2018_Nov_14_1534,59.9858788674,chinese_cond2,001,1032,
images/ostrich.jpg,ostrich,z,sounds/animalfarm_english.wav,,,,,,,,,0,0,0,1,0,42,42,76,206.646748801,9.62160993367e-06,207.814871642,1.16813278303,,,,z,1,1.15052174672,2018_Nov_14_1534,59.9858788674,chinese_cond2,001,1032,
images/electrictoothbrush01a.jpg,banjo,x,sounds/animalfarm_english.wav,,,,,,,,,0,0,0,1,0,43,43,127,208.908000929,9.30088572204e-06,210.015245729,1.1072557047,,,,z,0,1.0836776793,2018_Nov_14_1534,59.9858788674,chinese_cond2,001,1032,
images/paperclip04.jpg,eye drops,x,sounds/animalfarm_english.wav,,,,,,,,,0,0,0,1,0,44,44,174,211.121147676,8.98016151041e-06,212.432672287,1.3115339122,,,,x,1,1.30055824469,2018_Nov_14_1534,59.9858788674,chinese_cond2,001,1032,
images/corn01.jpg,corn,z,sounds/animalfarm_english.wav,,,,,,,,,0,0,0,1,0,45,45,22,213.530685173,8.98016151041e-06,214.999984285,1.46930841298,,,,z,1,1.45058576239,2018_Nov_14_1534,59.9858788674,chinese_cond2,001,1032,
images/coffeepot03b.jpg,coffee pot,z,sounds/animalfarm_english.wav,,,,,,,,,0,0,0,1,0,46,46,107,216.119201549,8.98016151041e-06,217.367217577,1.24802500848,,,,z,1,1.23386844341,2018_Nov_14_1534,59.9858788674,chinese_cond2,001,1032,
images/lock02a.jpg,lock,z,sounds/animalfarm_english.wav,,,,,,,,,0,0,0,1,0,47,47,65,218.476157702,9.62160993367e-06,221.468174348,2.99202626827,,,,None,0,,2018_Nov_14_1534,59.9858788674,chinese_cond2,001,1032,
images/broadsword.jpg,teapot,x,sounds/animalfarm_english.wav,,,,,,,,,0,0,0,1,0,48,48,231,222.560051867,9.30088572204e-06,223.46873657,0.908694324666,,,,z,0,0.900442528888,2018_Nov_14_1534,59.9858788674,chinese_cond2,001,1032,
images/cigar.jpg,crocodile,x,sounds/animalfarm_english.wav,,,,,,,,,0,0,0,1,0,49,49,162,224.565188833,9.30088572204e-06,226.569490325,2.00431143423,,,,x,1,1.98405734717,2018_Nov_14_1534,59.9858788674,chinese_cond2,001,1032,
images/electricguitar02.jpg,electric guitar,z,sounds/animalfarm_english.wav,,,,,,,,,0,0,0,1,0,50,50,100,227.669806298,8.98016151041e-06,228.636666658,0.966869981494,,,,z,1,0.950469982577,2018_Nov_14_1534,59.9858788674,chinese_cond2,001,1032,
images/bowtie.jpg,bowtie,z,sounds/animalfarm_english.wav,,,,,,,,,0,0,0,1,0,51,51,89,229.746673496,9.62160993367e-06,231.203970958,1.45730804605,,,,z,1,1.43392565975,2018_Nov_14_1534,59.9858788674,chinese_cond2,001,1032,
images/ashtray02b.jpg,ashtray,z,sounds/animalfarm_english.wav,,,,,,,,,0,0,0,1,0,52,52,43,232.317186596,8.98016151041e-06,233.30451368,0.987337347004,,,,z,1,0.96714323468,2018_Nov_14_1534,59.9858788674,chinese_cond2,001,1032,
images/backpack01b.jpg,swallow,x,sounds/animalfarm_english.wav,,,,,,,,,0,0,0,1,0,53,53,228,234.435478905,9.62160993367e-06,235.521729077,1.08626043459,,,,x,1,1.06718531309,2018_Nov_14_1534,59.9858788674,chinese_cond2,001,1032,
images/cactus.jpg,cactus,z,sounds/animalfarm_english.wav,,,,,,,,,0,0,0,1,0,54,54,70,236.632072028,9.62160993367e-06,237.422183793,0.790122027509,,,,z,1,0.767102695652,2018_Nov_14_1534,59.9858788674,chinese_cond2,001,1032,
images/tank.jpg,wallet,x,sounds/animalfarm_english.wav,,,,,,,,,0,0,0,1,0,55,55,237,238.524873412,9.62160993367e-06,240.572943193,2.04807972326,,,,x,1,2.034059464,2018_Nov_14_1534,59.9858788674,chinese_cond2,001,1032,
images/wallet01.jpg,lamp,x,sounds/animalfarm_english.wav,,,,,,,,,0,0,0,1,0,56,56,193,241.677167776,8.98016151041e-06,243.190264042,1.51310556685,,,,x,1,1.50060840521,2018_Nov_14_1534,59.9858788674,chinese_cond2,001,1032,
images/marker01a.jpg,marker,z,sounds/animalfarm_english.wav,,,,,,,,,0,0,0,1,0,57,57,95,244.286662104,9.30076930672e-06,247.15789894,2.87124645757,,,,z,1,2.8509211709,2018_Nov_14_1534,59.9858788674,chinese_cond2,001,1032,
images/dolphin01.jpg,dolphin,z,sounds/animalfarm_english.wav,,,,,,,,,0,0,0,1,0,58,58,99,248.256796691,9.62149351835e-06,249.091710103,0.834923675051,,,,x,0,0.817102567526,2018_Nov_14_1534,59.9858788674,chinese_cond2,001,1032,
images/knife04.jpg,tooth brush,x,sounds/animalfarm_english.wav,,,,,,,,,0,0,0,1,0,59,59,233,250.187226827,9.30088572204e-06,251.375878932,1.18868000782,,,,x,1,1.16736401804,2018_Nov_14_1534,59.9858788674,chinese_cond2,001,1032,
images/lantern03.jpg,lantern,z,sounds/animalfarm_english.wav,,,,,,,,,0,0,0,1,0,60,60,5,252.481149382,8.98016151041e-06,253.992920114,1.51178035326,,,,x,0,1.50059782132,2018_Nov_14_1534,59.9858788674,chinese_cond2,001,1032,
images/gorilla.jpg,gorilla,z,sounds/animalfarm_english.wav,,,,,,,,,0,0,0,1,0,61,61,80,255.101701802,9.30088572204e-06,256.426850264,1.32515872421,,,,z,1,1.31722251663,2018_Nov_14_1534,59.9858788674,chinese_cond2,001,1032,
images/notebook02b.jpg,notebook,z,sounds/animalfarm_english.wav,,,,,,,,,0,0,0,1,0,62,62,7,257.533272418,9.94233414531e-06,258.177283556,0.644021080341,,,,z,1,0.633719565347,2018_Nov_14_1534,59.9858788674,chinese_cond2,001,1032,
images/corkscrew02a.jpg,masquerade mask,x,sounds/animalfarm_english.wav,,,,,,,,,0,0,0,1,0,63,63,201,259.279348092,9.30088572204e-06,261.344737376,2.06539922545,,,,x,1,2.05073913047,2018_Nov_14_1534,59.9858788674,chinese_cond2,001,1032,
images/raisin.jpg,ruler,x,sounds/animalfarm_english.wav,,,,,,,,,0,0,0,1,0,64,64,218,262.448514234,8.98016151041e-06,263.728657391,1.28015277802,,,,x,1,1.2672107782,2018_Nov_14_1534,59.9858788674,chinese_cond2,001,1032,
images/panda.jpg,panda,z,sounds/animalfarm_english.wav,,,,,,,,,0,0,0,1,0,65,65,83,264.836223872,9.30088572204e-06,265.812518201,0.97630427056,,,,z,1,0.967123350012,2018_Nov_14_1534,59.9858788674,chinese_cond2,001,1032,
images/bus.jpg,microphone,x,sounds/animalfarm_english.wav,,,,,,,,,0,0,0,1,0,66,66,203,266.929239946,9.62160993367e-06,267.362892352,0.433662349009,,,,z,0,0.416989417514,2018_Nov_14_1534,59.9858788674,chinese_cond2,001,1032,
images/scooter.jpg,pen,x,sounds/animalfarm_english.wav,,,,,,,,,0,0,0,1,0,67,67,212,268.454249343,9.30088572204e-06,269.396716729,0.942477328237,,,,x,1,0.933787429589,2018_Nov_14_1534,59.9858788674,chinese_cond2,001,1032,
images/pingpongpaddle01c (1).jpg,ping pong paddle,z,sounds/animalfarm_english.wav,,,,,,,,,0,0,0,1,0,68,68,10,270.506348004,9.30088572204e-06,271.847329432,1.34099137015,,,,z,1,1.31722796883,2018_Nov_14_1534,59.9858788674,chinese_cond2,001,1032,
images/clothespin02a.jpg,clothes pin,z,sounds/animalfarm_english.wav,,,,,,,,,0,0,0,1,0,69,69,79,272.950614627,9.30088572204e-06,274.914759133,1.96415380691,,,,z,1,1.95071244659,2018_Nov_14_1534,59.9858788674,chinese_cond2,001,1032,
images/blackolive.jpg,tank,x,sounds/animalfarm_english.wav,,,,,,,,,0,0,0,1,0,70,70,229,276.028054951,9.30088572204e-06,276.898569205,0.870524197002,,,,x,1,0.850441053626,2018_Nov_14_1534,59.9858788674,chinese_cond2,001,1032,
images/button07.jpg,radish,x,sounds/animalfarm_english.wav,,,,,,,,,0,0,0,1,0,71,71,215,278.008916648,8.98016151041e-06,279.149125333,1.1402183075,,,,x,1,1.11717877036,2018_Nov_14_1534,59.9858788674,chinese_cond2,001,1032,
images/glasses01b.jpg,calculator,x,sounds/animalfarm_english.wav,,,,,,,,,0,0,0,1,0,72,72,142,280.242079508,8.98016151041e-06,281.399679858,1.15760997159,,,,x,1,1.13385041896,2018_Nov_14_1534,59.9858788674,chinese_cond2,001,1032,
images/cocktailshrimp01.jpg,cocktail shrimp,z,sounds/animalfarm_english.wav,,,,,,,,,0,0,0,1,0,73,73,30,282.513197293,8.98016151041e-06,284.11700943,1.60382208019,,,,z,1,1.58395221527,2018_Nov_14_1534,59.9858788674,chinese_cond2,001,1032,
images/broom02.jpg,broom,z,sounds/animalfarm_english.wav,,,,,,,,,0,0,0,1,0,74,74,116,285.208759302,9.30088572204e-06,287.451202827,2.24245378748,,,,z,1,2.23414843169,2018_Nov_14_1534,59.9858788674,chinese_cond2,001,1032,
images/lion.jpg,lion,z,sounds/animalfarm_english.wav,,,,,,,,,0,0,0,1,0,75,75,44,288.562211272,9.94233414531e-06,289.251646895,0.689446848352,,,,z,1,0.66707248392,2018_Nov_14_1534,59.9858788674,chinese_cond2,001,1032,
images/envelope02a.jpg,grand piano,x,sounds/animalfarm_english.wav,,,,,,,,,0,0,0,1,0,76,76,182,290.372722089,9.30088572204e-06,292.569102254,2.19639010797,,,,z,0,2.18410365924,2018_Nov_14_1534,59.9858788674,chinese_cond2,001,1032,
images/ladybug03.jpg,giraffe,x,sounds/animalfarm_english.wav,,,,,,,,,0,0,0,1,0,77,77,178,293.670552933,8.98016151041e-06,294.853257934,1.18271462247,,,,x,1,1.167446443,2018_Nov_14_1534,59.9858788674,chinese_cond2,001,1032,
images/ladder.jpg,ladder,z,sounds/animalfarm_english.wav,,,,,,,,,0,0,0,1,0,78,78,113,295.944709216,9.30088572204e-06,296.786821822,0.84212254826,,,,z,1,0.833645286621,2018_Nov_14_1534,59.9858788674,chinese_cond2,001,1032,
images/hand01a.jpg,cupcake,x,sounds/animalfarm_english.wav,,,,,,,,,0,0,0,1,0,79,79,163,297.8967039,8.65943729877e-06,299.487469163,1.59077456361,,,,x,1,1.56727575604,2018_Nov_14_1534,59.9858788674,chinese_cond2,001,1032,
images/pineapple01a.jpg,pineapple,z,sounds/animalfarm_english.wav,,,,,,,,,0,0,0,1,0,80,80,51,300.598757275,8.98016151041e-06,301.271245431,0.672498098225,,,,z,1,0.650392496726,2018_Nov_14_1534,59.9858788674,chinese_cond2,001,1032,
images/hairband.jpg,hairband,z,sounds/animalfarm_english.wav,,,,,,,,,0,0,0,1,0,81,81,66,302.378873491,9.30088572204e-06,304.205303869,1.82644031977,,,,z,1,1.81735080446,2018_Nov_14_1534,59.9858788674,chinese_cond2,001,1032,
images/ruler02b.jpg,watermelon,x,sounds/animalfarm_english.wav,,,,,,,,,0,0,0,1,0,82,82,238,305.30667084,9.30076930672e-06,306.722658009,1.41599743161,,,,x,1,1.40063945076,2018_Nov_14_1534,59.9858788674,chinese_cond2,001,1032,
images/key03b.jpg,cigar,x,sounds/animalfarm_english.wav,,,,,,,,,0,0,0,1,0,83,83,153,307.822656149,8.98016151041e-06,308.823109646,1.0004627984,,,,x,1,0.983798847185,2018_Nov_14_1534,59.9858788674,chinese_cond2,001,1032,
images/apple06.jpg,apple,z,sounds/animalfarm_english.wav,,,,,,,,,0,0,0,1,0,84,84,13,309.948201212,8.98004509509e-06,310.706916127,0.758725177846,,,,z,1,0.750423991354,2018_Nov_14_1534,59.9858788674,chinese_cond2,001,1032,
images/microphone01.jpg,diaper,x,sounds/animalfarm_english.wav,,,,,,,,,0,0,0,1,0,85,85,164,311.804636836,9.30088572204e-06,313.140845635,1.33621842042,,,,z,0,1.31723053451,2018_Nov_14_1534,59.9858788674,chinese_cond2,001,1032,
images/feather03b.jpg,feather,z,sounds/animalfarm_english.wav,,,,,,,,,0,0,0,1,0,86,86,114,314.239609004,9.30088572204e-06,315.508087266,1.26848788396,,,,z,1,1.25053656404,2018_Nov_14_1534,59.9858788674,chinese_cond2,001,1032,
images/mirror02.jpg,8 ball,x,sounds/animalfarm_english.wav,,,,,,,,,0,0,0,1,0,87,87,121,316.609439805,9.30088572204e-06,317.675289963,1.06586009962,,,,x,1,1.050483517,2018_Nov_14_1534,59.9858788674,chinese_cond2,001,1032,
images/teapot.jpg,light switch,x,sounds/animalfarm_english.wav,,,,,,,,,0,0,0,1,0,88,88,197,318.791169177,9.30088572204e-06,320.142600613,1.35144137824,,,,x,1,1.33392367128,2018_Nov_14_1534,59.9858788674,chinese_cond2,001,1032,
images/cloud.jpg,ceiling fan,x,sounds/animalfarm_english.wav,,,,,,,,,0,0,0,1,0,89,89,149,321.24589543,9.30088572204e-06,322.859905811,1.61402032338,,,,x,1,1.60063059896,2018_Nov_14_1534,59.9858788674,chinese_cond2,001,1032,
images/shotglass.jpg,shot glass,z,sounds/animalfarm_english.wav,,,,,,,,,0,0,0,1,0,90,90,86,323.967129764,9.30088572204e-06,325.377189713,1.4100692498,,,,z,1,1.40056985465,2018_Nov_14_1534,59.9858788674,chinese_cond2,001,1032,
images/computermouse02a.jpg,world map,x,sounds/animalfarm_english.wav,,,,,,,,,0,0,0,1,0,91,91,239,326.477497989,8.98016151041e-06,327.761335836,1.28384810977,,,,x,1,1.26743367838,2018_Nov_14_1534,59.9858788674,chinese_cond2,001,1032,
images/bottleofredwine02.jpg,pipe,x,sounds/animalfarm_english.wav,,,,,,,,,0,0,0,1,0,92,92,213,328.857592781,9.62160993367e-06,330.22839889,1.37081637268,,,,z,0,1.35057222797,2018_Nov_14_1534,59.9858788674,chinese_cond2,001,1032,
images/butterfly.jpg,butterfly,z,sounds/animalfarm_english.wav,,,,,,,,,0,0,0,1,0,93,93,91,331.33432874,8.98016151041e-06,332.178868232,0.84454911307,,,,z,1,0.833768442972,2018_Nov_14_1534,59.9858788674,chinese_cond2,001,1032,
images/razor04a.jpg,razor,z,sounds/animalfarm_english.wav,,,,,,,,,0,0,0,1,0,94,94,36,333.27693596,9.30076930672e-06,334.396088118,1.1191621006,,,,x,0,1.10051032912,2018_Nov_14_1534,59.9858788674,chinese_cond2,001,1032,
images/rhinoceros01.jpg,envelope,x,sounds/animalfarm_english.wav,,,,,,,,,0,0,0,1,0,95,95,173,335.506855062,8.98016151041e-06,337.330140462,1.82329502236,,,,x,1,1.80067242077,2018_Nov_14_1534,59.9858788674,chinese_cond2,001,1032,
images/drink.jpg,drink,z,sounds/animalfarm_english.wav,,,,,,,,,0,0,0,1,0,96,96,117,338.429074134,9.94233414531e-06,339.230629816,0.801565945731,,,,z,1,0.783775947872,2018_Nov_14_1534,59.9858788674,chinese_cond2,001,1032,
images/lollipop03b.jpg,lollipop,z,sounds/animalfarm_english.wav,,,,,,,,,0,0,0,1,0,97,97,42,340.322452492,9.62160993367e-06,342.198010063,1.87556719268,,,,z,1,1.86732309428,2018_Nov_14_1534,59.9858788674,chinese_cond2,001,1032,
images/flamingo.jpg,flamingo,z,sounds/animalfarm_english.wav,,,,,,,,,0,0,0,1,0,98,98,52,343.294815759,9.30088572204e-06,344.481925844,1.18711970665,,,,z,1,1.16720814828,2018_Nov_14_1534,59.9858788674,chinese_cond2,001,1032,
images/mattress.jpg,cat,x,sounds/animalfarm_english.wav,,,,,,,,,0,0,0,1,0,99,99,147,345.585062867,8.98016151041e-06,346.549101215,0.964047327987,,,,x,1,0.950479924912,2018_Nov_14_1534,59.9858788674,chinese_cond2,001,1032,
images/arrow02.jpg,hammer,x,sounds/animalfarm_english.wav,,,,,,,,,0,0,0,1,0,100,100,184,347.646219934,8.98016151041e-06,349.333100063,1.68688910932,,,,x,1,1.66730853356,2018_Nov_14_1534,59.9858788674,chinese_cond2,001,1032,
images/djmixer01.jpg,light bulb,x,sounds/animalfarm_english.wav,,,,,,,,,0,0,0,1,0,101,101,196,350.453856461,9.30088572204e-06,353.384101222,2.93025502341,,,,x,1,2.91762251803,2018_Nov_14_1534,59.9858788674,chinese_cond2,001,1032,
images/candle08a.jpg,screw driver,x,sounds/animalfarm_english.wav,,,,,,,,,0,0,0,1,0,102,102,221,354.495963102,8.98016151041e-06,356.051434451,1.55548097042,,,,x,1,1.53394977783,2018_Nov_14_1534,59.9858788674,chinese_cond2,001,1032,
images/lemon02.jpg,lemon,z,sounds/animalfarm_english.wav,,,,,,,,,0,0,0,1,0,103,103,14,357.162142702,9.62160993367e-06,358.051923869,0.889791108901,,,,z,1,0.867122002994,2018_Nov_14_1534,59.9858788674,chinese_cond2,001,1032,
images/flashlight05.jpg,flash light,z,sounds/animalfarm_english.wav,,,,,,,,,0,0,0,1,0,104,104,8,359.153595203,8.98016151041e-06,360.285808669,1.1322234082,,,,z,1,1.11717524251,2018_Nov_14_1534,59.9858788674,chinese_cond2,001,1032,
images/headphones02b.jpg,headphones,z,sounds/animalfarm_english.wav,,,,,,,,,0,0,0,1,0,105,105,101,361.392440895,9.62160993367e-06,362.436339396,1.04390844353,,,,z,1,1.03382309363,2018_Nov_14_1534,59.9858788674,chinese_cond2,001,1032,
images/candycane01a.jpg,lip,x,sounds/animalfarm_english.wav,,,,,,,,,0,0,0,1,0,106,106,200,363.529113005,6.95962226018e-05,365.053651906,1.52459085803,,,,x,1,1.50061032944,2018_Nov_14_1534,59.9858788674,chinese_cond2,001,1032,
images/weight01.jpg,weight,z,sounds/animalfarm_english.wav,,,,,,,,,0,0,0,1,0,107,107,67,366.156943195,9.30088572204e-06,367.070813294,0.913880040636,,,,z,1,0.900460168486,2018_Nov_14_1534,59.9858788674,chinese_cond2,001,1032,
images/cherry01.jpg,highlighter,x,sounds/animalfarm_english.wav,,,,,,,,,0,0,0,1,0,108,108,187,368.177992026,8.98016151041e-06,369.2046759,1.02669349592,,,,x,1,1.01715433155,2018_Nov_14_1534,59.9858788674,chinese_cond2,001,1032,
images/table02.jpg,table,z,sounds/animalfarm_english.wav,,,,,,,,,0,0,0,1,0,109,109,49,370.317348559,8.98016151041e-06,373.038961984,2.72162272595,,,,z,1,2.70091097208,2018_Nov_14_1534,59.9858788674,chinese_cond2,001,1032,
images/doll.jpg,carrot,x,sounds/animalfarm_english.wav,,,,,,,,,0,0,0,1,0,110,110,146,374.148705191,9.30088572204e-06,377.139816446,2.99112119747,,,,None,0,,2018_Nov_14_1534,59.9858788674,chinese_cond2,001,1032,
images/croissant02b.jpg,croissant,z,sounds/animalfarm_english.wav,,,,,,,,,0,0,0,1,0,111,111,39,378.249796343,9.30088572204e-06,379.373843325,1.1240582068,,,,z,1,1.10050680116,2018_Nov_14_1534,59.9858788674,chinese_cond2,001,1032,
images/cauliflower01.jpg,glue stick,x,sounds/animalfarm_english.wav,,,,,,,,,0,0,0,1,0,112,112,181,380.488126638,9.30088572204e-06,382.141197785,1.65308108949,,,,z,0,1.63396908517,2018_Nov_14_1534,59.9858788674,chinese_cond2,001,1032,
images/thumbtack02a.jpg,thumb tack,z,sounds/animalfarm_english.wav,,,,,,,,,0,0,0,1,0,113,113,60,383.249880051,9.30088572204e-06,385.508692785,2.25882267661,,,,z,1,2.2507456732,2018_Nov_14_1534,59.9858788674,chinese_cond2,001,1032,
images/medal01.jpg,medal,z,sounds/animalfarm_english.wav,,,,,,,,,0,0,0,1,0,114,114,115,386.60840324,9.30088572204e-06,387.492522101,0.884128482896,,,,z,1,0.867124248063,2018_Nov_14_1534,59.9858788674,chinese_cond2,001,1032,
images/spoon02b.jpg,spoon,z,sounds/animalfarm_english.wav,,,,,,,,,0,0,0,1,0,115,115,38,388.582347655,9.30088572204e-06,389.342975021,0.760637308471,,,,z,1,0.750424953527,2018_Nov_14_1534,59.9858788674,chinese_cond2,001,1032,
images/boxingglove02a.jpg,bracelet,x,sounds/animalfarm_english.wav,,,,,,,,,0,0,0,1,0,116,116,135,390.452558509,9.30076930672e-06,392.560439617,2.10789105017,,,,z,0,2.08409493556,2018_Nov_14_1534,59.9858788674,chinese_cond2,001,1032,
images/screwdriver02b.jpg,cola,x,sounds/animalfarm_english.wav,,,,,,,,,0,0,0,1,0,117,117,158,393.652600651,9.30088572204e-06,395.311112166,1.65852177748,,,,x,1,1.63397004735,2018_Nov_14_1534,59.9858788674,chinese_cond2,001,1032,
images/bed.jpg,bed,z,sounds/animalfarm_english.wav,,,,,,,,,0,0,0,1,0,118,118,103,396.429194083,9.62160993367e-06,397.128220827,0.699036365724,,,,z,1,0.683732586564,2018_Nov_14_1534,59.9858788674,chinese_cond2,001,1032,
images/camera01a.jpg,bull,x,sounds/animalfarm_english.wav,,,,,,,,,0,0,0,1,0,119,119,138,398.237355949,9.62160993367e-06,399.428789335,1.19144332816,,,,x,1,1.16718730156,2018_Nov_14_1534,59.9858788674,chinese_cond2,001,1032,
images/nametag01a.jpg,name tag,z,sounds/animalfarm_english.wav,,,,,,,,,0,0,0,1,0,120,120,108,400.548244894,9.62149351835e-06,401.946374713,1.39813976188,,,,z,1,1.38420128624,2018_Nov_14_1534,59.9858788674,chinese_cond2,001,1032,
images/puzzle.jpg,puzzle,z,sounds/animalfarm_english.wav,,,,,,,,,0,0,0,1,0,121,121,57,403.064981969,9.62160993367e-06,404.046602488,0.981630140916,,,,z,1,0.967146121082,2018_Nov_14_1534,59.9858788674,chinese_cond2,001,1032,
images/fork01.jpg,cooking pot,x,sounds/animalfarm_english.wav,,,,,,,,,0,0,0,1,0,122,122,160,405.139400793,8.98016151041e-06,406.597227764,1.45783659199,,,,x,1,1.43391796248,2018_Nov_14_1534,59.9858788674,chinese_cond2,001,1032,
images/calculator02b.jpg,dice,x,sounds/animalfarm_english.wav,,,,,,,,,0,0,0,1,0,123,123,165,407.69777273,9.30088572204e-06,409.531305444,1.83354233566,,,,x,1,1.81737004768,2018_Nov_14_1534,59.9858788674,chinese_cond2,001,1032,
images/giraffe.jpg,lettuce,x,sounds/animalfarm_english.wav,,,,,,,,,0,0,0,1,0,124,124,195,410.630691972,8.98016151041e-06,412.482000893,1.85131854261,,,,x,1,1.8340016061,2018_Nov_14_1534,59.9858788674,chinese_cond2,001,1032,
images/apricot.jpg,apricot,z,sounds/animalfarm_english.wav,,,,,,,,,0,0,0,1,0,125,125,32,413.597482094,9.62160993367e-06,415.049343679,1.4518718482,,,,z,1,1.43386408151,2018_Nov_14_1534,59.9858788674,chinese_cond2,001,1032,
images/leaf01a.jpg,leaf,z,sounds/animalfarm_english.wav,,,,,,,,,0,0,0,1,0,126,126,68,416.152333813,8.98016151041e-06,416.983128543,0.830804352066,,,,z,1,0.817092945799,2018_Nov_14_1534,59.9858788674,chinese_cond2,001,1032,
images/worldmap.jpg,scooter,x,sounds/animalfarm_english.wav,,,,,,,,,0,0,0,1,0,127,127,220,418.111988244,9.30076930672e-06,419.583752086,1.47177314339,,,,x,1,1.4505806308,2018_Nov_14_1534,59.9858788674,chinese_cond2,001,1032,
images/highheelshoe02a.jpg,high heel shoe,z,sounds/animalfarm_english.wav,,,,,,,,,0,0,0,1,0,128,128,75,420.688697006,9.62160993367e-06,421.667602954,0.978916211403,,,,z,1,0.967121746391,2018_Nov_14_1534,59.9858788674,chinese_cond2,001,1032,
images/safe.jpg,safe,z,sounds/animalfarm_english.wav,,,,,,,,,0,0,0,1,0,129,129,78,422.776907095,9.30088572204e-06,424.051534836,1.27463736234,,,,z,1,1.25052726315,2018_Nov_14_1534,59.9858788674,chinese_cond2,001,1032,
images/bullet (2).jpg,rubber glove,x,sounds/animalfarm_english.wav,,,,,,,,,0,0,0,1,0,130,130,217,425.155299186,8.98004509509e-06,426.518792567,1.36350236111,,,,x,1,1.35055426776,2018_Nov_14_1534,59.9858788674,chinese_cond2,001,1032,
images/50dollarbill.jpg,cherry,x,sounds/animalfarm_english.wav,,,,,,,,,0,0,0,1,0,131,131,151,427.638810669,9.30088572204e-06,429.20279969,1.56399928418,,,,x,1,1.55060667323,2018_Nov_14_1534,59.9858788674,chinese_cond2,001,1032,
images/egg01b (1).jpg,egg,z,sounds/animalfarm_english.wav,,,,,,,,,0,0,0,1,0,132,132,19,430.367194165,8.98016151041e-06,431.036643502,0.669458958786,,,,z,1,0.650447339751,2018_Nov_14_1534,59.9858788674,chinese_cond2,001,1032,
images/swallow.jpg,mattress,x,sounds/animalfarm_english.wav,,,,,,,,,0,0,0,1,0,133,133,202,432.136657036,9.30088572204e-06,433.287132279,1.15048518474,,,,x,1,1.1338250821,2018_Nov_14_1534,59.9858788674,chinese_cond2,001,1032,
images/bowlingball.jpg,bowling ball,z,sounds/animalfarm_english.wav,,,,,,,,,0,0,0,1,0,134,134,20,434.417192433,9.30088572204e-06,436.52128039,2.10409789905,,,,z,1,2.08408755902,2018_Nov_14_1534,59.9858788674,chinese_cond2,001,1032,
images/lychee02a.jpg,lychee,z,sounds/animalfarm_english.wav,,,,,,,,,0,0,0,1,0,135,135,62,437.645269,8.98016151041e-06,438.538440815,0.893181436229,,,,z,1,0.883769597625,2018_Nov_14_1534,59.9858788674,chinese_cond2,001,1032,
images/lip.jpg,boxing glove,x,sounds/animalfarm_english.wav,,,,,,,,,0,0,0,1,0,136,136,136,439.640020744,8.98016151041e-06,440.588942934,0.94893149042,,,,x,1,0.933793843957,2018_Nov_14_1534,59.9858788674,chinese_cond2,001,1032,
images/beachumbrella01.jpg,beach umbrella,z,sounds/animalfarm_english.wav,,,,,,,,,0,0,0,1,0,137,137,92,441.693831407,8.98016151041e-06,442.789487644,1.09566585894,,,,z,1,1.08382745541,2018_Nov_14_1534,59.9858788674,chinese_cond2,001,1032,
images/lighter02b.jpg,stapler,x,sounds/animalfarm_english.wav,,,,,,,,,0,0,0,1,0,138,138,227,443.889512724,9.62160993367e-06,445.306770263,1.41726684,,,,x,1,1.40057915554,2018_Nov_14_1534,59.9858788674,chinese_cond2,001,1032,
images/hanger02a.jpg,hanger,z,sounds/animalfarm_english.wav,,,,,,,,,0,0,0,1,0,139,139,88,446.398506665,8.98016151041e-06,447.307268662,0.908771297312,,,,z,1,0.900458244141,2018_Nov_14_1534,59.9858788674,chinese_cond2,001,1032,
images/radio03a.jpg,radio,z,sounds/animalfarm_english.wav,,,,,,,,,0,0,0,1,0,140,140,37,448.4198961,8.65943729877e-06,449.324436463,0.904549985426,,,,z,1,0.883788840729,2018_Nov_14_1534,59.9858788674,chinese_cond2,001,1032,
images/beermug01b.jpg,beer mug,z,sounds/animalfarm_english.wav,,,,,,,,,0,0,0,1,0,141,141,111,450.440314395,8.98004509509e-06,451.32492941,0.884624636034,,,,x,0,0.867115267902,2018_Nov_14_1534,59.9858788674,chinese_cond2,001,1032,
images/battery03b.jpg,battery,z,sounds/animalfarm_english.wav,,,,,,,,,0,0,0,1,0,142,142,34,452.432496533,9.30088572204e-06,453.392103497,0.959616906825,,,,z,1,0.9504744726,2018_Nov_14_1534,59.9858788674,chinese_cond2,001,1032,
images/cupcake.jpg,scissors,x,sounds/animalfarm_english.wav,,,,,,,,,0,0,0,1,0,143,143,219,454.509725182,9.30088572204e-06,456.992986503,2.4832709427,,,,x,1,2.46749281907,2018_Nov_14_1534,59.9858788674,chinese_cond2,001,1032,
images/parkfountain.jpg,park fountain,z,sounds/animalfarm_english.wav,,,,,,,,,0,0,0,1,0,144,144,93,458.111587665,9.30076930672e-06,459.260218769,1.14864104672,,,,z,1,1.13383855228,2018_Nov_14_1534,59.9858788674,chinese_cond2,001,1032,
images/triangleruler02.jpg,bottle of red wine,x,sounds/animalfarm_english.wav,,,,,,,,,0,0,0,1,0,145,145,134,460.369735227,9.30088572204e-06,461.327414666,0.957688740222,,,,x,1,0.933808597154,2018_Nov_14_1534,59.9858788674,chinese_cond2,001,1032,
images/cake.jpg,cake,z,sounds/animalfarm_english.wav,,,,,,,,,0,0,0,1,0,146,146,23,462.439671352,8.65943729877e-06,463.561285034,1.12162330328,,,,z,1,1.10051642277,2018_Nov_14_1534,59.9858788674,chinese_cond2,001,1032,
images/cookingpot.jpg,grasshopper,x,sounds/animalfarm_english.wav,,,,,,,,,0,0,0,1,0,147,147,183,464.673525042,9.62160993367e-06,466.962114671,2.28859925049,,,,x,1,2.26746607106,2018_Nov_14_1534,59.9858788674,chinese_cond2,001,1032,
images/showerhead01.jpg,skateboard,x,sounds/animalfarm_english.wav,,,,,,,,,0,0,0,1,0,148,148,223,468.068312643,9.30088572204e-06,469.379378304,1.31107560394,,,,x,1,1.30055407528,2018_Nov_14_1534,59.9858788674,chinese_cond2,001,1032,
images/comb02a.jpg,diploma,x,sounds/animalfarm_english.wav,,,,,,,,,0,0,0,1,0,149,149,166,470.483342142,9.94233414531e-06,472.080052264,1.59672038513,,,,z,0,1.58396536484,2018_Nov_14_1534,59.9858788674,chinese_cond2,001,1032,
images/dryingmachine01.jpg,drying machine,z,sounds/animalfarm_english.wav,,,,,,,,,0,0,0,1,0,150,150,18,473.199900705,8.98016151041e-06,474.614005249,1.41411416593,,,,z,1,1.40057691047,2018_Nov_14_1534,59.9858788674,chinese_cond2,001,1032,
images/lightbulb03b.jpg,treadmill,x,sounds/animalfarm_english.wav,,,,,,,,,0,0,0,1,0,151,151,234,475.715271515,8.98016151041e-06,476.764536939,1.04927536601,,,,x,1,1.03383079078,2018_Nov_14_1534,59.9858788674,chinese_cond2,001,1032,
images/fireextinguisher02.jpg,fire extinguisher,z,sounds/animalfarm_english.wav,,,,,,,,,0,0,0,1,0,152,152,175,477.873723375,9.30088572204e-06,478.798375106,0.924661352066,,,,z,1,0.900468186592,2018_Nov_14_1534,59.9858788674,chinese_cond2,001,1032,
images/floorlamp.jpg,floor lamp,z,sounds/animalfarm_english.wav,,,,,,,,,0,0,0,1,0,153,153,26,479.890081039,9.30076930672e-06,480.782195121,0.892124023521,,,,z,1,0.883788840729,2018_Nov_14_1534,59.9858788674,chinese_cond2,001,1032,
images/bench02.jpg,electric toothbrush,x,sounds/animalfarm_english.wav,,,,,,,,,0,0,0,1,0,154,154,172,481.889444732,9.30088572204e-06,483.149465938,1.26003050688,,,,x,1,1.25057056022,2018_Nov_14_1534,59.9858788674,chinese_cond2,001,1032,
images/orange.jpg,bat,x,sounds/animalfarm_english.wav,,,,,,,,,0,0,0,1,0,155,155,128,484.27280894,9.30076930672e-06,485.283307376,1.01050869981,,,,x,1,1.00048396597,2018_Nov_14_1534,59.9858788674,chinese_cond2,001,1032,
images/peach01.jpg,peach,z,sounds/animalfarm_english.wav,,,,,,,,,0,0,0,1,0,156,156,106,486.410592985,9.94233414531e-06,487.950630022,1.54004697897,,,,z,1,1.51726433833,2018_Nov_14_1534,59.9858788674,chinese_cond2,001,1032,
images/grandpiano.jpg,tulip,x,sounds/animalfarm_english.wav,,,,,,,,,0,0,0,1,0,157,157,236,489.063779912,9.62160993367e-06,490.017797695,0.954028046224,,,,x,1,0.933791278279,2018_Nov_14_1534,59.9858788674,chinese_cond2,001,1032,
images/ceilingfan02.jpg,paper clip,x,sounds/animalfarm_english.wav,,,,,,,,,0,0,0,1,0,158,158,208,491.114891398,9.30088572204e-06,492.585095902,1.47021412535,,,,x,1,1.45058447949,2018_Nov_14_1534,59.9858788674,chinese_cond2,001,1032,
images/highlighter03b.jpg,coin,x,sounds/animalfarm_english.wav,,,,,,,,,0,0,0,1,0,159,159,156,493.68527621,9.30088572204e-06,495.352460946,1.6671946781,,,,x,1,1.65064778947,2018_Nov_14_1534,59.9858788674,chinese_cond2,001,1032,
images/handfan01b.jpg,handfan,z,sounds/animalfarm_english.wav,,,,,,,,,0,0,0,1,0,160,160,69,496.465480303,9.30076930672e-06,498.819989044,2.35451836244,,,,z,1,2.33415042004,2018_Nov_14_1534,59.9858788674,chinese_cond2,001,1032,
images/saltshaker03c.jpg,salt shaker,z,sounds/animalfarm_english.wav,,,,,,,,,0,0,0,1,0,161,161,63,499.929955792,9.30088572204e-06,500.887158642,0.957212150912,,,,z,1,0.933808597038,2018_Nov_14_1534,59.9858788674,chinese_cond2,001,1032,
images/tulip02.jpg,sport shorts,x,sounds/animalfarm_english.wav,,,,,,,,,0,0,0,1,0,162,162,225,501.97990948,9.30088572204e-06,503.304426124,1.32452626503,,,,x,1,1.30056626257,2018_Nov_14_1534,59.9858788674,chinese_cond2,001,1032,
images/swan.jpg,swan,z,sounds/animalfarm_english.wav,,,,,,,,,0,0,0,1,0,163,163,54,504.394851423,9.62160993367e-06,505.688328499,1.29348733858,,,,z,1,1.2838827474,2018_Nov_14_1534,59.9858788674,chinese_cond2,001,1032,
images/doorhandle.jpg,doll,x,sounds/animalfarm_english.wav,,,,,,,,,0,0,0,1,0,164,164,168,506.790319591,8.98016151041e-06,507.755505473,0.96519550425,,,,x,1,0.950457153842,2018_Nov_14_1534,59.9858788674,chinese_cond2,001,1032,
images/flower01.jpg,bus,x,sounds/animalfarm_english.wav,,,,,,,,,0,0,0,1,0,165,165,140,508.86843984,9.62160993367e-06,510.506268465,1.63783888845,,,,x,1,1.61737889948,2018_Nov_14_1534,59.9858788674,chinese_cond2,001,1032,
images/chessknight02b (1).jpg,cockroach,x,sounds/animalfarm_english.wav,,,,,,,,,0,0,0,1,0,166,166,155,511.613803517,9.62149351835e-06,514.273782644,2.6599890698,,,,x,1,2.65088704636,2018_Nov_14_1534,59.9858788674,chinese_cond2,001,1032,
images/tie01.jpg,bench,x,sounds/animalfarm_english.wav,,,,,,,,,0,0,0,1,0,167,167,130,515.371156977,8.98016151041e-06,516.691040184,1.31989282835,,,,z,0,1.30054156715,2018_Nov_14_1534,59.9858788674,chinese_cond2,001,1032,
images/coin01b.jpg,arrow,x,sounds/animalfarm_english.wav,,,,,,,,,0,0,0,1,0,168,168,124,517.792497277,8.98016151041e-06,519.475097723,1.6826103885,,,,z,0,1.66733194608,2018_Nov_14_1534,59.9858788674,chinese_cond2,001,1032,
images/dragonfly02.jpg,dragon fly,z,sounds/animalfarm_english.wav,,,,,,,,,0,0,0,1,0,169,169,29,520.571600981,9.30088572204e-06,521.558916198,0.987325159716,,,,z,1,0.967116935644,2018_Nov_14_1534,59.9858788674,chinese_cond2,001,1032,
images/gamecontroller01.jpg,game controller,z,sounds/animalfarm_english.wav,,,,,,,,,0,0,0,1,0,170,170,112,522.677573486,8.98016151041e-06,523.476055392,0.79849152721,,,,x,0,0.783761836239,2018_Nov_14_1534,59.9858788674,chinese_cond2,001,1032,
images/banana04a.jpg,banana,z,sounds/animalfarm_english.wav,,,,,,,,,0,0,0,1,0,171,171,118,524.581593322,9.94233414531e-06,526.776867967,2.19528490817,,,,z,1,2.18410750781,2018_Nov_14_1534,59.9858788674,chinese_cond2,001,1032,
images/squirrel.jpg,binder,x,sounds/animalfarm_english.wav,,,,,,,,,0,0,0,1,0,172,172,132,527.879250337,9.30076930672e-06,528.944053665,1.06481294986,,,,x,1,1.05047934758,2018_Nov_14_1534,59.9858788674,chinese_cond2,001,1032,
images/parkbench03.jpg,park bench,z,sounds/animalfarm_english.wav,,,,,,,,,0,0,0,1,0,173,173,71,530.048299737,8.65943729877e-06,531.89481871,1.84652859473,,,,z,1,1.8340330366,2018_Nov_14_1534,59.9858788674,chinese_cond2,001,1032,
images/sock03.jpg,sock,z,sounds/animalfarm_english.wav,,,,,,,,,0,0,0,1,0,174,174,90,532.999266835,9.30088572204e-06,534.312062137,1.31280556566,,,,z,1,1.3005556789,2018_Nov_14_1534,59.9858788674,chinese_cond2,001,1032,
images/sportshorts02.jpg,tape,x,sounds/animalfarm_english.wav,,,,,,,,,0,0,0,1,0,175,175,230,535.418364022,9.30088572204e-06,536.462592864,1.04423942626,,,,x,1,1.03382501798,2018_Nov_14_1534,59.9858788674,chinese_cond2,001,1032,
images/crocodile.jpg,triangle ruler,x,sounds/animalfarm_english.wav,,,,,,,,,0,0,0,1,0,176,176,235,537.559022036,9.62160993367e-06,539.16325143,1.60423965706,,,,x,1,1.58395734685,2018_Nov_14_1534,59.9858788674,chinese_cond2,001,1032,
images/tape01a.jpg,tie,x,sounds/animalfarm_english.wav,,,,,,,,,0,0,0,1,0,177,177,232,540.287422851,9.62149351835e-06,542.64745695,2.36004436191,,,,z,0,2.35082238924,2018_Nov_14_1534,59.9858788674,chinese_cond2,001,1032,
images/atm.jpg,atm,z,sounds/animalfarm_english.wav,,,,,,,,,0,0,0,1,0,178,178,96,543.784236501,9.62160993367e-06,544.714635848,0.930408968939,,,,z,1,0.91711674328,2018_Nov_14_1534,59.9858788674,chinese_cond2,001,1032,
images/seagull.jpg,seagull,z,sounds/animalfarm_english.wav,,,,,,,,,0,0,0,1,0,179,179,50,545.820880645,9.30088572204e-06,547.665352144,1.84448144119,,,,z,1,1.83401988726,2018_Nov_14_1534,59.9858788674,chinese_cond2,001,1032,
images/puma.jpg,puma,z,sounds/animalfarm_english.wav,,,,,,,,,0,0,0,1,0,180,180,4,548.76291987,9.62160993367e-06,549.565819368,0.802909761085,,,,z,1,0.783757666824,2018_Nov_14_1534,59.9858788674,chinese_cond2,001,1032,
images/ant.jpg,ant,z,sounds/animalfarm_english.wav,,,,,,,,,0,0,0,1,0,181,181,98,550.65920042,8.98016151041e-06,551.532974149,0.873783670831,,,,z,1,0.850445864489,2018_Nov_14_1534,59.9858788674,chinese_cond2,001,1032,
images/binder03b.jpg,dj mixer,x,sounds/animalfarm_english.wav,,,,,,,,,0,0,0,1,0,182,182,167,552.64432416,9.94233414531e-06,554.283646377,1.63933280052,,,,x,1,1.61729358812,2018_Nov_14_1534,59.9858788674,chinese_cond2,001,1032,
images/computerkeyboard01a.jpg,computer keyboard,z,sounds/animalfarm_english.wav,,,,,,,,,0,0,0,1,0,183,183,61,555.399028797,9.30088572204e-06,556.234140093,0.83512187982,,,,z,1,0.817101284629,2018_Nov_14_1534,59.9858788674,chinese_cond2,001,1032,
images/pipe.jpg,icecube,x,sounds/animalfarm_english.wav,,,,,,,,,0,0,0,1,0,184,184,188,557.34366072,9.30088572204e-06,558.16796665,0.82431555225,,,,z,0,0.800454972894,2018_Nov_14_1534,59.9858788674,chinese_cond2,001,1032,
images/eyedrops.jpg,bicycle,x,sounds/animalfarm_english.wav,,,,,,,,,0,0,0,1,0,185,185,131,559.267162029,9.62160993367e-06,560.601879481,1.33472803619,,,,x,1,1.31722989306,2018_Nov_14_1534,59.9858788674,chinese_cond2,001,1032,
images/hairdryer03a.jpg,hairdryer,z,sounds/animalfarm_english.wav,,,,,,,,,0,0,0,1,0,186,186,119,561.699405514,9.30088572204e-06,562.485687565,0.786291672732,,,,z,1,0.767100771307,2018_Nov_14_1534,59.9858788674,chinese_cond2,001,1032,
,,,sounds/animalfarm_english.wav,,,,,,,,,0,0,0,1,,,,,,,,,,,,,,,2018_Nov_14_1534,59.9858788674,chinese_cond2,001,1032,
images/bicycle.jpg,hand bag,x,sounds/greatgatsby_chinese.wav,,,,,,,,,0,1,1,0,0,0,0,186,583.619945298,9.62160993367e-06,586.124845253,2.50491085916,,,573.488533631,x,1,2.48418210726,2018_Nov_14_1534,59.9858788674,chinese_cond2,001,1032,
images/elbow.jpg,elbow,z,sounds/greatgatsby_chinese.wav,,,,,,,,,0,1,1,0,0,1,1,105,587.234225084,8.98016151041e-06,588.792154748,1.55793928646,,,,x,0,1.53394015634,2018_Nov_14_1534,59.9858788674,chinese_cond2,001,1032,
images/magnifyingglass01b.jpg,magnifying glass,z,sounds/greatgatsby_chinese.wav,,,,,,,,,0,1,1,0,0,2,2,64,589.896844054,9.30088572204e-06,590.926030184,1.02919607132,,,,z,1,1.01715401083,2018_Nov_14_1534,59.9858788674,chinese_cond2,001,1032,
images/graduationcap.jpg,graduation cap,z,sounds/greatgatsby_chinese.wav,,,,,,,,,0,1,1,0,0,3,3,35,592.025957124,8.98016151041e-06,592.87649311,0.850545287598,,,,z,1,0.833758821362,2018_Nov_14_1534,59.9858788674,chinese_cond2,001,1032,
images/comb02a.jpg,diploma,x,sounds/greatgatsby_chinese.wav,,,,,,,,,0,1,1,0,0,4,4,166,593.978727628,9.30088572204e-06,594.94371723,0.964999223826,,,,x,1,0.950496602221,2018_Nov_14_1534,59.9858788674,chinese_cond2,001,1032,
images/aquarium.jpg,computer mouse,x,sounds/greatgatsby_chinese.wav,,,,,,,,,0,1,1,0,0,5,5,159,596.078067331,8.98016151041e-06,597.477649689,1.39959198039,,,,x,1,1.38391809084,2018_Nov_14_1534,59.9858788674,chinese_cond2,001,1032,
images/marker01a.jpg,marker,z,sounds/greatgatsby_chinese.wav,,,,,,,,,0,1,1,0,0,6,6,95,598.574334795,8.98016151041e-06,599.411446741,0.83712124615,,,,z,1,0.81710032234,2018_Nov_14_1534,59.9858788674,chinese_cond2,001,1032,
images/50dollarbill.jpg,cherry,x,sounds/greatgatsby_chinese.wav,,,,,,,,,0,1,1,0,0,7,7,151,600.530997233,8.98016151041e-06,601.511955466,0.980967534124,,,,z,0,0.967121746391,2018_Nov_14_1534,59.9858788674,chinese_cond2,001,1032,
images/paintbrush03a.jpg,paint brush,z,sounds/greatgatsby_chinese.wav,,,,,,,,,0,1,1,0,0,8,8,0,602.609942373,9.62160993367e-06,603.729193313,1.11926088238,,,,z,1,1.10051963001,2018_Nov_14_1534,59.9858788674,chinese_cond2,001,1032,
images/bowlingball.jpg,bowling ball,z,sounds/greatgatsby_chinese.wav,,,,,,,,,0,1,1,0,0,9,9,20,604.859120689,9.62160993367e-06,605.712998575,0.853886865545,,,,z,1,0.833764915122,2018_Nov_14_1534,59.9858788674,chinese_cond2,001,1032,
images/umbrella01.jpg,umbrella,z,sounds/greatgatsby_chinese.wav,,,,,,,,,0,1,1,0,0,10,10,53,606.824562186,9.30076930672e-06,607.896875164,1.07232227956,,,,z,1,1.0504918556,2018_Nov_14_1534,59.9858788674,chinese_cond2,001,1032,
images/bullet (2).jpg,rubber glove,x,sounds/greatgatsby_chinese.wav,,,,,,,,,0,1,1,0,0,11,11,217,609.000343491,9.62160993367e-06,609.980718976,0.980385428062,,,,x,1,0.967135537416,2018_Nov_14_1534,59.9858788674,chinese_cond2,001,1032,
images/candle08a.jpg,screw driver,x,sounds/greatgatsby_chinese.wav,,,,,,,,,0,1,1,0,0,12,12,221,611.092246025,8.98016151041e-06,612.197930524,1.10569380003,,,,x,1,1.08382777614,2018_Nov_14_1534,59.9858788674,chinese_cond2,001,1032,
images/apple06.jpg,apple,z,sounds/greatgatsby_chinese.wav,,,,,,,,,0,1,1,0,0,13,13,13,613.323604196,9.30088572204e-06,614.098405125,0.774810230127,,,,z,1,0.750407634652,2018_Nov_14_1534,59.9858788674,chinese_cond2,001,1032,
images/egg01b (1).jpg,egg,z,sounds/greatgatsby_chinese.wav,,,,,,,,,0,1,1,0,0,14,14,19,615.209226591,8.98016151041e-06,616.032225268,0.823008298874,,,,z,1,0.800440540421,2018_Nov_14_1534,59.9858788674,chinese_cond2,001,1032,
images/daisy.jpg,daisy,z,sounds/greatgatsby_chinese.wav,,,,,,,,,0,1,1,0,0,15,15,6,617.132850736,9.30088572204e-06,618.699837523,1.56699640921,,,,x,0,1.55090398039,2018_Nov_14_1534,59.9858788674,chinese_cond2,001,1032,
images/cake.jpg,cake,z,sounds/greatgatsby_chinese.wav,,,,,,,,,0,1,1,0,0,16,16,23,619.811453732,8.98016151041e-06,620.600015459,0.788571668672,,,,z,1,0.767096922733,2018_Nov_14_1534,59.9858788674,chinese_cond2,001,1032,
images/mushroom01.jpg,shower head,x,sounds/greatgatsby_chinese.wav,,,,,,,,,0,1,1,0,0,17,17,222,621.714931873,8.98016151041e-06,622.617171394,0.902249142644,,,,x,1,0.883785633487,2018_Nov_14_1534,59.9858788674,chinese_cond2,001,1032,
images/broadsword.jpg,teapot,x,sounds/greatgatsby_chinese.wav,,,,,,,,,0,1,1,0,0,18,18,231,623.708325689,8.98016151041e-06,624.667518605,0.959202857688,,,,x,1,0.950302887592,2018_Nov_14_1534,59.9858788674,chinese_cond2,001,1032,
images/leek.jpg,donut,x,sounds/greatgatsby_chinese.wav,,,,,,,,,0,1,1,0,0,19,19,169,625.766322705,8.98016151041e-06,626.701536055,0.935222649947,,,,z,0,0.917146249441,2018_Nov_14_1534,59.9858788674,chinese_cond2,001,1032,
images/volleyball.jpg,volley ball,z,sounds/greatgatsby_chinese.wav,,,,,,,,,0,1,1,0,0,20,20,2,627.832262023,9.30076930672e-06,630.26906133,2.43680892931,,,,z,1,2.41748974018,2018_Nov_14_1534,59.9858788674,chinese_cond2,001,1032,
images/table02.jpg,table,z,sounds/greatgatsby_chinese.wav,,,,,,,,,0,1,1,0,0,21,21,49,631.38192578,8.98016151041e-06,632.236224771,0.854308291106,,,,z,1,0.833782875445,2018_Nov_14_1534,59.9858788674,chinese_cond2,001,1032,
images/swallow.jpg,mattress,x,sounds/greatgatsby_chinese.wav,,,,,,,,,0,1,1,0,0,22,22,202,633.335804692,9.62160993367e-06,634.420096549,1.08430179977,,,,z,0,1.06717184279,2018_Nov_14_1534,59.9858788674,chinese_cond2,001,1032,
images/flamingo.jpg,flamingo,z,sounds/greatgatsby_chinese.wav,,,,,,,,,0,1,1,0,0,23,23,52,635.516477613,9.30088572204e-06,637.470979683,1.95451169158,,,,z,1,1.93418415985,2018_Nov_14_1534,59.9858788674,chinese_cond2,001,1032,
images/notebook02b.jpg,notebook,z,sounds/greatgatsby_chinese.wav,,,,,,,,,0,1,1,0,0,24,24,7,638.575933903,8.98016151041e-06,639.421320736,0.84539645433,,,,z,1,0.833774215891,2018_Nov_14_1534,59.9858788674,chinese_cond2,001,1032,
images/dice05a.jpg,band aid,x,sounds/greatgatsby_chinese.wav,,,,,,,,,0,1,1,0,0,25,25,126,640.532794546,9.30088572204e-06,642.088639533,1.55585492949,,,,x,1,1.53393598692,2018_Nov_14_1534,59.9858788674,chinese_cond2,001,1032,
images/cat.jpg,black olive,x,sounds/greatgatsby_chinese.wav,,,,,,,,,0,1,1,0,0,26,26,133,643.219114378,8.98016151041e-06,644.355864423,1.13675934612,,,,x,1,1.11717107322,2018_Nov_14_1534,59.9858788674,chinese_cond2,001,1032,
images/lily.jpg,kiwi,x,sounds/greatgatsby_chinese.wav,,,,,,,,,0,1,1,0,0,27,27,190,645.453404888,9.30088572204e-06,646.773139281,1.31974401441,,,,z,0,1.30056754546,2018_Nov_14_1534,59.9858788674,chinese_cond2,001,1032,
images/triangleruler02.jpg,bottle of red wine,x,sounds/greatgatsby_chinese.wav,,,,,,,,,0,1,1,0,0,28,28,134,647.882042522,9.94233414531e-06,648.706952689,0.824920429499,,,,z,0,0.800439899089,2018_Nov_14_1534,59.9858788674,chinese_cond2,001,1032,
images/binder03b.jpg,dj mixer,x,sounds/greatgatsby_chinese.wav,,,,,,,,,0,1,1,0,0,29,29,167,649.819088143,9.30088572204e-06,651.290911318,1.47183311812,,,,x,1,1.45059153531,2018_Nov_14_1534,59.9858788674,chinese_cond2,001,1032,
images/pictureframe04.jpg,picture frame,z,sounds/greatgatsby_chinese.wav,,,,,,,,,0,1,1,0,0,30,30,41,652.411044558,1.02629419416e-05,653.44144397,1.03040999512,,,,z,1,1.01714727574,2018_Nov_14_1534,59.9858788674,chinese_cond2,001,1032,
images/licenseplate.jpg,license plate,z,sounds/greatgatsby_chinese.wav,,,,,,,,,0,1,1,0,0,31,31,40,654.558451476,9.62160993367e-06,655.608649873,1.05020898092,,,,z,1,1.03382405569,2018_Nov_14_1534,59.9858788674,chinese_cond2,001,1032,
images/antelope.jpg,antelope,z,sounds/greatgatsby_chinese.wav,,,,,,,,,0,1,1,0,0,32,32,12,656.712691325,9.62160993367e-06,657.975895032,1.26321300783,,,,x,0,1.25054650626,2018_Nov_14_1534,59.9858788674,chinese_cond2,001,1032,
images/spoon02b.jpg,spoon,z,sounds/greatgatsby_chinese.wav,,,,,,,,,0,1,1,0,0,33,33,38,659.065814557,8.98016151041e-06,660.076415945,1.01061133016,,,,z,1,1.00048653176,2018_Nov_14_1534,59.9858788674,chinese_cond2,001,1032,
images/baseball01a.jpg,baseball,z,sounds/greatgatsby_chinese.wav,,,,,,,,,0,1,1,0,0,34,34,74,661.208643843,9.23671759665e-05,662.760413446,1.55184144387,,,,z,1,1.53395074001,2018_Nov_14_1534,59.9858788674,chinese_cond2,001,1032,
images/broom02.jpg,broom,z,sounds/greatgatsby_chinese.wav,,,,,,,,,0,1,1,0,0,35,35,116,663.853860246,9.30088572204e-06,665.377724994,1.52387469099,,,,z,1,1.50060455652,2018_Nov_14_1534,59.9858788674,chinese_cond2,001,1032,
images/gamecontroller01.jpg,game controller,z,sounds/greatgatsby_chinese.wav,,,,,,,,,0,1,1,0,0,36,36,112,666.495893185,8.98016151041e-06,667.311528781,0.815645217313,,,,z,1,0.800432522548,2018_Nov_14_1534,59.9858788674,chinese_cond2,001,1032,
images/feather03b.jpg,feather,z,sounds/greatgatsby_chinese.wav,,,,,,,,,0,1,1,0,0,37,37,114,668.412292158,9.30088572204e-06,669.345383626,0.933101089555,,,,z,1,0.917145607993,2018_Nov_14_1534,59.9858788674,chinese_cond2,001,1032,
images/seagull.jpg,seagull,z,sounds/greatgatsby_chinese.wav,,,,,,,,,0,1,1,0,0,38,38,50,670.452546642,8.98016151041e-06,671.795965539,1.34342851862,,,,z,1,1.333894165,2018_Nov_14_1534,59.9858788674,chinese_cond2,001,1032,
images/lipstick04.jpg,lipstick,z,sounds/greatgatsby_chinese.wav,,,,,,,,,0,1,1,0,0,39,39,56,672.89558972,8.98004509509e-06,673.863146683,0.967566584586,,,,z,1,0.950468058232,2018_Nov_14_1534,59.9858788674,chinese_cond2,001,1032,
images/shotglass.jpg,shot glass,z,sounds/greatgatsby_chinese.wav,,,,,,,,,0,1,1,0,0,40,40,86,674.971794311,9.62160993367e-06,675.796956884,0.82517251512,,,,z,1,0.817108340329,2018_Nov_14_1534,59.9858788674,chinese_cond2,001,1032,
images/redfox.jpg,red fox,z,sounds/greatgatsby_chinese.wav,,,,,,,,,0,1,1,0,0,41,41,1,676.909949621,8.98016151041e-06,677.84752026,0.937588278088,,,,z,1,0.917147852946,2018_Nov_14_1534,59.9858788674,chinese_cond2,001,1032,
images/pipe.jpg,icecube,x,sounds/greatgatsby_chinese.wav,,,,,,,,,0,1,1,0,0,42,42,188,678.956001755,9.30088572204e-06,680.448347139,1.49235532666,,,,x,1,1.48418018292,2018_Nov_14_1534,59.9858788674,chinese_cond2,001,1032,
images/belt02a.jpg,snowman,x,sounds/greatgatsby_chinese.wav,,,,,,,,,0,1,1,0,0,43,43,224,681.551422584,9.94221772999e-06,682.815377416,1.26396477467,,,,x,1,1.25057184312,2018_Nov_14_1534,59.9858788674,chinese_cond2,001,1032,
images/hairpin.jpg,hair pin,z,sounds/greatgatsby_chinese.wav,,,,,,,,,0,1,1,0,0,44,44,28,683.906199447,9.62160993367e-06,684.765842267,0.859654046129,,,,z,1,0.850452920306,2018_Nov_14_1534,59.9858788674,chinese_cond2,001,1032,
images/handbag02a.jpg,candle,x,sounds/greatgatsby_chinese.wav,,,,,,,,,0,1,1,0,0,45,45,144,685.881776966,8.98016151041e-06,687.116422193,1.234654848,,,,x,1,1.21721154789,2018_Nov_14_1534,59.9858788674,chinese_cond2,001,1032,
images/bull.jpg,button,x,sounds/greatgatsby_chinese.wav,,,,,,,,,0,1,1,0,0,46,46,141,688.222316122,9.30088572204e-06,689.96712335,1.74481684982,,,,x,1,1.7340002592,2018_Nov_14_1534,59.9858788674,chinese_cond2,001,1032,
images/panda.jpg,panda,z,sounds/greatgatsby_chinese.wav,,,,,,,,,0,1,1,0,0,47,47,83,691.076753663,7.02375546098e-05,692.151007958,1.07427738653,,,,z,1,1.05051141954,2018_Nov_14_1534,59.9858788674,chinese_cond2,001,1032,
images/electricguitar02.jpg,electric guitar,z,sounds/greatgatsby_chinese.wav,,,,,,,,,0,1,1,0,0,48,48,100,693.252945489,9.62160993367e-06,694.084816234,0.831880687154,,,,z,1,0.817082682741,2018_Nov_14_1534,59.9858788674,chinese_cond2,001,1032,
images/squirrel.jpg,binder,x,sounds/greatgatsby_chinese.wav,,,,,,,,,0,1,1,0,0,49,49,132,695.187733243,8.98016151041e-06,696.468720854,1.28099723288,,,,z,0,1.26721526834,2018_Nov_14_1534,59.9858788674,chinese_cond2,001,1032,
images/envelope02a.jpg,grand piano,x,sounds/greatgatsby_chinese.wav,,,,,,,,,0,1,1,0,0,50,50,182,697.591510936,9.30088572204e-06,698.885982563,1.29448156955,,,,x,1,1.28387857811,2018_Nov_14_1534,59.9858788674,chinese_cond2,001,1032,
images/button07.jpg,radish,x,sounds/greatgatsby_chinese.wav,,,,,,,,,0,1,1,0,0,51,51,215,699.998349577,8.98016151041e-06,700.969830545,0.971490589436,,,,z,0,0.95045747445,2018_Nov_14_1534,59.9858788674,chinese_cond2,001,1032,
images/remotecontrol01c.jpg,remote control,z,sounds/greatgatsby_chinese.wav,,,,,,,,,0,1,1,0,0,52,52,85,702.079837382,9.62160993367e-06,702.970328301,0.890501823626,,,,z,1,0.86711590935,2018_Nov_14_1534,59.9858788674,chinese_cond2,001,1032,
images/banana04a.jpg,banana,z,sounds/greatgatsby_chinese.wav,,,,,,,,,0,1,1,0,0,53,53,118,704.075494838,9.62160993367e-06,705.154194949,1.07870941143,,,,z,1,1.06713720516,2018_Nov_14_1534,59.9858788674,chinese_cond2,001,1032,
images/ostrich.jpg,ostrich,z,sounds/greatgatsby_chinese.wav,,,,,,,,,0,1,1,0,0,54,54,76,706.254402198,9.30076930672e-06,707.271398415,1.01700583834,,,,z,1,1.00048685237,2018_Nov_14_1534,59.9858788674,chinese_cond2,001,1032,
images/cigar.jpg,crocodile,x,sounds/greatgatsby_chinese.wav,,,,,,,,,0,1,1,0,0,55,55,162,708.369675573,9.62160993367e-06,709.438584754,1.06891944422,,,,z,0,1.05048736557,2018_Nov_14_1534,59.9858788674,chinese_cond2,001,1032,
images/donut.jpg,rhinoceros,x,sounds/greatgatsby_chinese.wav,,,,,,,,,0,1,1,0,0,56,56,216,710.56428248,8.98016151041e-06,712.072568592,1.5082957343,,,,x,1,1.48392777657,2018_Nov_14_1534,59.9858788674,chinese_cond2,001,1032,
images/cactus.jpg,cactus,z,sounds/greatgatsby_chinese.wav,,,,,,,,,0,1,1,0,0,57,57,70,713.184314051,8.98016151041e-06,714.389809069,1.20550463954,,,,z,1,1.18381982227,2018_Nov_14_1534,59.9858788674,chinese_cond2,001,1032,
images/plate01b.jpg,plate,z,sounds/greatgatsby_chinese.wav,,,,,,,,,0,1,1,0,0,58,58,3,715.489300151,9.62160993367e-06,716.540339475,1.05104958708,,,,z,1,1.03382565943,2018_Nov_14_1534,59.9858788674,chinese_cond2,001,1032,
images/sunglasses03a.jpg,sun glasses,z,sounds/greatgatsby_chinese.wav,,,,,,,,,0,1,1,0,0,59,59,17,717.649534251,8.98016151041e-06,718.957611447,1.30808649678,,,,z,1,1.28389878338,2018_Nov_14_1534,59.9858788674,chinese_cond2,001,1032,
images/ceilingfan02.jpg,paper clip,x,sounds/greatgatsby_chinese.wav,,,,,,,,,0,1,1,0,0,60,60,208,720.056462052,9.30088572204e-06,721.191483418,1.13503098791,,,,x,1,1.11717011104,2018_Nov_14_1534,59.9858788674,chinese_cond2,001,1032,
images/swan.jpg,swan,z,sounds/greatgatsby_chinese.wav,,,,,,,,,0,1,1,0,0,61,61,54,722.283664658,9.62160993367e-06,723.725536468,1.44188143127,,,,z,1,1.43401065038,2018_Nov_14_1534,59.9858788674,chinese_cond2,001,1032,
images/paperclip04.jpg,eye drops,x,sounds/greatgatsby_chinese.wav,,,,,,,,,0,1,1,0,0,62,62,174,724.830350534,9.30088572204e-06,725.759280023,0.928939110832,,,,x,1,0.917129572015,2018_Nov_14_1534,59.9858788674,chinese_cond2,001,1032,
images/tie01.jpg,bench,x,sounds/greatgatsby_chinese.wav,,,,,,,,,0,1,1,0,0,63,63,130,726.857510035,8.98016151041e-06,728.243218704,1.38571829023,,,,x,1,1.36723297206,2018_Nov_14_1534,59.9858788674,chinese_cond2,001,1032,
images/cocktailshrimp01.jpg,cocktail shrimp,z,sounds/greatgatsby_chinese.wav,,,,,,,,,0,1,1,0,0,64,64,30,729.358040826,8.98004509509e-06,730.277069379,0.919037853833,,,,z,1,0.900464337901,2018_Nov_14_1534,59.9858788674,chinese_cond2,001,1032,
images/gluestick.jpg,squirrel,x,sounds/greatgatsby_chinese.wav,,,,,,,,,0,1,1,0,0,65,65,226,731.384573962,4.16935654357e-05,733.277798375,1.89324590086,,,,x,1,1.88403579488,2018_Nov_14_1534,59.9858788674,chinese_cond2,001,1032,
images/weight01.jpg,weight,z,sounds/greatgatsby_chinese.wav,,,,,,,,,0,1,1,0,0,66,66,67,734.382360035,8.98016151041e-06,735.945136736,1.56278600171,,,,z,1,1.55060186237,2018_Nov_14_1534,59.9858788674,chinese_cond2,001,1032,
images/printer03a.jpg,printer,z,sounds/greatgatsby_chinese.wav,,,,,,,,,0,1,1,0,0,67,67,72,737.054047354,9.62149351835e-06,737.845601715,0.791564303567,,,,z,1,0.767101412755,2018_Nov_14_1534,59.9858788674,chinese_cond2,001,1032,
images/djmixer01.jpg,light bulb,x,sounds/greatgatsby_chinese.wav,,,,,,,,,0,1,1,0,0,68,68,196,738.967730472,9.94233414531e-06,739.946099215,0.978378364583,,,,x,1,0.967132009566,2018_Nov_14_1534,59.9858788674,chinese_cond2,001,1032,
images/computerkeyboard01a.jpg,computer keyboard,z,sounds/greatgatsby_chinese.wav,,,,,,,,,0,1,1,0,0,69,69,61,741.063202617,8.98016151041e-06,742.113337832,1.05014515773,,,,z,1,1.03384458181,2018_Nov_14_1534,59.9858788674,chinese_cond2,001,1032,
images/toothbrush03a.jpg,parrot,x,sounds/greatgatsby_chinese.wav,,,,,,,,,0,1,1,0,0,70,70,210,743.205810285,9.30088572204e-06,744.130505634,0.924705290701,,,,x,1,0.900480694603,2018_Nov_14_1534,59.9858788674,chinese_cond2,001,1032,
images/tank.jpg,wallet,x,sounds/greatgatsby_chinese.wav,,,,,,,,,0,1,1,0,0,71,71,237,745.23531072,9.30088572204e-06,746.097622249,0.862321471446,,,,x,1,0.850435922155,2018_Nov_14_1534,59.9858788674,chinese_cond2,001,1032,
images/parkingmeter.jpg,ear,x,sounds/greatgatsby_chinese.wav,,,,,,,,,0,1,1,0,0,72,72,171,747.199789415,8.98016151041e-06,748.564982611,1.36520249606,,,,x,1,1.35064278636,2018_Nov_14_1534,59.9858788674,chinese_cond2,001,1032,
images/parkbench03.jpg,park bench,z,sounds/greatgatsby_chinese.wav,,,,,,,,,0,1,1,0,0,73,73,71,749.670049724,9.30088572204e-06,750.598735787,0.928695684532,,,,z,1,0.917124440544,2018_Nov_14_1534,59.9858788674,chinese_cond2,001,1032,
images/lollipop03b.jpg,lollipop,z,sounds/greatgatsby_chinese.wav,,,,,,,,,0,1,1,0,0,74,74,42,751.691642816,9.30088572204e-06,752.682623217,0.990990343736,,,,z,1,0.967171778786,2018_Nov_14_1534,59.9858788674,chinese_cond2,001,1032,
images/doll.jpg,carrot,x,sounds/greatgatsby_chinese.wav,,,,,,,,,0,1,1,0,0,75,75,146,753.794065596,9.30088572204e-06,754.933275561,1.1392195865,,,,x,1,1.11729839887,2018_Nov_14_1534,59.9858788674,chinese_cond2,001,1032,
images/floorlamp.jpg,floor lamp,z,sounds/greatgatsby_chinese.wav,,,,,,,,,0,1,1,0,0,76,76,26,756.02620953,9.30088572204e-06,756.733590379,0.707390471129,,,,z,1,0.683739963104,2018_Nov_14_1534,59.9858788674,chinese_cond2,001,1032,
images/corkscrew02a.jpg,masquerade mask,x,sounds/greatgatsby_chinese.wav,,,,,,,,,0,1,1,0,0,77,77,201,757.837424647,8.98016151041e-06,759.28420924,1.44679389405,,,,x,1,1.43391571753,2018_Nov_14_1534,59.9858788674,chinese_cond2,001,1032,
images/teapot.jpg,light switch,x,sounds/greatgatsby_chinese.wav,,,,,,,,,0,1,1,0,0,78,78,197,760.400682427,9.30088572204e-06,761.351390384,0.950717578176,,,,x,1,0.933798975428,2018_Nov_14_1534,59.9858788674,chinese_cond2,001,1032,
images/atm.jpg,atm,z,sounds/greatgatsby_chinese.wav,,,,,,,,,0,1,1,0,0,79,79,96,762.488200083,9.30088572204e-06,763.168508025,0.680317884427,,,,z,1,0.66705901362,2018_Nov_14_1534,59.9858788674,chinese_cond2,001,1032,
images/battery03b.jpg,battery,z,sounds/greatgatsby_chinese.wav,,,,,,,,,0,1,1,0,0,80,80,34,764.277459695,8.98004509509e-06,765.302656072,1.02522331697,,,,z,1,1.000689868,2018_Nov_14_1534,59.9858788674,chinese_cond2,001,1032,
images/giraffe.jpg,lettuce,x,sounds/greatgatsby_chinese.wav,,,,,,,,,0,1,1,0,0,81,81,195,766.403890265,8.98016151041e-06,768.253100717,1.84922007401,,,,x,1,1.83402886742,2018_Nov_14_1534,59.9858788674,chinese_cond2,001,1032,
images/parkfountain.jpg,park fountain,z,sounds/greatgatsby_chinese.wav,,,,,,,,,0,1,1,0,0,82,82,93,769.373102783,9.30088572204e-06,770.15355383,0.780460668844,,,,z,1,0.767081528204,2018_Nov_14_1534,59.9858788674,chinese_cond2,001,1032,
images/razor04a.jpg,razor,z,sounds/greatgatsby_chinese.wav,,,,,,,,,0,1,1,0,0,83,83,36,771.253690842,8.98004509509e-06,773.354193794,2.1005128948,,,,x,0,2.0839223885,2018_Nov_14_1534,59.9858788674,chinese_cond2,001,1032,
images/mattress.jpg,cat,x,sounds/greatgatsby_chinese.wav,,,,,,,,,0,1,1,0,0,84,84,147,774.458331462,9.62160993367e-06,775.288168524,0.829846362467,,,,x,1,0.817109623225,2018_Nov_14_1534,59.9858788674,chinese_cond2,001,1032,
images/boxingglove02a.jpg,bracelet,x,sounds/greatgatsby_chinese.wav,,,,,,,,,0,1,1,0,0,85,85,135,776.399207117,9.30088572204e-06,777.772106884,1.37290938897,,,,x,1,1.35055298475,2018_Nov_14_1534,59.9858788674,chinese_cond2,001,1032,
images/nailclipper03a.jpg,aquarium,x,sounds/greatgatsby_chinese.wav,,,,,,,,,0,1,1,0,0,86,86,123,778.873227864,9.30088572204e-06,780.056005668,1.18278774654,,,,z,0,1.16718441504,2018_Nov_14_1534,59.9858788674,chinese_cond2,001,1032,
images/coffeepot03b.jpg,coffee pot,z,sounds/greatgatsby_chinese.wav,,,,,,,,,0,1,1,0,0,87,87,107,781.177651421,9.30088572204e-06,781.873121385,0.695479584858,,,,z,1,0.683737076586,2018_Nov_14_1534,59.9858788674,chinese_cond2,001,1032,
images/fireextinguisher02.jpg,fire extinguisher,z,sounds/greatgatsby_chinese.wav,,,,,,,,,0,1,1,0,0,88,88,175,782.983360103,9.62160993367e-06,783.77359342,0.790242938674,,,,z,1,0.767093715491,2018_Nov_14_1534,59.9858788674,chinese_cond2,001,1032,
images/axe01.jpg,axe,z,sounds/greatgatsby_chinese.wav,,,,,,,,,0,1,1,0,0,89,89,104,784.876042178,9.62160993367e-06,786.624291049,1.74825881305,,,,z,1,1.7340018627,2018_Nov_14_1534,59.9858788674,chinese_cond2,001,1032,
images/hammer02a.jpg,flower,x,sounds/greatgatsby_chinese.wav,,,,,,,,,0,1,1,0,0,90,90,176,787.719965567,9.62160993367e-06,788.808179185,1.08822388027,,,,x,1,1.06717633293,2018_Nov_14_1534,59.9858788674,chinese_cond2,001,1032,
images/ant.jpg,ant,z,sounds/greatgatsby_chinese.wav,,,,,,,,,0,1,1,0,0,91,91,98,789.902733429,9.30076930672e-06,790.608645062,0.705921574961,,,,z,1,0.683775563026,2018_Nov_14_1534,59.9858788674,chinese_cond2,001,1032,
images/bench02.jpg,electric toothbrush,x,sounds/greatgatsby_chinese.wav,,,,,,,,,0,1,1,0,0,92,92,172,791.717951448,9.30088572204e-06,792.725795609,1.00785410334,,,,x,1,0.983806544566,2018_Nov_14_1534,59.9858788674,chinese_cond2,001,1032,
images/puma.jpg,puma,z,sounds/greatgatsby_chinese.wav,,,,,,,,,0,1,1,0,0,93,93,4,793.824511512,9.30088572204e-06,794.576250774,0.751748563489,,,,z,1,0.733748494182,2018_Nov_14_1534,59.9858788674,chinese_cond2,001,1032,
images/grandpiano.jpg,tulip,x,sounds/greatgatsby_chinese.wav,,,,,,,,,0,1,1,0,0,94,94,236,795.691147945,8.98004509509e-06,796.460289777,0.769151452696,,,,x,1,0.750662606792,2018_Nov_14_1534,59.9858788674,chinese_cond2,001,1032,
images/bandaid01.jpg,door handle,x,sounds/greatgatsby_chinese.wav,,,,,,,,,0,1,1,0,0,95,95,170,797.567520465,8.98016151041e-06,799.210735256,1.64322441269,,,,x,1,1.63397549954,2018_Nov_14_1534,59.9858788674,chinese_cond2,001,1032,
images/raisin.jpg,ruler,x,sounds/greatgatsby_chinese.wav,,,,,,,,,0,1,1,0,0,96,96,218,800.31595407,9.30088572204e-06,801.261251166,0.945307037677,,,,x,1,0.933809879934,2018_Nov_14_1534,59.9858788674,chinese_cond2,001,1032,
images/desktopcomputer.jpg,desktop computer,z,sounds/greatgatsby_chinese.wav,,,,,,,,,0,1,1,0,0,97,97,16,802.396956306,9.30088572204e-06,803.178368871,0.781421865686,,,,z,1,0.7670828111,2018_Nov_14_1534,59.9858788674,chinese_cond2,001,1032,
images/icecube02 (2).jpg,aloe,x,sounds/greatgatsby_chinese.wav,,,,,,,,,0,1,1,0,0,98,98,122,804.289145757,9.30088572204e-06,807.279234558,2.99009970529,,,,None,0,,2018_Nov_14_1534,59.9858788674,chinese_cond2,001,1032,
images/cherry01.jpg,highlighter,x,sounds/greatgatsby_chinese.wav,,,,,,,,,0,1,1,0,0,99,99,187,808.388626897,9.30088572204e-06,809.346552007,0.957936015213,,,,x,1,0.933787108865,2018_Nov_14_1534,59.9858788674,chinese_cond2,001,1032,
images/dryingmachine01.jpg,drying machine,z,sounds/greatgatsby_chinese.wav,,,,,,,,,0,1,1,0,0,100,100,18,810.46840687,8.98016151041e-06,812.130579399,1.6621824716,,,,z,1,1.65061988693,2018_Nov_14_1534,59.9858788674,chinese_cond2,001,1032,
images/chessknight02b (1).jpg,cockroach,x,sounds/greatgatsby_chinese.wav,,,,,,,,,0,1,1,0,0,101,101,155,813.239172505,9.62160993367e-06,814.781231679,1.54206911637,,,,x,1,1.53394977783,2018_Nov_14_1534,59.9858788674,chinese_cond2,001,1032,
images/bowtie.jpg,bowtie,z,sounds/greatgatsby_chinese.wav,,,,,,,,,0,1,1,0,0,102,102,89,815.892022355,9.62160993367e-06,818.148735338,2.25672324584,,,,z,1,2.23412309482,2018_Nov_14_1534,59.9858788674,chinese_cond2,001,1032,
images/acousticguitar02.jpg,acoustic guitar,z,sounds/greatgatsby_chinese.wav,,,,,,,,,0,1,1,0,0,103,103,97,819.261448088,8.98016151041e-06,820.465972287,1.20453446265,,,,z,1,1.18386311934,2018_Nov_14_1534,59.9858788674,chinese_cond2,001,1032,
images/safe.jpg,safe,z,sounds/greatgatsby_chinese.wav,,,,,,,,,0,1,1,0,0,104,104,78,821.576940001,9.62160993367e-06,823.116623925,1.53969386662,,,,x,0,1.51727107342,2018_Nov_14_1534,59.9858788674,chinese_cond2,001,1032,
images/pouch01b.jpg,pouch,z,sounds/greatgatsby_chinese.wav,,,,,,,,,0,1,1,0,0,105,105,25,824.22953071,9.62149351835e-06,826.15071482,1.92119373125,,,,x,0,1.90070487768,2018_Nov_14_1534,59.9858788674,chinese_cond2,001,1032,
images/blackolive.jpg,tank,x,sounds/greatgatsby_chinese.wav,,,,,,,,,0,1,1,0,0,106,106,229,827.26564278,9.30088572204e-06,828.134518799,0.868886281853,,,,x,1,0.850433356361,2018_Nov_14_1534,59.9858788674,chinese_cond2,001,1032,
images/flipflop01b.jpg,flip flop,z,sounds/greatgatsby_chinese.wav,,,,,,,,,0,1,1,0,0,107,107,27,829.251734452,8.98016151041e-06,830.168650424,0.916925915051,,,,z,1,0.900629829266,2018_Nov_14_1534,59.9858788674,chinese_cond2,001,1032,
images/dresser02.jpg,dresser,z,sounds/greatgatsby_chinese.wav,,,,,,,,,0,1,1,0,0,108,108,87,831.290344607,9.94233414531e-06,832.6356426,1.3453088979,,,,z,1,1.33390090009,2018_Nov_14_1534,59.9858788674,chinese_cond2,001,1032,
images/crocodile.jpg,triangle ruler,x,sounds/greatgatsby_chinese.wav,,,,,,,,,0,1,1,0,0,109,109,235,833.733069851,9.30076930672e-06,834.802842089,1.06978185929,,,,x,1,1.05049666646,2018_Nov_14_1534,59.9858788674,chinese_cond2,001,1032,
images/apricot.jpg,apricot,z,sounds/greatgatsby_chinese.wav,,,,,,,,,0,1,1,0,0,110,110,32,835.920417269,8.65943729877e-06,837.687002644,1.76661039109,,,,x,0,1.7506763977,2018_Nov_14_1534,59.9858788674,chinese_cond2,001,1032,
images/dolphin01.jpg,dolphin,z,sounds/greatgatsby_chinese.wav,,,,,,,,,0,1,1,0,0,111,111,99,838.787946265,8.98016151041e-06,839.720725673,0.932788708713,,,,z,1,0.917134382878,2018_Nov_14_1534,59.9858788674,chinese_cond2,001,1032,
images/watermelon01.jpg,orange,x,sounds/greatgatsby_chinese.wav,,,,,,,,,0,1,1,0,0,112,112,207,840.849849967,9.30088572204e-06,842.054643571,1.20480290486,,,,x,1,1.18386760948,2018_Nov_14_1534,59.9858788674,chinese_cond2,001,1032,
images/fork01.jpg,cooking pot,x,sounds/greatgatsby_chinese.wav,,,,,,,,,0,1,1,0,0,113,113,160,843.148331552,9.30088572204e-06,844.705297134,1.55697552394,,,,x,1,1.53396517236,2018_Nov_14_1534,59.9858788674,chinese_cond2,001,1032,
images/lighter02b.jpg,stapler,x,sounds/greatgatsby_chinese.wav,,,,,,,,,0,1,1,0,0,114,114,227,845.80808778,9.30088572204e-06,846.789131645,0.981053487048,,,,x,1,0.967142272624,2018_Nov_14_1534,59.9858788674,chinese_cond2,001,1032,
images/rubberglove02a.jpg,lady bug,x,sounds/greatgatsby_chinese.wav,,,,,,,,,0,1,1,0,0,115,115,192,847.894272524,8.98016151041e-06,849.239731519,1.34546861623,,,,x,1,1.33388678846,2018_Nov_14_1534,59.9858788674,chinese_cond2,001,1032,
images/lemon02.jpg,lemon,z,sounds/greatgatsby_chinese.wav,,,,,,,,,0,1,1,0,0,116,116,14,850.351892951,9.30088572204e-06,851.423604581,1.07172125101,,,,z,1,1.05049249704,2018_Nov_14_1534,59.9858788674,chinese_cond2,001,1032,
images/ladder.jpg,ladder,z,sounds/greatgatsby_chinese.wav,,,,,,,,,0,1,1,0,0,117,117,113,852.516952278,9.62160993367e-06,853.407435179,0.890493484912,,,,z,1,0.867117512971,2018_Nov_14_1534,59.9858788674,chinese_cond2,001,1032,
images/lettuce.jpg,mushroom,x,sounds/greatgatsby_chinese.wav,,,,,,,,,0,1,1,0,0,118,118,205,854.531112371,8.98016151041e-06,855.607977324,1.0768748949,,,,x,1,1.06716863567,2018_Nov_14_1534,59.9858788674,chinese_cond2,001,1032,
images/kiwi03.jpg,backpack,x,sounds/greatgatsby_chinese.wav,,,,,,,,,0,1,1,0,0,119,119,125,856.736396676,8.98016151041e-06,857.925210103,1.188822728,,,,x,1,1.16718601866,2018_Nov_14_1534,59.9858788674,chinese_cond2,001,1032,
images/hanger02a.jpg,hanger,z,sounds/greatgatsby_chinese.wav,,,,,,,,,0,1,1,0,0,120,120,88,859.019075442,9.30088572204e-06,860.525850324,1.50678482407,,,,z,1,1.48393675662,2018_Nov_14_1534,59.9858788674,chinese_cond2,001,1032,
images/croissant02b.jpg,croissant,z,sounds/greatgatsby_chinese.wav,,,,,,,,,0,1,1,0,0,121,121,39,861.637139399,9.30088572204e-06,863.976695549,2.33956577128,,,,x,0,2.31746498053,2018_Nov_14_1534,59.9858788674,chinese_cond2,001,1032,
images/cloud.jpg,ceiling fan,x,sounds/greatgatsby_chinese.wav,,,,,,,,,0,1,1,0,0,122,122,149,865.082046499,9.30088572204e-06,867.560918772,2.4788822151,,,,x,1,2.46750885504,2018_Nov_14_1534,59.9858788674,chinese_cond2,001,1032,
images/lion.jpg,lion,z,sounds/greatgatsby_chinese.wav,,,,,,,,,0,1,1,0,0,123,123,44,868.673432034,8.98016151041e-06,869.728107036,1.05468462361,,,,z,1,1.03379807749,2018_Nov_14_1534,59.9858788674,chinese_cond2,001,1032,
images/carrot02.jpg,corkscrew,x,sounds/greatgatsby_chinese.wav,,,,,,,,,0,1,1,0,0,124,124,161,870.830876193,9.30088572204e-06,872.195594402,1.36472815159,,,,x,1,1.35076530126,2018_Nov_14_1534,59.9858788674,chinese_cond2,001,1032,
images/pineapple01a.jpg,pineapple,z,sounds/greatgatsby_chinese.wav,,,,,,,,,0,1,1,0,0,125,125,51,873.308722163,8.98004509509e-06,874.162553223,0.853841323289,,,,z,1,0.833781913156,2018_Nov_14_1534,59.9858788674,chinese_cond2,001,1032,
images/wallet01.jpg,lamp,x,sounds/greatgatsby_chinese.wav,,,,,,,,,0,1,1,0,0,126,126,193,875.267553627,9.62149351835e-06,876.379760281,1.11221659603,,,,x,1,1.10050519754,2018_Nov_14_1534,59.9858788674,chinese_cond2,001,1032,
images/radish01.jpg,raisin,x,sounds/greatgatsby_chinese.wav,,,,,,,,,0,1,1,0,0,127,127,214,877.490661285,9.30088572204e-06,879.663911471,2.17326012801,,,,z,0,2.15076966304,2018_Nov_14_1534,59.9858788674,chinese_cond2,001,1032,
images/highlighter03b.jpg,coin,x,sounds/greatgatsby_chinese.wav,,,,,,,,,0,1,1,0,0,128,128,156,880.766269787,9.62149351835e-06,881.831101659,1.0648421353,,,,x,1,1.05049089342,2018_Nov_14_1534,59.9858788674,chinese_cond2,001,1032,
images/scooter.jpg,pen,x,sounds/greatgatsby_chinese.wav,,,,,,,,,0,1,1,0,0,129,129,212,882.923808238,9.30088572204e-06,885.682067089,2.75826847309,,,,z,0,2.73425523133,2018_Nov_14_1534,59.9858788674,chinese_cond2,001,1032,
images/computermouse02a.jpg,world map,x,sounds/greatgatsby_chinese.wav,,,,,,,,,0,1,1,0,0,130,130,239,886.783805133,9.94233414531e-06,888.13266119,1.34886632022,,,,x,1,1.33386305522,2018_Nov_14_1534,59.9858788674,chinese_cond2,001,1032,
images/drink.jpg,drink,z,sounds/greatgatsby_chinese.wav,,,,,,,,,0,1,1,0,0,131,131,117,889.232640728,9.62160993367e-06,890.099814047,0.867182619055,,,,z,1,0.85044361942,2018_Nov_14_1534,59.9858788674,chinese_cond2,001,1032,
images/bat.jpg,hand,x,sounds/greatgatsby_chinese.wav,,,,,,,,,0,1,1,0,0,132,132,185,891.198036683,9.30088572204e-06,892.633965557,1.43593881698,,,,x,1,1.41744965024,2018_Nov_14_1534,59.9858788674,chinese_cond2,001,1032,
images/gps.jpg,gps,z,sounds/greatgatsby_chinese.wav,,,,,,,,,0,1,1,0,0,133,133,21,893.752707515,9.62160993367e-06,895.03436992,1.28167202696,,,,z,1,1.26721109892,2018_Nov_14_1534,59.9858788674,chinese_cond2,001,1032,
images/dragonfly02.jpg,dragon fly,z,sounds/greatgatsby_chinese.wav,,,,,,,,,0,1,1,0,0,134,134,29,896.131995697,8.98016151041e-06,897.218251321,1.08626492461,,,,z,1,1.06718306814,2018_Nov_14_1534,59.9858788674,chinese_cond2,001,1032,
images/dreamcatcher.jpg,dream catcher,z,sounds/greatgatsby_chinese.wav,,,,,,,,,0,1,1,0,0,135,135,48,898.317238873,8.65932088345e-06,900.268998149,1.95176889712,,,,z,1,1.93405779626,2018_Nov_14_1534,59.9858788674,chinese_cond2,001,1032,
images/screw03c.jpg,screw,z,sounds/greatgatsby_chinese.wav,,,,,,,,,0,1,1,0,0,136,136,84,901.363640591,8.98016151041e-06,902.269477945,0.905846975744,,,,z,1,0.883787237108,2018_Nov_14_1534,59.9858788674,chinese_cond2,001,1032,
images/ruler02b.jpg,watermelon,x,sounds/greatgatsby_chinese.wav,,,,,,,,,0,1,1,0,0,137,137,238,903.372286551,9.62149351835e-06,904.3866766,1.01439999125,,,,x,1,1.00048813527,2018_Nov_14_1534,59.9858788674,chinese_cond2,001,1032,
images/cheetah.jpg,cheetah,z,sounds/greatgatsby_chinese.wav,,,,,,,,,0,1,1,0,0,138,138,82,905.489845054,9.30076930672e-06,906.670596231,1.18076143973,,,,x,0,1.16720686539,2018_Nov_14_1534,59.9858788674,chinese_cond2,001,1032,
images/knife04.jpg,tooth brush,x,sounds/greatgatsby_chinese.wav,,,,,,,,,0,1,1,0,0,139,139,233,907.76784869,9.30088572204e-06,909.487921377,1.72008198884,,,,x,1,1.70064541628,2018_Nov_14_1534,59.9858788674,chinese_cond2,001,1032,
images/hand01a.jpg,cupcake,x,sounds/greatgatsby_chinese.wav,,,,,,,,,0,1,1,0,0,140,140,163,910.600278449,9.30088572204e-06,911.571778339,0.971509511932,,,,x,1,0.950470944634,2018_Nov_14_1534,59.9858788674,chinese_cond2,001,1032,
images/snowman.jpg,globe,x,sounds/greatgatsby_chinese.wav,,,,,,,,,0,1,1,0,0,141,141,180,912.685183522,8.98016151041e-06,913.755646911,1.07047333091,,,,x,1,1.05049698718,2018_Nov_14_1534,59.9858788674,chinese_cond2,001,1032,
images/lantern03.jpg,lantern,z,sounds/greatgatsby_chinese.wav,,,,,,,,,0,1,1,0,0,142,142,5,914.862148283,9.62160993367e-06,916.039542808,1.17740446725,,,,z,1,1.16713726928,2018_Nov_14_1534,59.9858788674,chinese_cond2,001,1032,
images/straw.jpg,straw,z,sounds/greatgatsby_chinese.wav,,,,,,,,,0,1,1,0,0,143,143,109,917.131078439,9.62160993367e-06,918.223410738,1.09234192048,,,,z,1,1.08382392745,2018_Nov_14_1534,59.9858788674,chinese_cond2,001,1032,
images/stapler03a.jpg,candy cane,x,sounds/greatgatsby_chinese.wav,,,,,,,,,0,1,1,0,0,144,144,145,919.334205584,9.30088572204e-06,920.774042107,1.43984646501,,,,x,1,1.41724663472,2018_Nov_14_1534,59.9858788674,chinese_cond2,001,1032,
images/camera01a.jpg,bull,x,sounds/greatgatsby_chinese.wav,,,,,,,,,0,1,1,0,0,145,145,138,921.885221175,9.30088572204e-06,922.874561416,0.989349862793,,,,x,1,0.967140027438,2018_Nov_14_1534,59.9858788674,chinese_cond2,001,1032,
images/showerhead01.jpg,skateboard,x,sounds/greatgatsby_chinese.wav,,,,,,,,,0,1,1,0,0,146,146,223,923.982471068,9.30088572204e-06,925.49186206,1.50940029277,,,,x,1,1.50059525575,2018_Nov_14_1534,59.9858788674,chinese_cond2,001,1032,
images/gorilla.jpg,gorilla,z,sounds/greatgatsby_chinese.wav,,,,,,,,,0,1,1,0,0,147,147,80,926.602979229,9.94233414531e-06,927.742439355,1.13947006851,,,,z,1,1.11718710908,2018_Nov_14_1534,59.9858788674,chinese_cond2,001,1032,
images/lip.jpg,boxing glove,x,sounds/greatgatsby_chinese.wav,,,,,,,,,0,1,1,0,0,148,148,136,928.845624165,8.98016151041e-06,929.64289343,0.797279206919,,,,x,1,0.783755101031,2018_Nov_14_1534,59.9858788674,chinese_cond2,001,1032,
images/cauliflower01.jpg,glue stick,x,sounds/greatgatsby_chinese.wav,,,,,,,,,0,1,1,0,0,149,149,181,930.758820111,9.30088572204e-06,931.8101112,1.05130071053,,,,x,1,1.0338307909,2018_Nov_14_1534,59.9858788674,chinese_cond2,001,1032,
images/bottleofredwine02.jpg,pipe,x,sounds/greatgatsby_chinese.wav,,,,,,,,,0,1,1,0,0,150,150,213,932.909008951,9.62160993367e-06,933.810849176,0.901856581797,,,,x,1,0.884008533671,2018_Nov_14_1534,59.9858788674,chinese_cond2,001,1032,
images/treadmill.jpg,lily,x,sounds/greatgatsby_chinese.wav,,,,,,,,,0,1,1,0,0,151,151,199,934.917193395,9.30088572204e-06,937.344797671,2.42761518015,,,,x,1,2.41749615455,2018_Nov_14_1534,59.9858788674,chinese_cond2,001,1032,
images/bracelet02a.jpg,chess knight,x,sounds/greatgatsby_chinese.wav,,,,,,,,,0,1,1,0,0,152,152,152,938.45418584,9.30088572204e-06,939.228585549,0.774409330683,,,,x,1,0.750405068859,2018_Nov_14_1534,59.9858788674,chinese_cond2,001,1032,
images/ear.jpg,bullet,x,sounds/greatgatsby_chinese.wav,,,,,,,,,0,1,1,0,0,153,153,139,940.332103908,9.62160993367e-06,941.262434621,0.930342579843,,,,x,1,0.917125402717,2018_Nov_14_1534,59.9858788674,chinese_cond2,001,1032,
images/nametag01a.jpg,name tag,z,sounds/greatgatsby_chinese.wav,,,,,,,,,0,1,1,0,0,154,154,108,942.383165682,8.98004509509e-06,943.329614803,0.94645906263,,,,z,1,0.933798013371,2018_Nov_14_1534,59.9858788674,chinese_cond2,001,1032,
images/diploma01.jpg,glasses,x,sounds/greatgatsby_chinese.wav,,,,,,,,,0,1,1,0,0,155,155,179,944.461393052,9.62149351835e-06,945.61350621,1.15212309989,,,,x,1,1.13384528738,2018_Nov_14_1534,59.9858788674,chinese_cond2,001,1032,
images/headphones02b.jpg,headphones,z,sounds/greatgatsby_chinese.wav,,,,,,,,,0,1,1,0,0,156,156,101,946.721487382,9.30076930672e-06,947.480668623,0.759190862766,,,,z,1,0.75045253546,2018_Nov_14_1534,59.9858788674,chinese_cond2,001,1032,
images/bed.jpg,bed,z,sounds/greatgatsby_chinese.wav,,,,,,,,,0,1,1,0,0,157,157,103,948.600085055,9.30088572204e-06,949.581141108,0.981065674452,,,,z,1,0.967125274474,2018_Nov_14_1534,59.9858788674,chinese_cond2,001,1032,
images/rhinoceros01.jpg,envelope,x,sounds/greatgatsby_chinese.wav,,,,,,,,,0,1,1,0,0,158,158,173,950.69413609,9.30088572204e-06,951.898469141,1.20434235153,,,,x,1,1.18394041283,2018_Nov_14_1534,59.9858788674,chinese_cond2,001,1032,
images/lock02a.jpg,lock,z,sounds/greatgatsby_chinese.wav,,,,,,,,,0,1,1,0,0,159,159,65,953.009077328,9.62149351835e-06,954.198984409,1.18991766486,,,,z,1,1.16722258076,2018_Nov_14_1534,59.9858788674,chinese_cond2,001,1032,
images/chameleon.jpg,50 dollar bill,x,sounds/greatgatsby_chinese.wav,,,,,,,,,0,1,1,0,0,160,160,120,955.309536149,9.62160993367e-06,956.182775238,0.873249031138,,,,x,1,0.850442657247,2018_Nov_14_1534,59.9858788674,chinese_cond2,001,1032,
images/sock03.jpg,sock,z,sounds/greatgatsby_chinese.wav,,,,,,,,,0,1,1,0,0,161,161,90,957.288916763,9.30088572204e-06,958.249956703,0.961049882113,,,,z,1,0.950453305151,2018_Nov_14_1534,59.9858788674,chinese_cond2,001,1032,
images/plant01.jpg,plant,z,sounds/greatgatsby_chinese.wav,,,,,,,,,0,1,1,0,0,162,162,47,959.361744497,9.62160993367e-06,960.433820464,1.07208623004,,,,z,1,1.05048576195,2018_Nov_14_1534,59.9858788674,chinese_cond2,001,1032,
images/masquerademask02b.jpg,mirror,x,sounds/greatgatsby_chinese.wav,,,,,,,,,0,1,1,0,0,163,163,204,961.539038316,9.30088572204e-06,962.584368509,1.04534045677,,,,x,1,1.03382501798,2018_Nov_14_1534,59.9858788674,chinese_cond2,001,1032,
images/scissors04a.jpg,leek,x,sounds/greatgatsby_chinese.wav,,,,,,,,,0,1,1,0,0,164,164,194,963.679159445,9.62160993367e-06,965.084974028,1.4058245254,,,,x,1,1.38390654488,2018_Nov_14_1534,59.9858788674,chinese_cond2,001,1032,
images/sportshorts02.jpg,tape,x,sounds/greatgatsby_chinese.wav,,,,,,,,,0,1,1,0,0,165,165,230,966.192820819,9.62160993367e-06,967.052120791,0.859310234664,,,,x,1,0.850438808557,2018_Nov_14_1534,59.9858788674,chinese_cond2,001,1032,
images/8ball.jpg,nail clipper,x,sounds/greatgatsby_chinese.wav,,,,,,,,,0,1,1,0,0,166,166,206,968.168495517,8.98016151041e-06,969.75279411,1.58430821414,,,,x,1,1.5672876226,2018_Nov_14_1534,59.9858788674,chinese_cond2,001,1032,
images/candy.jpg,candy,z,sounds/greatgatsby_chinese.wav,,,,,,,,,0,1,1,0,0,167,167,31,970.854962559,9.30088572204e-06,971.803308415,0.948355157278,,,,z,1,0.933792881784,2018_Nov_14_1534,59.9858788674,chinese_cond2,001,1032,
images/electrictoothbrush01a.jpg,banjo,x,sounds/greatgatsby_chinese.wav,,,,,,,,,0,1,1,0,0,168,168,127,972.898010512,9.62160993367e-06,974.687343569,1.78934364091,,,,x,1,1.76733425527,2018_Nov_14_1534,59.9858788674,chinese_cond2,001,1032,
images/eraser.jpg,eraser,z,sounds/greatgatsby_chinese.wav,,,,,,,,,0,1,1,0,0,169,169,110,975.794603122,8.65943729877e-06,976.854541775,1.05994795356,,,,z,1,1.05048544134,2018_Nov_14_1534,59.9858788674,chinese_cond2,001,1032,
images/tent.jpg,tent,z,sounds/greatgatsby_chinese.wav,,,,,,,,,0,1,1,0,0,170,170,11,977.981508588,9.30076930672e-06,979.138441841,1.15694351611,,,,z,1,1.13384400448,2018_Nov_14_1534,59.9858788674,chinese_cond2,001,1032,
images/peach01.jpg,peach,z,sounds/greatgatsby_chinese.wav,,,,,,,,,0,1,1,0,0,171,171,106,980.266926621,9.30088572204e-06,981.322311375,1.05539437616,,,,z,1,1.03380160534,2018_Nov_14_1534,59.9858788674,chinese_cond2,001,1032,
images/hat05.jpg,hat,z,sounds/greatgatsby_chinese.wav,,,,,,,,,0,1,1,0,0,172,172,15,982.425928515,9.30088572204e-06,983.706234597,1.28031698638,,,,z,1,1.26720725035,2018_Nov_14_1534,59.9858788674,chinese_cond2,001,1032,
images/tulip02.jpg,sport shorts,x,sounds/greatgatsby_chinese.wav,,,,,,,,,0,1,1,0,0,173,173,225,984.80146075,9.62160993367e-06,985.690057178,0.888606370543,,,,x,1,0.867106929189,2018_Nov_14_1534,59.9858788674,chinese_cond2,001,1032,
images/mirror02.jpg,8 ball,x,sounds/greatgatsby_chinese.wav,,,,,,,,,0,1,1,0,0,174,174,121,986.791511385,9.30088572204e-06,987.790571035,0.999069592333,,,,x,1,0.983801412978,2018_Nov_14_1534,59.9858788674,chinese_cond2,001,1032,
images/nailpolish02b.jpg,nail polish,z,sounds/greatgatsby_chinese.wav,,,,,,,,,0,1,1,0,0,175,175,94,988.899294032,9.30088572204e-06,990.291190986,1.39190625492,,,,z,1,1.38390846923,2018_Nov_14_1534,59.9858788674,chinese_cond2,001,1032,
images/grasshopper.jpg,cauliflower,x,sounds/greatgatsby_chinese.wav,,,,,,,,,0,1,1,0,0,176,176,148,991.385362612,8.98016151041e-06,993.091723573,1.7063709033,,,,x,1,1.6838134079,2018_Nov_14_1534,59.9858788674,chinese_cond2,001,1032,
images/lamp04b.jpg,parking meter,x,sounds/greatgatsby_chinese.wav,,,,,,,,,0,1,1,0,0,177,177,209,994.213105054,9.30088572204e-06,995.659181498,1.44608606573,,,,x,1,1.433920849,2018_Nov_14_1534,59.9858788674,chinese_cond2,001,1032,
images/skateboard.jpg,key,x,sounds/greatgatsby_chinese.wav,,,,,,,,,0,1,1,0,0,178,178,189,996.750720657,9.62160993367e-06,998.126745517,1.37603480194,,,,x,1,1.3674690217,2018_Nov_14_1534,59.9858788674,chinese_cond2,001,1032,
images/flashlight05.jpg,flash light,z,sounds/greatgatsby_chinese.wav,,,,,,,,,0,1,1,0,0,179,179,8,999.229785041,9.30088572204e-06,1000.34368092,1.11390582647,,,,x,0,1.10051513999,2018_Nov_14_1534,59.9858788674,chinese_cond2,001,1032,
images/puzzle.jpg,puzzle,z,sounds/greatgatsby_chinese.wav,,,,,,,,,0,1,1,0,0,180,180,57,1001.46384367,8.98016151041e-06,1002.57754648,1.11371243245,,,,z,1,1.10045388248,2018_Nov_14_1534,59.9858788674,chinese_cond2,001,1032,
images/bus.jpg,microphone,x,sounds/greatgatsby_chinese.wav,,,,,,,,,0,1,1,0,0,181,181,203,1003.69645169,1.02629419416e-05,1004.89478728,1.19834585639,,,,x,1,1.18385349785,2018_Nov_14_1534,59.9858788674,chinese_cond2,001,1032,
images/glasses01b.jpg,calculator,x,sounds/greatgatsby_chinese.wav,,,,,,,,,0,1,1,0,0,182,182,142,1005.98815711,8.98016151041e-06,1007.17853308,1.19038591557,,,,x,1,1.16703239398,2018_Nov_14_1534,59.9858788674,chinese_cond2,001,1032,
images/coin01b.jpg,arrow,x,sounds/greatgatsby_chinese.wav,,,,,,,,,0,1,1,0,0,183,183,124,1008.28175606,9.30088572204e-06,1009.5126107,1.23086458317,,,,x,1,1.21721283079,2018_Nov_14_1534,59.9858788674,chinese_cond2,001,1032,
images/honeycomb.jpg,honey comb,z,sounds/greatgatsby_chinese.wav,,,,,,,,,0,1,1,0,0,184,184,59,1010.62595141,9.62160993367e-06,1011.99655258,1.3706111121,,,,z,1,1.35053342092,2018_Nov_14_1534,59.9858788674,chinese_cond2,001,1032,
images/thumbtack02a.jpg,thumb tack,z,sounds/greatgatsby_chinese.wav,,,,,,,,,0,1,1,0,0,185,185,60,1013.10716687,9.62160993367e-06,1014.31377991,1.20662266831,,,,z,1,1.18385991221,2018_Nov_14_1534,59.9858788674,chinese_cond2,001,1032,
images/basketball01.jpg,basket ball,z,sounds/greatgatsby_chinese.wav,,,,,,,,,0,1,1,0,0,186,186,33,1015.45292124,9.30088572204e-06,1016.51432655,1.06141492527,,,,z,1,1.05049377994,2018_Nov_14_1534,59.9858788674,chinese_cond2,001,1032,
images/tissuebox03.jpg,tissue box,z,sounds/greatgatsby_chinese.wav,,,,,,,,,0,1,1,0,0,187,187,58,1017.6401099,9.30088572204e-06,1018.53148024,0.891379953944,,,,z,1,0.867101797718,2018_Nov_14_1534,59.9858788674,chinese_cond2,001,1032,
images/barrel01.jpg,barrel,z,sounds/greatgatsby_chinese.wav,,,,,,,,,0,1,1,0,0,188,188,9,1019.66180242,9.30088572204e-06,1021.09879095,1.43699847464,,,,z,1,1.41724887968,2018_Nov_14_1534,59.9858788674,chinese_cond2,001,1032,
images/radio03a.jpg,radio,z,sounds/greatgatsby_chinese.wav,,,,,,,,,0,1,1,0,0,189,189,37,1022.21287221,8.98016151041e-06,1023.46606273,1.25320014055,,,,z,1,1.23389538378,2018_Nov_14_1534,59.9858788674,chinese_cond2,001,1032,
images/hairdryer03a.jpg,hairdryer,z,sounds/greatgatsby_chinese.wav,,,,,,,,,0,1,1,0,0,190,190,119,1024.56632578,9.30088572204e-06,1025.41653816,0.850222322857,,,,z,1,0.83378608257,2018_Nov_14_1534,59.9858788674,chinese_cond2,001,1032,
images/fryingpan01.jpg,frying pan,z,sounds/greatgatsby_chinese.wav,,,,,,,,,0,1,1,0,0,191,191,45,1026.51732078,9.62160993367e-06,1027.45034907,0.933038549265,,,,z,1,0.917102952255,2018_Nov_14_1534,59.9858788674,chinese_cond2,001,1032,
images/pingpongpaddle01c (1).jpg,ping pong paddle,z,sounds/greatgatsby_chinese.wav,,,,,,,,,0,1,1,0,0,192,192,10,1028.56193225,8.98016151041e-06,1029.46753355,0.905610925984,,,,z,1,0.883798141615,2018_Nov_14_1534,59.9858788674,chinese_cond2,001,1032,
images/cola.jpg,comb,x,sounds/greatgatsby_chinese.wav,,,,,,,,,0,1,1,0,0,193,193,157,1030.58869919,9.62160993367e-06,1031.98480174,1.39611281373,,,,x,1,1.38390141341,2018_Nov_14_1534,59.9858788674,chinese_cond2,001,1032,
images/hairband.jpg,hairband,z,sounds/greatgatsby_chinese.wav,,,,,,,,,0,1,1,0,0,194,194,66,1033.0946511,9.30088572204e-06,1034.01863926,0.923997783102,,,,z,1,0.900457923533,2018_Nov_14_1534,59.9858788674,chinese_cond2,001,1032,
images/beermug01b.jpg,beer mug,z,sounds/greatgatsby_chinese.wav,,,,,,,,,0,1,1,0,0,195,195,111,1035.13604222,9.30088572204e-06,1036.31920681,1.1831738929,,,,z,1,1.16718281154,2018_Nov_14_1534,59.9858788674,chinese_cond2,001,1032,
images/corn01.jpg,corn,z,sounds/greatgatsby_chinese.wav,,,,,,,,,0,1,1,0,0,196,196,22,1037.41937685,9.30088572204e-06,1038.40306088,0.983694292605,,,,z,1,0.967144196737,2018_Nov_14_1534,59.9858788674,chinese_cond2,001,1032,
images/pepper05a.jpg,lighter,x,sounds/greatgatsby_chinese.wav,,,,,,,,,0,1,1,0,0,197,197,198,1039.52485064,9.62160993367e-06,1040.90367923,1.37883885379,,,,x,1,1.36723714136,2018_Nov_14_1534,59.9858788674,chinese_cond2,001,1032,
images/arrow02.jpg,hammer,x,sounds/greatgatsby_chinese.wav,,,,,,,,,0,1,1,0,0,198,198,184,1042.00180533,9.30088572204e-06,1043.43762901,1.43583362096,,,,x,1,1.41717030341,2018_Nov_14_1534,59.9858788674,chinese_cond2,001,1032,
images/orange.jpg,bat,x,sounds/greatgatsby_chinese.wav,,,,,,,,,0,1,1,0,0,199,199,128,1044.56273501,9.94221772999e-06,1046.07161156,1.5088864998,,,,x,1,1.50059557636,2018_Nov_14_1534,59.9858788674,chinese_cond2,001,1032,
images/cockroach02.jpg,belt,x,sounds/greatgatsby_chinese.wav,,,,,,,,,0,1,1,0,0,200,200,129,1047.17083677,9.62149351835e-06,1048.20547545,1.03464926733,,,,x,1,1.0171520866,2018_Nov_14_1534,59.9858788674,chinese_cond2,001,1032,
images/cookingpot.jpg,grasshopper,x,sounds/greatgatsby_chinese.wav,,,,,,,,,0,1,1,0,0,201,201,183,1049.3197546,9.30088572204e-06,1052.32301952,3.00327583042,,,,None,0,,2018_Nov_14_1534,59.9858788674,chinese_cond2,001,1032,
images/pen03c.jpg,pepper,x,sounds/greatgatsby_chinese.wav,,,,,,,,,0,1,1,0,0,202,202,211,1053.41763984,9.30088572204e-06,1054.97380683,1.55617661134,,,,x,1,1.53394721216,2018_Nov_14_1534,59.9858788674,chinese_cond2,001,1032,
,,,sounds/greatgatsby_chinese.wav,,,,,,,,,0,1,1,0,,,,,,,,,,,,,,,2018_Nov_14_1534,59.9858788674,chinese_cond2,001,1032,
