images,name,corrAns,sounds,trials_3.thisRepN,trials_3.thisTrialN,trials_3.thisN,trials_3.thisIndex,trials_4.thisRepN,trials_4.thisTrialN,trials_4.thisN,trials_4.thisIndex,trials_2.thisRepN,trials_2.thisTrialN,trials_2.thisN,trials_2.thisIndex,trials.thisRepN,trials.thisTrialN,trials.thisN,trials.thisIndex,begin_global,begin_routine,end_global,end_routine,key_resp_2.keys,key_resp_2.corr,key_resp_2.rt,begin_book,key_resp_1.keys,key_resp_1.corr,key_resp_1.rt,date,frameRate,expName,session,participant,
images/volleyball.jpg,volley ball,z,,0,0,0,0,,,,,,,,,,,,,,,,,,,,,,,,2018_Nov_15_1536,59.9929767984,chinese_cond2,001,1038,
images/puma.jpg,puma,z,,,,,,0,0,0,0,,,,,,,,,48.2646344252,1.0263413742e-05,50.0441086241,1.77948510378,z,1,1.76721519267,,,,,2018_Nov_15_1536,59.9929767984,chinese_cond2,001,1038,
images/hand01a.jpg,cupcake,x,sounds/greatgatsby_chinese.wav,,,,,,,,,0,0,0,0,0,0,0,163,92.2457994574,1.0263413742e-05,93.6400421955,1.39425364295,,,,82.0419231585,x,1,1.38398958777,2018_Nov_15_1536,59.9929767984,chinese_cond2,001,1038,
images/coin01b.jpg,arrow,x,sounds/greatgatsby_chinese.wav,,,,,,,,,0,0,0,0,0,1,1,124,94.7772063052,9.94268202703e-06,96.2907862448,1.51359020306,,,,,x,1,1.50057908105,2018_Nov_15_1536,59.9929767984,chinese_cond2,001,1038,
images/camera01a.jpg,bull,x,sounds/greatgatsby_chinese.wav,,,,,,,,,0,0,0,0,0,2,2,138,97.4832143472,1.0263413742e-05,98.3080127433,0.824809942425,,,,,x,1,0.800466087276,2018_Nov_15_1536,59.9929767984,chinese_cond2,001,1038,
images/tape01a.jpg,tie,x,sounds/greatgatsby_chinese.wav,,,,,,,,,0,0,0,0,0,3,3,232,99.5252250654,9.30121882448e-06,101.008782275,1.48356683134,,,,,x,1,1.46732529986,2018_Nov_15_1536,59.9929767984,chinese_cond2,001,1038,
images/beachumbrella01.jpg,beach umbrella,z,sounds/greatgatsby_chinese.wav,,,,,,,,,0,0,0,0,0,4,4,92,102.149605292,9.3012185971e-06,102.976006384,0.826410393502,,,,,z,1,0.817142210181,2018_Nov_15_1536,59.9929767984,chinese_cond2,001,1038,
images/crocodile.jpg,triangle ruler,x,sounds/greatgatsby_chinese.wav,,,,,,,,,0,0,0,0,0,5,5,235,104.118313426,9.62195031207e-06,105.410039415,1.29173625208,,,,,x,1,1.26727308474,2018_Nov_15_1536,59.9929767984,chinese_cond2,001,1038,
images/dryingmachine01.jpg,drying machine,z,sounds/greatgatsby_chinese.wav,,,,,,,,,0,0,0,0,0,6,6,18,106.590433665,9.3012185971e-06,108.344200578,1.75377685607,,,,,z,1,1.73403421758,2018_Nov_15_1536,59.9929767984,chinese_cond2,001,1038,
images/eraser.jpg,eraser,z,sounds/greatgatsby_chinese.wav,,,,,,,,,0,0,0,0,0,7,7,110,109.524979064,8.65975539455e-06,110.878253783,1.35328466123,,,,,z,1,1.33394935198,2018_Nov_15_1536,59.9929767984,chinese_cond2,001,1038,
images/bullet (2).jpg,rubber glove,x,sounds/greatgatsby_chinese.wav,,,,,,,,,0,0,0,0,0,8,8,217,112.005249095,9.62195031207e-06,112.89550177,0.890262297574,,,,,x,1,0.867160315484,2018_Nov_15_1536,59.9929767984,chinese_cond2,001,1038,
images/hairpin.jpg,hair pin,z,sounds/greatgatsby_chinese.wav,,,,,,,,,0,0,0,0,0,9,9,28,114.0530843,9.3012185971e-06,115.596279962,1.54320656628,,,,,z,1,1.53403235734,2018_Nov_15_1536,59.9929767984,chinese_cond2,001,1038,
images/bottleofredwine02.jpg,pipe,x,sounds/greatgatsby_chinese.wav,,,,,,,,,0,0,0,0,0,10,10,213,116.768099771,9.3012185971e-06,118.463736954,1.69564712588,,,,,x,1,1.68403599764,2018_Nov_15_1536,59.9929767984,chinese_cond2,001,1038,
images/croissant02b.jpg,croissant,z,sounds/greatgatsby_chinese.wav,,,,,,,,,0,0,0,0,0,11,11,39,119.603205841,9.94268202703e-06,120.397624533,0.794429275618,,,,,z,1,0.78379766193,2018_Nov_15_1536,59.9929767984,chinese_cond2,001,1038,
images/doll.jpg,carrot,x,sounds/greatgatsby_chinese.wav,,,,,,,,,0,0,0,0,0,12,12,146,121.57209551,9.62195031207e-06,122.598262725,1.02617715743,,,,,x,1,1.01721206554,2018_Nov_15_1536,59.9929767984,chinese_cond2,001,1038,
images/birthdaycandle.jpg,birthday candle,z,sounds/greatgatsby_chinese.wav,,,,,,,,,0,0,0,0,0,13,13,55,123.735168004,9.62195031207e-06,125.282351322,1.54719358177,,,,,z,1,1.53401215124,2018_Nov_15_1536,59.9929767984,chinese_cond2,001,1038,
images/mailbox01.jpg,mail box,z,sounds/greatgatsby_chinese.wav,,,,,,,,,0,0,0,0,0,14,14,73,126.484454617,9.3012185971e-06,127.933104032,1.44865967835,,,,,z,1,1.43397850649,2018_Nov_15_1536,59.9929767984,chinese_cond2,001,1038,
images/remotecontrol01c.jpg,remote control,z,sounds/greatgatsby_chinese.wav,,,,,,,,,0,0,0,0,0,15,15,85,129.118297389,8.98048688214e-06,130.050379249,0.932091481655,,,,,z,1,0.917173609813,2018_Nov_15_1536,59.9929767984,chinese_cond2,001,1038,
images/umbrella01.jpg,umbrella,z,sounds/greatgatsby_chinese.wav,,,,,,,,,0,0,0,0,0,16,16,53,131.248681552,9.30121882448e-06,132.384372221,1.13570061109,,,,,z,1,1.11721203347,2018_Nov_15_1536,59.9929767984,chinese_cond2,001,1038,
images/butterfly.jpg,butterfly,z,sounds/greatgatsby_chinese.wav,,,,,,,,,0,0,0,0,0,17,17,91,133.517039672,9.62195031207e-06,134.685018078,1.167987707,,,,,z,1,1.15056363782,2018_Nov_15_1536,59.9929767984,chinese_cond2,001,1038,
images/honeycomb.jpg,honey comb,z,sounds/greatgatsby_chinese.wav,,,,,,,,,0,0,0,0,0,18,18,59,135.872578436,9.62195031207e-06,136.669026717,0.796458544949,,,,,z,1,0.783910238749,2018_Nov_15_1536,59.9929767984,chinese_cond2,001,1038,
images/cherry01.jpg,highlighter,x,sounds/greatgatsby_chinese.wav,,,,,,,,,0,0,0,0,0,19,19,187,137.852615134,9.94268202703e-06,139.853161661,2.00055646946,,,,,x,1,1.98413051727,2018_Nov_15_1536,59.9929767984,chinese_cond2,001,1038,
images/backpack01b.jpg,swallow,x,sounds/greatgatsby_chinese.wav,,,,,,,,,0,0,0,0,0,20,20,228,141.070222597,9.62195053944e-06,142.270513116,1.20030078217,,,,,z,0,1.1839216568,2018_Nov_15_1536,59.9929767984,chinese_cond2,001,1038,
images/apricot.jpg,apricot,z,sounds/greatgatsby_chinese.wav,,,,,,,,,0,0,0,0,0,21,21,32,143.422474823,9.62195031207e-06,144.337759644,0.91529508437,,,,,z,1,0.900493638127,2018_Nov_15_1536,59.9929767984,chinese_cond2,001,1038,
images/paperclip04.jpg,eye drops,x,sounds/greatgatsby_chinese.wav,,,,,,,,,0,0,0,0,0,22,22,174,145.506883062,9.30121882448e-06,146.638424746,1.13155194683,,,,,x,1,1.11723320176,2018_Nov_15_1536,59.9929767984,chinese_cond2,001,1038,
images/graduationcap.jpg,graduation cap,z,sounds/greatgatsby_chinese.wav,,,,,,,,,0,0,0,0,0,23,23,35,147.759809177,9.9426822544e-06,148.488960255,0.729161661916,,,,,z,1,0.717128450792,2018_Nov_15_1536,59.9929767984,chinese_cond2,001,1038,
images/eyedrops.jpg,bicycle,x,sounds/greatgatsby_chinese.wav,,,,,,,,,0,0,0,0,0,24,24,131,149.653069996,9.62195031207e-06,150.889620834,1.23656142284,,,,,x,1,1.21724984773,2018_Nov_15_1536,59.9929767984,chinese_cond2,001,1038,
images/diaper01a.jpg,camera,x,sounds/greatgatsby_chinese.wav,,,,,,,,,0,0,0,0,0,25,25,143,152.074331812,9.94268202703e-06,152.956874418,0.882553190943,,,,,x,1,0.867152617924,2018_Nov_15_1536,59.9929767984,chinese_cond2,001,1038,
images/50dollarbill.jpg,cherry,x,sounds/greatgatsby_chinese.wav,,,,,,,,,0,0,0,0,0,26,26,151,154.151499533,9.30121882448e-06,155.957730451,1.80624150262,,,,,x,1,1.78408599971,2018_Nov_15_1536,59.9929767984,chinese_cond2,001,1038,
images/sunglasses03a.jpg,sun glasses,z,sounds/greatgatsby_chinese.wav,,,,,,,,,0,0,0,0,0,27,27,17,157.086848045,9.94268202703e-06,157.774915319,0.688077858256,,,,,z,1,0.66709142232,2018_Nov_15_1536,59.9929767984,chinese_cond2,001,1038,
images/atm.jpg,atm,z,sounds/greatgatsby_chinese.wav,,,,,,,,,0,0,0,0,0,28,28,96,158.985721667,9.62195031207e-06,159.875518583,0.889807820785,,,,,z,1,0.867160315485,2018_Nov_15_1536,59.9929767984,chinese_cond2,001,1038,
images/bull.jpg,button,x,sounds/greatgatsby_chinese.wav,,,,,,,,,0,0,0,0,0,29,29,141,161.065544726,9.62195053944e-06,162.409569864,1.34403508035,,,,,x,1,1.33395993612,2018_Nov_15_1536,59.9929767984,chinese_cond2,001,1038,
images/screw03c.jpg,screw,z,sounds/greatgatsby_chinese.wav,,,,,,,,,0,0,0,0,0,30,30,84,163.530667882,9.94268202703e-06,164.443484352,0.912827374834,,,,,z,1,0.900504863736,2018_Nov_15_1536,59.9929767984,chinese_cond2,001,1038,
images/computerkeyboard01a.jpg,computer keyboard,z,sounds/greatgatsby_chinese.wav,,,,,,,,,0,0,0,0,0,31,31,61,165.633529418,9.62195053944e-06,166.694123009,1.06060417509,,,,,z,1,1.05054667111,2018_Nov_15_1536,59.9929767984,chinese_cond2,001,1038,
images/blackolive.jpg,tank,x,sounds/greatgatsby_chinese.wav,,,,,,,,,0,0,0,0,0,32,32,229,167.821941639,9.3012185971e-06,169.01144114,1.1895094441,,,,,x,1,1.16724200584,2018_Nov_15_1536,59.9929767984,chinese_cond2,001,1038,
images/medal01.jpg,medal,z,sounds/greatgatsby_chinese.wav,,,,,,,,,0,0,0,0,0,33,33,115,170.141185444,9.62195053944e-06,171.528988852,1.38781431304,,,,,z,1,1.36746003924,2018_Nov_15_1536,59.9929767984,chinese_cond2,001,1038,
images/banana04a.jpg,banana,z,sounds/greatgatsby_chinese.wav,,,,,,,,,0,0,0,0,0,34,34,118,172.731838168,1.0263413742e-05,173.462710292,0.730882387373,,,,,z,1,0.717110169086,2018_Nov_15_1536,59.9929767984,chinese_cond2,001,1038,
images/stapler03a.jpg,candy cane,x,sounds/greatgatsby_chinese.wav,,,,,,,,,0,0,0,0,0,35,35,145,174.645346456,9.62195053944e-06,176.346868745,1.70153255218,,,,,x,1,1.6840639013,2018_Nov_15_1536,59.9929767984,chinese_cond2,001,1038,
images/spoon02b.jpg,spoon,z,sounds/greatgatsby_chinese.wav,,,,,,,,,0,0,0,0,0,36,36,38,177.463868454,9.62195031207e-06,178.314086118,0.850228569431,,,,,z,1,0.833815446502,2018_Nov_15_1536,59.9929767984,chinese_cond2,001,1038,
images/swan.jpg,swan,z,sounds/greatgatsby_chinese.wav,,,,,,,,,0,0,0,0,0,37,37,54,179.474744465,8.98048710951e-06,180.664755854,1.19002133186,,,,,z,1,1.16724264731,2018_Nov_15_1536,59.9929767984,chinese_cond2,001,1038,
images/skateboard.jpg,key,x,sounds/greatgatsby_chinese.wav,,,,,,,,,0,0,0,0,0,38,38,189,181.82664998,1.0263413742e-05,182.681993899,0.855354823852,,,,,x,1,0.833795881869,2018_Nov_15_1536,59.9929767984,chinese_cond2,001,1038,
images/egg01b (1).jpg,egg,z,sounds/greatgatsby_chinese.wav,,,,,,,,,0,0,0,0,0,39,39,19,183.86699995,9.3012185971e-06,185.266066171,1.39907616447,,,,,x,0,1.38397547557,2018_Nov_15_1536,59.9929767984,chinese_cond2,001,1038,
images/cheetah.jpg,cheetah,z,sounds/greatgatsby_chinese.wav,,,,,,,,,0,0,0,0,0,40,40,82,186.453325362,9.94268202703e-06,188.033513574,1.58019879591,,,,,z,1,1.56735830315,2018_Nov_15_1536,59.9929767984,chinese_cond2,001,1038,
images/grandpiano.jpg,tulip,x,sounds/greatgatsby_chinese.wav,,,,,,,,,0,0,0,0,0,41,41,236,189.166457496,9.9426822544e-06,190.0842947,0.917847787802,,,,,x,1,0.900702113718,2018_Nov_15_1536,59.9929767984,chinese_cond2,001,1038,
images/hammer02a.jpg,flower,x,sounds/greatgatsby_chinese.wav,,,,,,,,,0,0,0,0,0,42,42,176,191.238565675,9.62195031207e-06,192.268200961,1.0296455498,,,,,x,1,1.01735094236,2018_Nov_15_1536,59.9929767984,chinese_cond2,001,1038,
images/parkfountain.jpg,park fountain,z,sounds/greatgatsby_chinese.wav,,,,,,,,,0,0,0,0,0,43,43,93,193.461961063,9.3012185971e-06,195.035505638,1.57355483918,,,,,x,0,1.5506837839,2018_Nov_15_1536,59.9929767984,chinese_cond2,001,1038,
images/screwdriver02b.jpg,cola,x,sounds/greatgatsby_chinese.wav,,,,,,,,,0,0,0,0,0,44,44,158,196.198158295,9.62195031207e-06,196.936089723,0.737942012354,,,,,x,1,0.717154109327,2018_Nov_15_1536,59.9929767984,chinese_cond2,001,1038,
images/lollipop03b.jpg,lollipop,z,sounds/greatgatsby_chinese.wav,,,,,,,,,0,0,0,0,0,45,45,42,198.101702412,9.3012185971e-06,199.103327559,1.00163541083,,,,,z,1,0.983847952657,2018_Nov_15_1536,59.9929767984,chinese_cond2,001,1038,
images/cupcake.jpg,scissors,x,sounds/greatgatsby_chinese.wav,,,,,,,,,0,0,0,0,0,46,46,219,200.293419452,9.3012185971e-06,201.137241406,0.843832217561,,,,,x,1,0.833819936745,2018_Nov_15_1536,59.9929767984,chinese_cond2,001,1038,
images/doorhandle.jpg,doll,x,sounds/greatgatsby_chinese.wav,,,,,,,,,0,0,0,0,0,47,47,168,202.312988575,9.62195031207e-06,204.021390879,1.70841352962,,,,,x,1,1.68404626105,2018_Nov_15_1536,59.9929767984,chinese_cond2,001,1038,
images/ostrich.jpg,ostrich,z,sounds/greatgatsby_chinese.wav,,,,,,,,,0,0,0,0,0,48,48,76,205.204506537,9.3012185971e-06,205.87193152,0.667434925948,,,,,z,1,0.650442240875,2018_Nov_15_1536,59.9929767984,chinese_cond2,001,1038,
images/radio03a.jpg,radio,z,sounds/greatgatsby_chinese.wav,,,,,,,,,0,0,0,0,0,49,49,37,207.055941699,9.62195053944e-06,208.539344315,1.48341288014,,,,,z,1,1.46733171449,2018_Nov_15_1536,59.9929767984,chinese_cond2,001,1038,
images/cat.jpg,black olive,x,sounds/greatgatsby_chinese.wav,,,,,,,,,0,0,0,0,0,50,50,133,209.741551206,1.0263413742e-05,210.45662954,0.71508955951,,,,,x,1,0.700522888856,2018_Nov_15_1536,59.9929767984,chinese_cond2,001,1038,
images/nailpolish02b.jpg,nail polish,z,sounds/greatgatsby_chinese.wav,,,,,,,,,0,0,0,0,0,51,51,94,211.64300319,9.62195031207e-06,212.62367622,0.980683613915,,,,,z,1,0.966976824891,2018_Nov_15_1536,59.9929767984,chinese_cond2,001,1038,
images/clothespin02a.jpg,clothes pin,z,sounds/greatgatsby_chinese.wav,,,,,,,,,0,0,0,0,0,52,52,79,213.810788516,1.0584145457e-05,214.991181162,1.18040323028,,,,,z,1,1.16725098633,2018_Nov_15_1536,59.9929767984,chinese_cond2,001,1038,
images/gamecontroller01.jpg,game controller,z,sounds/greatgatsby_chinese.wav,,,,,,,,,0,0,0,0,0,53,53,112,216.160128498,9.62195031207e-06,216.841699352,0.681581117371,,,,,z,1,0.667098478417,2018_Nov_15_1536,59.9929767984,chinese_cond2,001,1038,
images/apple06.jpg,apple,z,sounds/greatgatsby_chinese.wav,,,,,,,,,0,0,0,0,0,54,54,13,218.05748538,9.62195031207e-06,218.825601187,0.768126712106,,,,,z,1,0.750461773435,2018_Nov_15_1536,59.9929767984,chinese_cond2,001,1038,
images/charcoalbarbecue.jpg,charcoal barbecue,z,sounds/greatgatsby_chinese.wav,,,,,,,,,0,0,0,0,0,55,55,77,220.010727512,9.3012185971e-06,221.359658562,1.34894131284,,,,,z,1,1.33396025685,2018_Nov_15_1536,59.9929767984,chinese_cond2,001,1038,
images/arrow02.jpg,hammer,x,sounds/greatgatsby_chinese.wav,,,,,,,,,0,0,0,0,0,56,56,184,222.519562868,9.62195031207e-06,223.443576081,0.924023155544,,,,,x,1,0.900499732029,2018_Nov_15_1536,59.9929767984,chinese_cond2,001,1038,
images/broom02.jpg,broom,z,sounds/greatgatsby_chinese.wav,,,,,,,,,0,0,0,0,0,57,57,116,224.606047203,9.94268202703e-06,226.111066494,1.50502955382,,,,,z,1,1.48405883374,2018_Nov_15_1536,59.9929767984,chinese_cond2,001,1038,
images/mitten01.jpg,mitten,z,sounds/greatgatsby_chinese.wav,,,,,,,,,0,0,0,0,0,58,58,102,227.31480135,9.62195031207e-06,228.194920188,0.880128780184,,,,,x,0,0.866975574037,2018_Nov_15_1536,59.9929767984,chinese_cond2,001,1038,
images/lily.jpg,kiwi,x,sounds/greatgatsby_chinese.wav,,,,,,,,,0,0,0,0,0,59,59,190,229.365856381,1.0263413742e-05,230.778987649,1.41314185224,,,,,x,1,1.4006336375,2018_Nov_15_1536,59.9929767984,chinese_cond2,001,1038,
images/cloud.jpg,ceiling fan,x,sounds/greatgatsby_chinese.wav,,,,,,,,,0,0,0,0,0,60,60,149,231.912858486,9.62195031207e-06,232.89642644,0.983578538047,,,,,x,1,0.96735689193,2018_Nov_15_1536,59.9929767984,chinese_cond2,001,1038,
images/scissors04a.jpg,leek,x,sounds/greatgatsby_chinese.wav,,,,,,,,,0,0,0,0,0,61,61,194,234.071654344,9.30121882448e-06,236.197206042,2.12556196199,,,,,x,1,2.11752474685,2018_Nov_15_1536,59.9929767984,chinese_cond2,001,1038,
images/puzzle.jpg,puzzle,z,sounds/greatgatsby_chinese.wav,,,,,,,,,0,0,0,0,0,62,62,57,237.390660165,9.9426822544e-06,238.514528022,1.12387844141,,,,,z,1,1.10055964471,2018_Nov_15_1536,59.9929767984,chinese_cond2,001,1038,
images/marker01a.jpg,marker,z,sounds/greatgatsby_chinese.wav,,,,,,,,,0,0,0,0,0,63,63,95,239.63292548,9.3012185971e-06,240.581777437,0.948862220406,,,,,z,1,0.933844921743,2018_Nov_15_1536,59.9929767984,chinese_cond2,001,1038,
images/gps.jpg,gps,z,sounds/greatgatsby_chinese.wav,,,,,,,,,0,0,0,0,0,64,64,21,241.807749583,9.3012185971e-06,244.132780991,2.32504167106,,,,,z,1,2.30088480248,2018_Nov_15_1536,59.9929767984,chinese_cond2,001,1038,
images/pingpongpaddle01c (1).jpg,ping pong paddle,z,sounds/greatgatsby_chinese.wav,,,,,,,,,0,0,0,0,0,65,65,10,245.33198455,9.94268202703e-06,246.03333204,0.701358074147,,,,,z,1,0.683775563517,2018_Nov_15_1536,59.9929767984,chinese_cond2,001,1038,
images/candy.jpg,candy,z,sounds/greatgatsby_chinese.wav,,,,,,,,,0,0,0,0,0,66,66,31,247.164945567,1.0263413742e-05,248.41734023,1.25240556777,,,,,z,1,1.23392789503,2018_Nov_15_1536,59.9929767984,chinese_cond2,001,1038,
images/broadsword.jpg,teapot,x,sounds/greatgatsby_chinese.wav,,,,,,,,,0,0,0,0,0,67,67,231,249.522852934,9.62195031207e-06,250.801354835,1.27851248496,,,,,x,1,1.26727885791,2018_Nov_15_1536,59.9929767984,chinese_cond2,001,1038,
images/cake.jpg,cake,z,sounds/greatgatsby_chinese.wav,,,,,,,,,0,0,0,0,0,68,68,23,251.922325844,9.94268202703e-06,252.868603608,0.946288669416,,,,,x,0,0.933834016866,2018_Nov_15_1536,59.9929767984,chinese_cond2,001,1038,
images/binder03b.jpg,dj mixer,x,sounds/greatgatsby_chinese.wav,,,,,,,,,0,0,0,0,0,69,69,167,254.077687948,9.94268202703e-06,255.069230574,0.99155353124,,,,,x,1,0.967182734629,2018_Nov_15_1536,59.9929767984,chinese_cond2,001,1038,
images/cactus.jpg,cactus,z,sounds/greatgatsby_chinese.wav,,,,,,,,,0,0,0,0,0,70,70,70,256.282566533,9.62195031207e-06,257.086317875,0.803762246738,,,,,z,1,0.783645314383,2018_Nov_15_1536,59.9929767984,chinese_cond2,001,1038,
images/notebook02b.jpg,notebook,z,sounds/greatgatsby_chinese.wav,,,,,,,,,0,0,0,0,0,71,71,7,258.254749154,9.62195031207e-06,259.437134827,1.18239625693,,,,,z,1,1.16724168511,2018_Nov_15_1536,59.9929767984,chinese_cond2,001,1038,
images/dolphin01.jpg,dolphin,z,sounds/greatgatsby_chinese.wav,,,,,,,,,0,0,0,0,0,72,72,99,260.557194637,9.62195031207e-06,261.487719024,0.930535612282,,,,,z,1,0.917165912252,2018_Nov_15_1536,59.9929767984,chinese_cond2,001,1038,
images/hairband.jpg,hairband,z,sounds/greatgatsby_chinese.wav,,,,,,,,,0,0,0,0,0,73,73,66,262.728320383,9.62195053944e-06,264.071788089,1.34347957308,,,,,z,1,1.33395576661,2018_Nov_15_1536,59.9929767984,chinese_cond2,001,1038,
images/flower01.jpg,bus,x,sounds/greatgatsby_chinese.wav,,,,,,,,,0,0,0,0,0,74,74,140,265.216563482,9.62195031207e-06,267.172681615,1.95612807586,,,,,x,1,1.9341432022,2018_Nov_15_1536,59.9929767984,chinese_cond2,001,1038,
images/calculator02b.jpg,dice,x,sounds/greatgatsby_chinese.wav,,,,,,,,,0,0,0,0,0,75,75,165,268.347419762,9.3012185971e-06,269.590029863,1.24262068572,,,,,z,0,1.23393719625,2018_Nov_15_1536,59.9929767984,chinese_cond2,001,1038,
images/safe.jpg,safe,z,sounds/greatgatsby_chinese.wav,,,,,,,,,0,0,0,0,0,76,76,78,270.764694562,9.62195031207e-06,271.457213271,0.692529293226,,,,,z,1,0.683767865957,2018_Nov_15_1536,59.9929767984,chinese_cond2,001,1038,
images/dragonfly02.jpg,dragon fly,z,sounds/greatgatsby_chinese.wav,,,,,,,,,0,0,0,0,0,77,77,29,272.619735711,9.62195031207e-06,273.341092688,0.72136756139,,,,,z,1,0.70043949862,2018_Nov_15_1536,59.9929767984,chinese_cond2,001,1038,
images/bandaid01.jpg,door handle,x,sounds/greatgatsby_chinese.wav,,,,,,,,,0,0,0,0,0,78,78,170,274.519410521,9.94268202703e-06,276.275261228,1.75586129125,,,,,x,1,1.73407687489,2018_Nov_15_1536,59.9929767984,chinese_cond2,001,1038,
images/saltshaker03c.jpg,salt shaker,z,sounds/greatgatsby_chinese.wav,,,,,,,,,0,0,0,0,0,79,79,63,277.455913667,9.30121882448e-06,279.059386036,1.60348263286,,,,,z,1,1.58401742728,2018_Nov_15_1536,59.9929767984,chinese_cond2,001,1038,
images/seagull.jpg,seagull,z,sounds/greatgatsby_chinese.wav,,,,,,,,,0,0,0,0,0,80,80,50,280.20287754,9.62195031207e-06,281.093295714,0.890428757315,,,,,z,1,0.867159674021,2018_Nov_15_1536,59.9929767984,chinese_cond2,001,1038,
images/gorilla.jpg,gorilla,z,sounds/greatgatsby_chinese.wav,,,,,,,,,0,0,0,0,0,81,81,80,282.262732486,1.0584145457e-05,283.310587577,1.04786599574,,,,,z,1,1.03387375552,2018_Nov_15_1536,59.9929767984,chinese_cond2,001,1038,
images/sock03.jpg,sock,z,sounds/greatgatsby_chinese.wav,,,,,,,,,0,0,0,0,0,82,82,90,284.442847379,9.3012185971e-06,285.211125156,0.768287719408,,,,,z,1,0.750450868557,2018_Nov_15_1536,59.9929767984,chinese_cond2,001,1038,
images/cola.jpg,comb,x,sounds/greatgatsby_chinese.wav,,,,,,,,,0,0,0,0,0,83,83,157,286.398838823,9.9426822544e-06,287.561793929,1.16296569037,,,,,x,1,1.15056363782,2018_Nov_15_1536,59.9929767984,chinese_cond2,001,1038,
images/treadmill.jpg,lily,x,sounds/greatgatsby_chinese.wav,,,,,,,,,0,0,0,0,0,84,84,199,288.752751156,1.0263413742e-05,289.679066581,0.926326008998,,,,,x,1,0.917176175666,2018_Nov_15_1536,59.9929767984,chinese_cond2,001,1038,
images/highlighter03b.jpg,coin,x,sounds/greatgatsby_chinese.wav,,,,,,,,,0,0,0,0,0,85,85,156,290.843357535,9.3012185971e-06,291.779659261,0.936311989816,,,,,x,1,0.917171043959,2018_Nov_15_1536,59.9929767984,chinese_cond2,001,1038,
images/elbow.jpg,elbow,z,sounds/greatgatsby_chinese.wav,,,,,,,,,0,0,0,0,0,86,86,105,292.995403594,9.9426822544e-06,294.146993573,1.1516002426,,,,,z,1,1.13389489174,2018_Nov_15_1536,59.9929767984,chinese_cond2,001,1038,
images/hanger02a.jpg,hanger,z,sounds/greatgatsby_chinese.wav,,,,,,,,,0,0,0,0,0,87,87,88,295.295017979,9.3012185971e-06,296.080889812,0.785881776379,,,,,z,1,0.767136292682,2018_Nov_15_1536,59.9929767984,chinese_cond2,001,1038,
images/giraffe.jpg,lettuce,x,sounds/greatgatsby_chinese.wav,,,,,,,,,0,0,0,0,0,88,88,195,297.265945576,9.94268202703e-06,298.064789082,0.798854089858,,,,,x,1,0.783808246076,2018_Nov_15_1536,59.9929767984,chinese_cond2,001,1038,
images/antelope.jpg,antelope,z,sounds/greatgatsby_chinese.wav,,,,,,,,,0,0,0,0,0,89,89,12,299.238409479,9.3012185971e-06,299.965324415,0.726924879188,,,,,z,1,0.717121073964,2018_Nov_15_1536,59.9929767984,chinese_cond2,001,1038,
images/puma.jpg,puma,z,sounds/greatgatsby_chinese.wav,,,,,,,,,0,0,0,0,0,90,90,4,301.063259833,9.3012185971e-06,301.815845171,0.752595922025,,,,,z,1,0.733790782236,2018_Nov_15_1536,59.9929767984,chinese_cond2,001,1038,
images/volleyball.jpg,volley ball,z,sounds/greatgatsby_chinese.wav,,,,,,,,,0,0,0,0,0,91,91,2,302.946575404,9.62195031207e-06,303.766404062,0.819838601404,,,,,z,1,0.800474747031,2018_Nov_15_1536,59.9929767984,chinese_cond2,001,1038,
images/beermug01b.jpg,beer mug,z,sounds/greatgatsby_chinese.wav,,,,,,,,,0,0,0,0,0,92,92,111,304.965720519,9.3012185971e-06,305.65026648,0.684555903692,,,,,x,0,0.667100723539,2018_Nov_15_1536,59.9929767984,chinese_cond2,001,1038,
images/radish01.jpg,raisin,x,sounds/greatgatsby_chinese.wav,,,,,,,,,0,0,0,0,0,93,93,214,306.832451375,9.94268202703e-06,307.584159191,0.75171807942,,,,,x,1,0.733792706626,2018_Nov_15_1536,59.9929767984,chinese_cond2,001,1038,
images/feather03b.jpg,feather,z,sounds/greatgatsby_chinese.wav,,,,,,,,,0,0,0,0,0,94,94,114,308.754658868,1.0263413742e-05,309.351322425,0.596673820052,,,,,z,1,0.583745446813,2018_Nov_15_1536,59.9929767984,chinese_cond2,001,1038,
images/shotglass.jpg,shot glass,z,sounds/greatgatsby_chinese.wav,,,,,,,,,0,0,0,0,0,95,95,86,310.524963348,1.0584145457e-05,311.31855359,0.793601146423,,,,,z,1,0.783775852176,2018_Nov_15_1536,59.9929767984,chinese_cond2,001,1038,
images/bat.jpg,hand,x,sounds/greatgatsby_chinese.wav,,,,,,,,,0,0,0,0,0,96,96,185,312.486317426,9.62195031207e-06,313.285780265,0.799472781267,,,,,x,1,0.783810170466,2018_Nov_15_1536,59.9929767984,chinese_cond2,001,1038,
images/bus.jpg,microphone,x,sounds/greatgatsby_chinese.wav,,,,,,,,,0,0,0,0,0,97,97,203,314.472689858,9.94268202703e-06,315.30301414,0.830334545592,,,,,x,1,0.817142210181,2018_Nov_15_1536,59.9929767984,chinese_cond2,001,1038,
images/pen03c.jpg,pepper,x,sounds/greatgatsby_chinese.wav,,,,,,,,,0,0,0,0,0,98,98,211,316.46533516,1.0263413742e-05,317.93710131,1.47177705556,,,,,x,1,1.45066489281,2018_Nov_15_1536,59.9929767984,chinese_cond2,001,1038,
images/globe.jpg,cloud,x,sounds/greatgatsby_chinese.wav,,,,,,,,,0,0,0,0,0,99,99,154,319.136308718,9.62195053944e-06,320.787909121,1.65161066638,,,,,x,1,1.63403713624,2018_Nov_15_1536,59.9929767984,chinese_cond2,001,1038,
images/drink.jpg,drink,z,sounds/greatgatsby_chinese.wav,,,,,,,,,0,0,0,0,0,100,100,117,321.952585915,1.0263413742e-05,322.888497311,0.935922300826,,,,,z,1,0.917166232984,2018_Nov_15_1536,59.9929767984,chinese_cond2,001,1038,
images/lip.jpg,boxing glove,x,sounds/greatgatsby_chinese.wav,,,,,,,,,0,0,0,0,0,101,101,136,324.084356922,8.98048688214e-06,324.75570285,0.671356512184,,,,,x,1,0.650432298193,2018_Nov_15_1536,59.9929767984,chinese_cond2,001,1038,
images/pouch01b.jpg,pouch,z,sounds/greatgatsby_chinese.wav,,,,,,,,,0,0,0,0,0,102,102,25,325.960882923,9.30121882448e-06,327.006337017,1.04546467766,,,,,z,1,1.03387247259,2018_Nov_15_1536,59.9929767984,chinese_cond2,001,1038,
images/blueberry02.jpg,blueberry,z,sounds/greatgatsby_chinese.wav,,,,,,,,,0,0,0,0,0,103,103,46,328.174697093,9.30121882448e-06,329.040257599,0.865570448553,,,,,x,0,0.850463986483,2018_Nov_15_1536,59.9929767984,chinese_cond2,001,1038,
images/ant.jpg,ant,z,sounds/greatgatsby_chinese.wav,,,,,,,,,0,0,0,0,0,104,104,98,330.161357542,9.94268202703e-06,330.940808969,0.779462331828,,,,,z,1,0.767118652439,2018_Nov_15_1536,59.9929767984,chinese_cond2,001,1038,
images/comb02a.jpg,diploma,x,sounds/greatgatsby_chinese.wav,,,,,,,,,0,0,0,0,0,105,105,166,332.113875141,9.62195031207e-06,333.224767798,1.11090292061,,,,,x,1,1.10055034349,2018_Nov_15_1536,59.9929767984,chinese_cond2,001,1038,
images/bowl02b (1).jpg,bowl,z,sounds/greatgatsby_chinese.wav,,,,,,,,,0,0,0,0,0,106,106,24,334.366833971,8.98048710951e-06,337.175897592,2.80907324261,,,,,z,1,2.78436824359,2018_Nov_15_1536,59.9929767984,chinese_cond2,001,1038,
images/battery03b.jpg,battery,z,sounds/greatgatsby_chinese.wav,,,,,,,,,0,0,0,0,0,107,107,34,338.354650978,9.94268202703e-06,339.443276197,1.08864285918,,,,,x,0,1.06722375621,2018_Nov_15_1536,59.9929767984,chinese_cond2,001,1038,
images/fork01.jpg,cooking pot,x,sounds/greatgatsby_chinese.wav,,,,,,,,,0,0,0,0,0,108,108,160,340.605687022,1.0263413742e-05,342.54408505,1.9384086128,,,,,x,1,1.9174529671,2018_Nov_15_1536,59.9929767984,chinese_cond2,001,1038,
images/table02.jpg,table,z,sounds/greatgatsby_chinese.wav,,,,,,,,,0,0,0,0,0,109,109,49,343.731013887,1.2508535292e-05,344.527980471,0.796977809537,,,,,z,1,0.783595921704,2018_Nov_15_1536,59.9929767984,chinese_cond2,001,1038,
images/panda.jpg,panda,z,sounds/greatgatsby_chinese.wav,,,,,,,,,0,0,0,0,0,110,110,83,345.717616284,9.3012185971e-06,346.261811024,0.544205645455,,,,,z,1,0.533729586631,2018_Nov_15_1536,59.9929767984,chinese_cond2,001,1038,
images/tent.jpg,tent,z,sounds/greatgatsby_chinese.wav,,,,,,,,,0,0,0,0,0,111,111,11,347.459806387,9.30121882448e-06,348.129004696,0.6692082514,,,,,z,1,0.650425562828,2018_Nov_15_1536,59.9929767984,chinese_cond2,001,1038,
images/aloe02.jpg,broad sword,x,sounds/greatgatsby_chinese.wav,,,,,,,,,0,0,0,0,0,112,112,137,349.325352139,9.9426822544e-06,350.146237609,0.820896053749,,,,,x,1,0.800466408007,2018_Nov_15_1536,59.9929767984,chinese_cond2,001,1038,
images/cocktailshrimp01.jpg,cocktail shrimp,z,sounds/greatgatsby_chinese.wav,,,,,,,,,0,0,0,0,0,113,113,30,351.348733158,9.3012185971e-06,352.880361311,1.53163841609,,,,,x,0,1.51733827346,2018_Nov_15_1536,59.9929767984,chinese_cond2,001,1038,
images/corn01.jpg,corn,z,sounds/greatgatsby_chinese.wav,,,,,,,,,0,0,0,0,0,114,114,22,354.054589494,9.94268202703e-06,355.047638597,0.993059687203,,,,,z,1,0.983834161195,2018_Nov_15_1536,59.9929767984,chinese_cond2,001,1038,
images/raisin.jpg,ruler,x,sounds/greatgatsby_chinese.wav,,,,,,,,,0,0,0,0,0,115,115,218,356.224508968,9.94268202703e-06,356.898164805,0.673665780271,,,,,x,1,0.650430373803,2018_Nov_15_1536,59.9929767984,chinese_cond2,001,1038,
images/lychee02a.jpg,lychee,z,sounds/greatgatsby_chinese.wav,,,,,,,,,0,0,0,0,0,116,116,62,358.08502661,1.0263413742e-05,359.03210909,0.947092423003,,,,,z,1,0.933853260767,2018_Nov_15_1536,59.9929767984,chinese_cond2,001,1038,
images/bicycle.jpg,hand bag,x,sounds/greatgatsby_chinese.wav,,,,,,,,,0,0,0,0,0,117,117,186,360.176932593,9.9426822544e-06,360.849294599,0.672372590142,,,,,x,1,0.650434222583,2018_Nov_15_1536,59.9929767984,chinese_cond2,001,1038,
images/ladybug03.jpg,giraffe,x,sounds/greatgatsby_chinese.wav,,,,,,,,,0,0,0,0,0,118,118,178,362.021673443,9.62195031207e-06,362.73317594,0.711512759829,,,,,x,1,0.700447516911,2018_Nov_15_1536,59.9929767984,chinese_cond2,001,1038,
images/candle08a.jpg,screw driver,x,sounds/greatgatsby_chinese.wav,,,,,,,,,0,0,0,0,0,119,119,221,363.9131016,9.62195031207e-06,364.567008706,0.653917368615,,,,,x,1,0.633747515532,2018_Nov_15_1536,59.9929767984,chinese_cond2,001,1038,
images/sportshorts02.jpg,tape,x,sounds/greatgatsby_chinese.wav,,,,,,,,,0,0,0,0,0,120,120,230,365.745898082,9.94268202703e-06,366.567586343,0.82169852441,,,,,x,1,0.800481803128,2018_Nov_15_1536,59.9929767984,chinese_cond2,001,1038,
images/razor04a.jpg,razor,z,sounds/greatgatsby_chinese.wav,,,,,,,,,0,0,0,0,0,121,121,36,367.745352197,9.62195031207e-06,368.601513661,0.85617204817,,,,,z,1,0.833840784305,2018_Nov_15_1536,59.9929767984,chinese_cond2,001,1038,
images/ashtray02b.jpg,ashtray,z,sounds/greatgatsby_chinese.wav,,,,,,,,,0,0,0,0,0,122,122,43,369.784723935,9.62195053944e-06,370.785445261,1.00073158896,,,,,z,1,0.98386174412,2018_Nov_15_1536,59.9929767984,chinese_cond2,001,1038,
images/dice05a.jpg,band aid,x,sounds/greatgatsby_chinese.wav,,,,,,,,,0,0,0,0,0,123,123,126,371.948737777,9.30121882448e-06,372.852711033,0.903983519524,,,,,x,1,0.883834514,2018_Nov_15_1536,59.9929767984,chinese_cond2,001,1038,
images/flashlight05.jpg,flash light,z,sounds/greatgatsby_chinese.wav,,,,,,,,,0,0,0,0,0,124,124,8,374.027126202,9.62195031207e-06,375.019981263,0.992865323806,,,,,z,1,0.983863027046,2018_Nov_15_1536,59.9929767984,chinese_cond2,001,1038,
images/cookingpot.jpg,grasshopper,x,sounds/greatgatsby_chinese.wav,,,,,,,,,0,0,0,0,0,125,125,183,376.206517204,9.3012185971e-06,377.153925868,0.947418286388,,,,,x,1,0.933843959548,2018_Nov_15_1536,59.9929767984,chinese_cond2,001,1038,
images/dresser02.jpg,dresser,z,sounds/greatgatsby_chinese.wav,,,,,,,,,0,0,0,0,0,126,126,87,378.356081441,8.98048710951e-06,379.354543854,0.998472675746,,,,,z,1,0.983855650218,2018_Nov_15_1536,59.9929767984,chinese_cond2,001,1038,
images/computermouse02a.jpg,world map,x,sounds/greatgatsby_chinese.wav,,,,,,,,,0,0,0,0,0,127,127,239,380.528988531,9.94268202703e-06,382.388749246,1.8597716198,,,,,x,1,1.8507831145,2018_Nov_15_1536,59.9929767984,chinese_cond2,001,1038,
images/lock02a.jpg,lock,z,sounds/greatgatsby_chinese.wav,,,,,,,,,0,0,0,0,0,128,128,65,383.578797519,9.62195031207e-06,384.205920322,0.627132745389,,,,,z,1,0.617063374335,2018_Nov_15_1536,59.9929767984,chinese_cond2,001,1038,
images/plant01.jpg,plant,z,sounds/greatgatsby_chinese.wav,,,,,,,,,0,0,0,0,0,129,129,47,385.3800324,9.62195031207e-06,386.03978035,0.659758533948,,,,,z,1,0.650429090876,2018_Nov_15_1536,59.9929767984,chinese_cond2,001,1038,
images/toucan.jpg,toucan,z,sounds/greatgatsby_chinese.wav,,,,,,,,,0,0,0,0,0,130,130,81,387.207816488,9.3012185971e-06,388.17372271,0.965916806693,,,,,z,1,0.950407826366,2018_Nov_15_1536,59.9929767984,chinese_cond2,001,1038,
images/snowman.jpg,globe,x,sounds/greatgatsby_chinese.wav,,,,,,,,,0,0,0,0,0,131,131,180,389.408616008,9.62195031207e-06,390.441043263,1.03243816053,,,,,x,1,1.01721398993,2018_Nov_15_1536,59.9929767984,chinese_cond2,001,1038,
images/ceilingfan02.jpg,paper clip,x,sounds/greatgatsby_chinese.wav,,,,,,,,,0,0,0,0,0,132,132,208,391.604259124,9.62195031207e-06,392.658519227,1.05428736468,,,,,x,1,1.03398665307,2018_Nov_15_1536,59.9929767984,chinese_cond2,001,1038,
images/banjo.jpg,knife,x,sounds/greatgatsby_chinese.wav,,,,,,,,,0,0,0,0,0,133,133,191,393.775123794,9.94268202703e-06,394.45885221,0.683739000106,,,,,x,1,0.667107138172,2018_Nov_15_1536,59.9929767984,chinese_cond2,001,1038,
images/parrot01.jpg,chameleon,x,sounds/greatgatsby_chinese.wav,,,,,,,,,0,0,0,0,0,134,134,150,395.646284917,9.30121882448e-06,396.69280833,1.04653367635,,,,,x,1,1.03387535918,2018_Nov_15_1536,59.9929767984,chinese_cond2,001,1038,
images/key03b.jpg,cigar,x,sounds/greatgatsby_chinese.wav,,,,,,,,,0,0,0,0,0,135,135,153,397.832816688,9.3012185971e-06,398.710047337,0.877240591416,,,,,x,1,0.867160956948,2018_Nov_15_1536,59.9929767984,chinese_cond2,001,1038,
images/desktopcomputer.jpg,desktop computer,z,sounds/greatgatsby_chinese.wav,,,,,,,,,0,0,0,0,0,136,136,16,399.918182632,9.62195031207e-06,401.010720777,1.09254776737,,,,,z,1,1.08390661448,2018_Nov_15_1536,59.9929767984,chinese_cond2,001,1038,
images/peach01.jpg,peach,z,sounds/greatgatsby_chinese.wav,,,,,,,,,0,0,0,0,0,137,137,106,402.199498632,9.3012185971e-06,402.977925963,0.778437594115,,,,,z,1,0.767124104878,2018_Nov_15_1536,59.9929767984,chinese_cond2,001,1038,
images/lighter02b.jpg,stapler,x,sounds/greatgatsby_chinese.wav,,,,,,,,,0,0,0,0,0,138,138,227,404.121352038,4.1053654968e-05,405.261924884,1.14059433504,,,,,x,1,1.11724635176,2018_Nov_15_1536,59.9929767984,chinese_cond2,001,1038,
images/cauliflower01.jpg,glue stick,x,sounds/greatgatsby_chinese.wav,,,,,,,,,0,0,0,0,0,139,139,181,406.460781411,8.98048710951e-06,407.495872023,1.03510023346,,,,,x,1,1.0171944253,2018_Nov_15_1536,59.9929767984,chinese_cond2,001,1038,
images/toothbrush03a.jpg,parrot,x,sounds/greatgatsby_chinese.wav,,,,,,,,,0,0,0,0,0,140,140,210,408.644050059,1.0263413742e-05,409.329729485,0.685690652371,,,,,x,1,0.667102006465,2018_Nov_15_1536,59.9929767984,chinese_cond2,001,1038,
images/cigar.jpg,crocodile,x,sounds/greatgatsby_chinese.wav,,,,,,,,,0,0,0,0,0,141,141,162,410.498553981,9.62195031207e-06,411.246942545,0.748398506545,,,,,x,1,0.733782763944,2018_Nov_15_1536,59.9929767984,chinese_cond2,001,1038,
images/triangleruler02.jpg,bottle of red wine,x,sounds/greatgatsby_chinese.wav,,,,,,,,,0,0,0,0,0,142,142,134,412.435677743,1.0263413742e-05,412.980775664,0.545108825862,,,,,x,1,0.533729907363,2018_Nov_15_1536,59.9929767984,chinese_cond2,001,1038,
images/cockroach02.jpg,belt,x,sounds/greatgatsby_chinese.wav,,,,,,,,,0,0,0,0,0,143,143,129,414.169179867,1.0263413742e-05,414.914658111,0.745488828755,,,,,x,1,0.733781481017,2018_Nov_15_1536,59.9929767984,chinese_cond2,001,1038,
images/electricguitar02.jpg,electric guitar,z,sounds/greatgatsby_chinese.wav,,,,,,,,,0,0,0,0,0,144,144,100,416.083240134,9.9426822544e-06,416.681835458,0.598605586953,,,,,x,0,0.583753465105,2018_Nov_15_1536,59.9929767984,chinese_cond2,001,1038,
images/belt02a.jpg,snowman,x,sounds/greatgatsby_chinese.wav,,,,,,,,,0,0,0,0,0,145,145,224,417.868921132,9.62195031207e-06,418.54907788,0.6801670114,,,,,x,1,0.667148191827,2018_Nov_15_1536,59.9929767984,chinese_cond2,001,1038,
images/nametag01a.jpg,name tag,z,sounds/greatgatsby_chinese.wav,,,,,,,,,0,0,0,0,0,146,146,108,419.793980893,1.05841452296e-05,420.983041312,1.18907164536,,,,,z,1,1.16724008145,2018_Nov_15_1536,59.9929767984,chinese_cond2,001,1038,
images/plate01b.jpg,plate,z,sounds/greatgatsby_chinese.wav,,,,,,,,,0,0,0,0,0,147,147,3,422.124397385,9.62195031207e-06,422.850247493,0.72586101221,,,,,z,1,0.717122998354,2018_Nov_15_1536,59.9929767984,chinese_cond2,001,1038,
images/mirror02.jpg,8 ball,x,sounds/greatgatsby_chinese.wav,,,,,,,,,0,0,0,0,0,148,148,121,424.038971465,1.0263413742e-05,425.251129697,1.21216849575,,,,,x,1,1.2007789931,2018_Nov_15_1536,59.9929767984,chinese_cond2,001,1038,
images/ear.jpg,bullet,x,sounds/greatgatsby_chinese.wav,,,,,,,,,0,0,0,0,0,149,149,139,426.378948327,1.0263413742e-05,427.201497753,0.822560651162,,,,,x,1,0.800487576298,2018_Nov_15_1536,59.9929767984,chinese_cond2,001,1038,
images/watermelon01.jpg,orange,x,sounds/greatgatsby_chinese.wav,,,,,,,,,0,0,0,0,0,150,150,207,428.394841865,9.62195031207e-06,429.051999265,0.657167984179,,,,,x,1,0.633751364312,2018_Nov_15_1536,59.9929767984,chinese_cond2,001,1038,
images/scooter.jpg,pen,x,sounds/greatgatsby_chinese.wav,,,,,,,,,0,0,0,0,0,151,151,212,430.207040638,9.62195031207e-06,430.752473082,0.54544270754,,,,,x,1,0.533720606144,2018_Nov_15_1536,59.9929767984,chinese_cond2,001,1038,
images/tie01.jpg,bench,x,sounds/greatgatsby_chinese.wav,,,,,,,,,0,0,0,0,0,152,152,130,431.917266943,9.62195031207e-06,432.486306201,0.56904920056,,,,,x,1,0.550386786368,2018_Nov_15_1536,59.9929767984,chinese_cond2,001,1038,
images/rubberglove02a.jpg,lady bug,x,sounds/greatgatsby_chinese.wav,,,,,,,,,0,0,0,0,0,153,153,192,433.657177285,9.62195053944e-06,434.253488037,0.596321015206,,,,,x,1,0.583757313885,2018_Nov_15_1536,59.9929767984,chinese_cond2,001,1038,
images/bowlingball.jpg,bowling ball,z,sounds/greatgatsby_chinese.wav,,,,,,,,,0,0,0,0,0,154,154,20,435.45205302,9.3012185971e-06,436.170861142,0.718818065276,,,,,z,1,0.700612372994,2018_Nov_15_1536,59.9929767984,chinese_cond2,001,1038,
images/hat05.jpg,hat,z,sounds/greatgatsby_chinese.wav,,,,,,,,,0,0,0,0,0,155,155,15,437.346894724,9.62195053944e-06,438.287967334,0.941082552806,,,,,z,1,0.917161101277,2018_Nov_15_1536,59.9929767984,chinese_cond2,001,1038,
images/licenseplate.jpg,license plate,z,sounds/greatgatsby_chinese.wav,,,,,,,,,0,0,0,0,0,156,156,40,439.503886466,9.3012185971e-06,440.505085361,1.00120947916,,,,,z,1,0.983686303891,2018_Nov_15_1536,59.9929767984,chinese_cond2,001,1038,
images/orange.jpg,bat,x,sounds/greatgatsby_chinese.wav,,,,,,,,,0,0,0,0,0,157,157,128,441.696094547,9.3012185971e-06,442.439152229,0.743068266776,,,,,x,1,0.733802007845,2018_Nov_15_1536,59.9929767984,chinese_cond2,001,1038,
images/thumbtack02a.jpg,thumb tack,z,sounds/greatgatsby_chinese.wav,,,,,,,,,0,0,0,0,0,158,158,60,443.617354278,9.62195031207e-06,444.339675375,0.722331680817,,,,,z,1,0.700442385204,2018_Nov_15_1536,59.9929767984,chinese_cond2,001,1038,
images/envelope02a.jpg,grand piano,x,sounds/greatgatsby_chinese.wav,,,,,,,,,0,0,0,0,0,159,159,182,445.524983554,9.94268202703e-06,446.657212887,1.13223927481,,,,,x,1,1.11737881394,2018_Nov_15_1536,59.9929767984,chinese_cond2,001,1038,
images/lantern03.jpg,lantern,z,sounds/greatgatsby_chinese.wav,,,,,,,,,0,0,0,0,0,160,160,5,447.789075302,9.30121882448e-06,448.924314701,1.13524966235,,,,,x,0,1.11721748591,2018_Nov_15_1536,59.9929767984,chinese_cond2,001,1038,
images/lightswitch02a.jpg,fork,x,sounds/greatgatsby_chinese.wav,,,,,,,,,0,0,0,0,0,161,161,177,450.067713513,9.62195031207e-06,450.92487983,0.857176579788,,,,,x,1,0.833809994063,2018_Nov_15_1536,59.9929767984,chinese_cond2,001,1038,
images/baseball01a.jpg,baseball,z,sounds/greatgatsby_chinese.wav,,,,,,,,,0,0,0,0,0,162,162,74,452.147181522,9.94268202703e-06,453.008819159,0.861647900122,,,,,z,1,0.850494135261,2018_Nov_15_1536,59.9929767984,chinese_cond2,001,1038,
images/mushroom01.jpg,shower head,x,sounds/greatgatsby_chinese.wav,,,,,,,,,0,0,0,0,0,163,163,222,454.206858141,9.30121882448e-06,455.142751576,0.935903377657,,,,,x,1,0.917173930544,2018_Nov_15_1536,59.9929767984,chinese_cond2,001,1038,
images/knife04.jpg,tooth brush,x,sounds/greatgatsby_chinese.wav,,,,,,,,,0,0,0,0,0,164,164,233,456.33454912,9.62195031207e-06,457.493408804,1.15887026756,,,,,x,1,1.15056363782,2018_Nov_15_1536,59.9929767984,chinese_cond2,001,1038,
images/lion.jpg,lion,z,sounds/greatgatsby_chinese.wav,,,,,,,,,0,0,0,0,0,165,165,44,458.675081169,9.94268202703e-06,459.443980203,0.768909618134,,,,,z,1,0.75047043319,2018_Nov_15_1536,59.9929767984,chinese_cond2,001,1038,
images/tulip02.jpg,sport shorts,x,sounds/greatgatsby_chinese.wav,,,,,,,,,0,0,0,0,0,166,166,225,460.60969264,9.3012185971e-06,462.728247897,2.11856487969,,,,,x,1,2.10084862395,2018_Nov_15_1536,59.9929767984,chinese_cond2,001,1038,
images/weight01.jpg,weight,z,sounds/greatgatsby_chinese.wav,,,,,,,,,0,0,0,0,0,167,167,67,463.906658742,9.62195053944e-06,464.828840257,0.922191777659,,,,,z,1,0.90049427959,2018_Nov_15_1536,59.9929767984,chinese_cond2,001,1038,
images/pineapple01a.jpg,pineapple,z,sounds/greatgatsby_chinese.wav,,,,,,,,,0,0,0,0,0,168,168,51,466.020694891,9.3012185971e-06,467.596320694,1.57563574632,,,,,z,1,1.56739005559,2018_Nov_15_1536,59.9929767984,chinese_cond2,001,1038,
images/lamp04b.jpg,parking meter,x,sounds/greatgatsby_chinese.wav,,,,,,,,,0,0,0,0,0,169,169,209,468.803565638,9.62195053944e-06,469.630259238,0.826703862989,,,,,x,1,0.817209563834,2018_Nov_15_1536,59.9929767984,chinese_cond2,001,1038,
images/handfan01b.jpg,handfan,z,sounds/greatgatsby_chinese.wav,,,,,,,,,0,0,0,0,0,170,170,69,470.807109082,1.0263413742e-05,471.680789231,0.873691053927,,,,,z,1,0.850492531603,2018_Nov_15_1536,59.9929767984,chinese_cond2,001,1038,
images/parkbench03.jpg,park bench,z,sounds/greatgatsby_chinese.wav,,,,,,,,,0,0,0,0,0,171,171,71,472.81704567,1.21878038044e-05,474.581617071,1.76458230632,,,,,x,0,1.75069462463,2018_Nov_15_1536,59.9929767984,chinese_cond2,001,1038,
images/ladder.jpg,ladder,z,sounds/greatgatsby_chinese.wav,,,,,,,,,0,0,0,0,0,172,172,113,475.746637369,9.94268202703e-06,476.432129168,0.685501741413,,,,,z,1,0.667098478417,2018_Nov_15_1536,59.9929767984,chinese_cond2,001,1038,
images/chessknight02b (1).jpg,cockroach,x,sounds/greatgatsby_chinese.wav,,,,,,,,,0,0,0,0,0,173,173,155,477.606132518,9.62195031207e-06,478.499391412,0.893269798526,,,,,x,1,0.883833872537,2018_Nov_15_1536,59.9929767984,chinese_cond2,001,1038,
images/printer03a.jpg,printer,z,sounds/greatgatsby_chinese.wav,,,,,,,,,0,0,0,0,0,174,174,72,479.608162429,9.62195053944e-06,480.583310535,0.975158690017,,,,,z,1,0.967185300482,2018_Nov_15_1536,59.9929767984,chinese_cond2,001,1038,
images/handbag02a.jpg,candle,x,sounds/greatgatsby_chinese.wav,,,,,,,,,0,0,0,0,0,175,175,144,481.75951218,1.0263413742e-05,482.567207239,0.80770596346,,,,,x,1,0.783796699735,2018_Nov_15_1536,59.9929767984,chinese_cond2,001,1038,
images/kiwi03.jpg,backpack,x,sounds/greatgatsby_chinese.wav,,,,,,,,,0,0,0,0,0,176,176,125,483.759704298,9.62195031207e-06,484.984571844,1.22487716779,,,,,x,1,1.20059810043,2018_Nov_15_1536,59.9929767984,chinese_cond2,001,1038,
images/glasses01b.jpg,calculator,x,sounds/greatgatsby_chinese.wav,,,,,,,,,0,0,0,0,0,177,177,142,486.092048388,9.3012185971e-06,487.501942191,1.40990374522,,,,,x,1,1.40063812775,2018_Nov_15_1536,59.9929767984,chinese_cond2,001,1038,
images/masquerademask02b.jpg,mirror,x,sounds/greatgatsby_chinese.wav,,,,,,,,,0,0,0,0,0,178,178,204,488.681961505,1.0263413742e-05,491.019618515,2.33766759433,,,,,z,0,2.31757920709,2018_Nov_15_1536,59.9929767984,chinese_cond2,001,1038,
images/chameleon.jpg,50 dollar bill,x,sounds/greatgatsby_chinese.wav,,,,,,,,,0,0,0,0,0,179,179,120,492.206365497,9.3012185971e-06,493.637022827,1.43066759337,,,,,x,1,1.41730206285,2018_Nov_15_1536,59.9929767984,chinese_cond2,001,1038,
images/fireextinguisher02.jpg,fire extinguisher,z,sounds/greatgatsby_chinese.wav,,,,,,,,,0,0,0,0,0,180,180,175,494.818226283,9.3012185971e-06,496.90461953,2.0864035106,,,,,z,1,2.06750535862,2018_Nov_15_1536,59.9929767984,chinese_cond2,001,1038,
images/swallow.jpg,mattress,x,sounds/greatgatsby_chinese.wav,,,,,,,,,0,0,0,0,0,181,181,202,498.083588128,8.98048710951e-06,498.871844281,0.788266095679,,,,,x,1,0.767135330487,2018_Nov_15_1536,59.9929767984,chinese_cond2,001,1038,
images/tissuebox03.jpg,tissue box,z,sounds/greatgatsby_chinese.wav,,,,,,,,,0,0,0,0,0,182,182,58,500.053619601,9.94268202703e-06,500.905765184,0.852156487552,,,,,z,1,0.833825068452,2018_Nov_15_1536,59.9929767984,chinese_cond2,001,1038,
images/pictureframe04.jpg,picture frame,z,sounds/greatgatsby_chinese.wav,,,,,,,,,0,0,0,0,0,183,183,41,502.089673049,1.0263413742e-05,502.90632454,0.816662716322,,,,,z,1,0.800438183619,2018_Nov_15_1536,59.9929767984,chinese_cond2,001,1038,
images/magnifyingglass01b.jpg,magnifying glass,z,sounds/greatgatsby_chinese.wav,,,,,,,,,0,0,0,0,0,184,184,64,504.087739037,9.94268202703e-06,504.940240632,0.852511858252,,,,,z,1,0.833810314795,2018_Nov_15_1536,59.9929767984,chinese_cond2,001,1038,
images/gluestick.jpg,squirrel,x,sounds/greatgatsby_chinese.wav,,,,,,,,,0,0,0,0,0,185,185,226,506.120014908,9.62195031207e-06,506.84076923,0.720764906566,,,,,x,1,0.700436932766,2018_Nov_15_1536,59.9929767984,chinese_cond2,001,1038,
images/bench02.jpg,electric toothbrush,x,sounds/greatgatsby_chinese.wav,,,,,,,,,0,0,0,0,0,186,186,172,508.026874749,9.3012185971e-06,509.091410132,1.06454564669,,,,,x,1,1.05053704916,2018_Nov_15_1536,59.9929767984,chinese_cond2,001,1038,
images/paintbrush03a.jpg,paint brush,z,sounds/greatgatsby_chinese.wav,,,,,,,,,0,0,0,0,0,187,187,0,510.222461096,9.94268202703e-06,511.041966778,0.819515945336,,,,,z,1,0.800476992153,2018_Nov_15_1536,59.9929767984,chinese_cond2,001,1038,
images/flamingo.jpg,flamingo,z,sounds/greatgatsby_chinese.wav,,,,,,,,,0,0,0,0,0,188,188,52,512.205122341,9.3012185971e-06,513.80943599,1.60432391205,,,,,z,1,1.58404116142,2018_Nov_15_1536,59.9929767984,chinese_cond2,001,1038,
images/aquarium.jpg,computer mouse,x,sounds/greatgatsby_chinese.wav,,,,,,,,,0,0,0,0,0,189,189,159,515.020095123,9.30121882448e-06,515.80999278,0.789907921142,,,,,x,1,0.767128915853,2018_Nov_15_1536,59.9929767984,chinese_cond2,001,1038,
images/basketball01.jpg,basket ball,z,sounds/greatgatsby_chinese.wav,,,,,,,,,0,0,0,0,0,190,190,33,517.013042874,9.62195053944e-06,517.643836772,0.630804481648,,,,,z,1,0.617081976772,2018_Nov_15_1536,59.9929767984,chinese_cond2,001,1038,
images/teapot.jpg,light switch,x,sounds/greatgatsby_chinese.wav,,,,,,,,,0,0,0,0,0,191,191,197,518.823149515,9.94268202703e-06,519.794447237,0.971307664749,,,,,x,1,0.950507573918,2018_Nov_15_1536,59.9929767984,chinese_cond2,001,1038,
images/8ball.jpg,nail clipper,x,sounds/greatgatsby_chinese.wav,,,,,,,,,0,0,0,0,0,192,192,206,521.010997889,9.30121882448e-06,522.061762979,1.05077567353,,,,,x,1,1.03386188845,2018_Nov_15_1536,59.9929767984,chinese_cond2,001,1038,
images/pipe.jpg,icecube,x,sounds/greatgatsby_chinese.wav,,,,,,,,,0,0,0,0,0,193,193,188,523.195847423,9.62195053944e-06,524.145688196,0.949851998367,,,,,x,1,0.933841393695,2018_Nov_15_1536,59.9929767984,chinese_cond2,001,1038,
images/icecube02 (2).jpg,aloe,x,sounds/greatgatsby_chinese.wav,,,,,,,,,0,0,0,0,0,194,194,122,525.335491751,9.94268202703e-06,526.546364811,1.21088364464,,,,,x,1,1.20058013946,2018_Nov_15_1536,59.9929767984,chinese_cond2,001,1038,
images/button07.jpg,radish,x,sounds/greatgatsby_chinese.wav,,,,,,,,,0,0,0,0,0,195,195,215,527.685510722,9.3012185971e-06,528.663638746,0.978137645849,,,,,x,1,0.967182413897,2018_Nov_15_1536,59.9929767984,chinese_cond2,001,1038,
images/carrot02.jpg,corkscrew,x,sounds/greatgatsby_chinese.wav,,,,,,,,,0,0,0,0,0,196,196,161,529.845982723,9.94268202703e-06,530.79775847,0.951786331121,,,,,x,1,0.934021003435,2018_Nov_15_1536,59.9929767984,chinese_cond2,001,1038,
images/donut.jpg,rhinoceros,x,sounds/greatgatsby_chinese.wav,,,,,,,,,0,0,0,0,0,197,197,216,531.993026973,9.62195031207e-06,532.9982116,1.005194891,,,,,x,1,0.98385981973,2018_Nov_15_1536,59.9929767984,chinese_cond2,001,1038,
images/floorlamp.jpg,floor lamp,z,sounds/greatgatsby_chinese.wav,,,,,,,,,0,0,0,0,0,198,198,26,534.159238468,9.62195031207e-06,535.165488566,1.00626068237,,,,,z,1,0.983860461193,2018_Nov_15_1536,59.9929767984,chinese_cond2,001,1038,
images/diploma01.jpg,glasses,x,sounds/greatgatsby_chinese.wav,,,,,,,,,0,0,0,0,0,199,199,179,536.3662156,9.62195031207e-06,538.399737834,2.03353281775,,,,,x,1,2.01748308381,2018_Nov_15_1536,59.9929767984,chinese_cond2,001,1038,
images/nailclipper03a.jpg,aquarium,x,sounds/greatgatsby_chinese.wav,,,,,,,,,0,0,0,0,0,200,200,123,539.530024174,1.0263413742e-05,540.750414305,1.22040103648,,,,,x,1,1.20059681751,2018_Nov_15_1536,59.9929767984,chinese_cond2,001,1038,
images/tank.jpg,wallet,x,sounds/greatgatsby_chinese.wav,,,,,,,,,0,0,0,0,0,201,201,237,541.930794122,9.94268202703e-06,543.284460133,1.35367659534,,,,,x,1,1.33395897393,2018_Nov_15_1536,59.9929767984,chinese_cond2,001,1038,
images/daisy.jpg,daisy,z,sounds/greatgatsby_chinese.wav,,,,,,,,,0,0,0,0,0,202,202,6,544.4119003,9.3012185971e-06,545.485084854,1.07319481787,,,,,z,1,1.05054346379,2018_Nov_15_1536,59.9929767984,chinese_cond2,001,1038,
images/showerhead01.jpg,skateboard,x,sounds/greatgatsby_chinese.wav,,,,,,,,,0,0,0,0,0,203,203,223,546.622386237,9.3012185971e-06,548.269212549,1.64683625461,,,,,z,0,1.63404258868,2018_Nov_15_1536,59.9929767984,chinese_cond2,001,1038,
images/lightbulb03b.jpg,treadmill,x,sounds/greatgatsby_chinese.wav,,,,,,,,,0,0,0,0,0,204,204,234,549.4428477,9.62195031207e-06,550.086227429,0.643390313454,,,,,x,1,0.633591319205,2018_Nov_15_1536,59.9929767984,chinese_cond2,001,1038,
images/bracelet02a.jpg,chess knight,x,sounds/greatgatsby_chinese.wav,,,,,,,,,0,0,0,0,0,205,205,152,551.269606728,9.94268202703e-06,551.936941586,0.667345121078,,,,,x,1,0.650439675022,2018_Nov_15_1536,59.9929767984,chinese_cond2,001,1038,
images/squirrel.jpg,binder,x,sounds/greatgatsby_chinese.wav,,,,,,,,,0,0,0,0,0,206,206,132,553.107585593,9.62195053944e-06,555.10454666,1.99697133076,,,,,x,1,1.98420204043,2018_Nov_15_1536,59.9929767984,chinese_cond2,001,1038,
images/lettuce.jpg,mushroom,x,sounds/greatgatsby_chinese.wav,,,,,,,,,0,0,0,0,0,207,207,205,556.29617582,9.94268202703e-06,558.355409509,2.05924427277,,,,,x,1,2.05081351987,2018_Nov_15_1536,59.9929767984,chinese_cond2,001,1038,
images/barrel01.jpg,barrel,z,sounds/greatgatsby_chinese.wav,,,,,,,,,0,0,0,0,0,208,208,9,559.559026656,9.62195031207e-06,560.989491868,1.43047611656,,,,,z,1,1.41731553358,2018_Nov_15_1536,59.9929767984,chinese_cond2,001,1038,
images/electrictoothbrush01a.jpg,banjo,x,sounds/greatgatsby_chinese.wav,,,,,,,,,0,0,0,0,0,209,209,127,562.158926396,9.94268202703e-06,562.773347582,0.614432091642,,,,,x,1,0.600431512401,2018_Nov_15_1536,59.9929767984,chinese_cond2,001,1038,
,,,sounds/greatgatsby_chinese.wav,,,,,,,,,0,0,0,0,,,,,,,,,,,,,,,,2018_Nov_15_1536,59.9929767984,chinese_cond2,001,1038,
images/masquerademask02b.jpg,mirror,x,sounds/animalfarm_english.wav,,,,,,,,,0,1,1,1,0,0,0,204,583.904836666,9.94268202703e-06,585.413117797,1.50829203646,,,,573.776664269,x,1,1.48401008252,2018_Nov_15_1536,59.9929767984,chinese_cond2,001,1038,
images/diaper01a.jpg,camera,x,sounds/animalfarm_english.wav,,,,,,,,,0,1,1,1,0,1,1,143,586.530806117,8.98048688214e-06,587.313643188,0.782847333966,,,,,x,1,0.767107426831,2018_Nov_15_1536,59.9929767984,chinese_cond2,001,1038,
images/grasshopper.jpg,cauliflower,x,sounds/animalfarm_english.wav,,,,,,,,,0,1,1,1,0,2,2,148,588.477563697,9.30121882448e-06,590.964670443,2.48711636883,,,,,x,1,2.46760594008,2018_Nov_15_1536,59.9929767984,chinese_cond2,001,1038,
images/beachumbrella01.jpg,beach umbrella,z,sounds/animalfarm_english.wav,,,,,,,,,0,1,1,1,0,3,3,92,592.067263848,9.3012185971e-06,593.031938461,0.964684555583,,,,,z,1,0.950525855624,2018_Nov_15_1536,59.9929767984,chinese_cond2,001,1038,
images/cat.jpg,black olive,x,sounds/animalfarm_english.wav,,,,,,,,,0,1,1,1,0,4,4,133,594.159776976,9.3012185971e-06,596.499581606,2.33981425146,,,,,x,1,2.31757183027,2018_Nov_15_1536,59.9929767984,chinese_cond2,001,1038,
images/daisy.jpg,daisy,z,sounds/animalfarm_english.wav,,,,,,,,,0,1,1,1,0,5,5,6,597.601335976,9.3012185971e-06,598.150052392,0.548727320662,,,,,z,1,0.533712908584,2018_Nov_15_1536,59.9929767984,chinese_cond2,001,1038,
images/pictureframe04.jpg,picture frame,z,sounds/animalfarm_english.wav,,,,,,,,,0,1,1,1,0,6,6,41,599.269811355,9.3012185971e-06,599.817205074,0.547403981755,,,,,z,1,0.533743378094,2018_Nov_15_1536,59.9929767984,chinese_cond2,001,1038,
images/leek.jpg,donut,x,sounds/animalfarm_english.wav,,,,,,,,,0,1,1,1,0,7,7,169,600.948067127,9.94268202703e-06,602.184529123,1.23647258017,,,,,x,1,1.21725786602,2018_Nov_15_1536,59.9929767984,chinese_cond2,001,1038,
images/lettuce.jpg,mushroom,x,sounds/animalfarm_english.wav,,,,,,,,,0,1,1,1,0,8,8,205,603.305727209,9.94268202703e-06,604.435169383,1.12945307872,,,,,x,1,1.11722967371,2018_Nov_15_1536,59.9929767984,chinese_cond2,001,1038,
images/razor04a.jpg,razor,z,sounds/animalfarm_english.wav,,,,,,,,,0,1,1,1,0,9,9,36,605.533662874,9.3012185971e-06,606.702491861,1.16883892887,,,,,z,1,1.15057935367,2018_Nov_15_1536,59.9929767984,chinese_cond2,001,1038,
images/mattress.jpg,cat,x,sounds/animalfarm_english.wav,,,,,,,,,0,1,1,1,0,10,10,147,607.879092817,9.3012185971e-06,608.636369176,0.757286302095,,,,,x,1,0.733786291992,2018_Nov_15_1536,59.9929767984,chinese_cond2,001,1038,
images/giraffe.jpg,lettuce,x,sounds/animalfarm_english.wav,,,,,,,,,0,1,1,1,0,11,11,195,609.737575095,1.0263413742e-05,610.55357967,0.816015159062,,,,,x,1,0.800476029958,2018_Nov_15_1536,59.9929767984,chinese_cond2,001,1038,
images/gps.jpg,gps,z,sounds/animalfarm_english.wav,,,,,,,,,0,1,1,1,0,12,12,21,611.669797115,8.98048688214e-06,612.354087132,0.684299959812,,,,,z,1,0.667099761343,2018_Nov_15_1536,59.9929767984,chinese_cond2,001,1038,
images/tissuebox03.jpg,tissue box,z,sounds/animalfarm_english.wav,,,,,,,,,0,1,1,1,0,13,13,58,613.478944126,9.30121882448e-06,615.805081416,2.32614755389,,,,,z,1,2.31758305587,2018_Nov_15_1536,59.9929767984,chinese_cond2,001,1038,
images/swallow.jpg,mattress,x,sounds/animalfarm_english.wav,,,,,,,,,0,1,1,1,0,14,14,202,616.904750389,9.62195031207e-06,617.772133292,0.867393808147,,,,,x,1,0.850323506008,2018_Nov_15_1536,59.9929767984,chinese_cond2,001,1038,
images/hanger02a.jpg,hanger,z,sounds/animalfarm_english.wav,,,,,,,,,0,1,1,1,0,15,15,88,618.865108274,9.3012185971e-06,619.689501265,0.824403254657,,,,,z,1,0.800469936056,2018_Nov_15_1536,59.9929767984,chinese_cond2,001,1038,
images/tie01.jpg,bench,x,sounds/animalfarm_english.wav,,,,,,,,,0,1,1,1,0,16,16,130,620.786285898,9.3012185971e-06,621.973488961,1.18721364675,,,,,x,1,1.16724008145,2018_Nov_15_1536,59.9929767984,chinese_cond2,001,1038,
images/worldmap.jpg,scooter,x,sounds/animalfarm_english.wav,,,,,,,,,0,1,1,1,0,17,17,220,623.176541621,9.3012185971e-06,624.007403129,0.830871771154,,,,,x,1,0.817152152863,2018_Nov_15_1536,59.9929767984,chinese_cond2,001,1038,
images/clothespin02a.jpg,clothes pin,z,sounds/animalfarm_english.wav,,,,,,,,,0,1,1,1,0,18,18,79,625.11052125,8.98048688214e-06,625.924634149,0.814122842157,,,,,z,1,0.800494953127,2018_Nov_15_1536,59.9929767984,chinese_cond2,001,1038,
images/flamingo.jpg,flamingo,z,sounds/animalfarm_english.wav,,,,,,,,,0,1,1,1,0,19,19,52,627.021551886,9.62195053944e-06,628.37531989,1.35377826729,,,,,z,1,1.33397404832,2018_Nov_15_1536,59.9929767984,chinese_cond2,001,1038,
images/toothbrush03a.jpg,parrot,x,sounds/animalfarm_english.wav,,,,,,,,,0,1,1,1,0,20,20,210,629.466132499,9.3012185971e-06,630.092475923,0.62635336741,,,,,x,1,0.617082618235,2018_Nov_15_1536,59.9929767984,chinese_cond2,001,1038,
images/cake.jpg,cake,z,sounds/animalfarm_english.wav,,,,,,,,,0,1,1,1,0,21,21,23,631.203475384,8.98048688214e-06,631.909644113,0.706179312743,,,,,z,1,0.683771394006,2018_Nov_15_1536,59.9929767984,chinese_cond2,001,1038,
images/lipstick04.jpg,lipstick,z,sounds/animalfarm_english.wav,,,,,,,,,0,1,1,1,0,22,22,56,633.081386946,9.62195053944e-06,633.826860059,0.745483697048,,,,,x,0,0.733798159064,2018_Nov_15_1536,59.9929767984,chinese_cond2,001,1038,
images/dreamcatcher.jpg,dream catcher,z,sounds/animalfarm_english.wav,,,,,,,,,0,1,1,1,0,23,23,48,634.998384154,9.3012185971e-06,636.577642244,1.57926835331,,,,,z,1,1.56735990681,2018_Nov_15_1536,59.9929767984,chinese_cond2,001,1038,
images/cigar.jpg,crocodile,x,sounds/animalfarm_english.wav,,,,,,,,,0,1,1,1,0,24,24,162,637.673374556,9.30121882448e-06,639.595378385,1.92201441304,,,,,x,1,1.90100456369,2018_Nov_15_1536,59.9929767984,chinese_cond2,001,1038,
images/bus.jpg,microphone,x,sounds/animalfarm_english.wav,,,,,,,,,0,1,1,1,0,25,25,203,640.711171822,9.62195031207e-06,641.712428128,1.00126689013,,,,,x,1,0.983850518511,2018_Nov_15_1536,59.9929767984,chinese_cond2,001,1038,
images/ostrich.jpg,ostrich,z,sounds/animalfarm_english.wav,,,,,,,,,0,1,1,1,0,26,26,76,642.812157078,9.62195031207e-06,643.863044366,1.05089723083,,,,,x,0,1.03387215186,2018_Nov_15_1536,59.9929767984,chinese_cond2,001,1038,
images/bracelet02a.jpg,chess knight,x,sounds/animalfarm_english.wav,,,,,,,,,0,1,1,1,0,27,27,152,644.970713349,8.98048710951e-06,645.746909029,0.776205301631,,,,,x,1,0.767135330487,2018_Nov_15_1536,59.9929767984,chinese_cond2,001,1038,
images/graduationcap.jpg,graduation cap,z,sounds/animalfarm_english.wav,,,,,,,,,0,1,1,1,0,28,28,35,646.848593159,9.94268202703e-06,647.414053692,0.565471117952,,,,,z,1,0.55040250222,2018_Nov_15_1536,59.9929767984,chinese_cond2,001,1038,
images/blueberry02.jpg,blueberry,z,sounds/animalfarm_english.wav,,,,,,,,,0,1,1,1,0,29,29,46,648.526007971,9.3012185971e-06,649.04784162,0.521843270616,,,,,z,1,0.500381510332,2018_Nov_15_1536,59.9929767984,chinese_cond2,001,1038,
images/swan.jpg,swan,z,sounds/animalfarm_english.wav,,,,,,,,,0,1,1,1,0,30,30,54,650.140209457,9.3012185971e-06,650.748332115,0.608132921471,,,,,z,1,0.583740635838,2018_Nov_15_1536,59.9929767984,chinese_cond2,001,1038,
images/basketball01.jpg,basket ball,z,sounds/animalfarm_english.wav,,,,,,,,,0,1,1,1,0,31,31,33,651.885589237,1.0584145457e-05,652.515509141,0.629930487823,,,,,z,1,0.617105069453,2018_Nov_15_1536,59.9929767984,chinese_cond2,001,1038,
images/lightbulb03b.jpg,treadmill,x,sounds/animalfarm_english.wav,,,,,,,,,0,1,1,1,0,32,32,234,653.617345618,9.94268202703e-06,654.649439313,1.03210459958,,,,,x,1,1.0171934631,2018_Nov_15_1536,59.9929767984,chinese_cond2,001,1038,
images/coin01b.jpg,arrow,x,sounds/animalfarm_english.wav,,,,,,,,,0,1,1,1,0,33,33,124,655.75223542,9.62195031207e-06,657.400215403,1.64799056792,,,,,x,1,1.63403617404,2018_Nov_15_1536,59.9929767984,chinese_cond2,001,1038,
images/highlighter03b.jpg,coin,x,sounds/animalfarm_english.wav,,,,,,,,,0,1,1,1,0,34,34,156,658.500557271,9.94268202703e-06,660.151008172,1.65046148478,,,,,x,1,1.63404868258,2018_Nov_15_1536,59.9929767984,chinese_cond2,001,1038,
images/bench02.jpg,electric toothbrush,x,sounds/animalfarm_english.wav,,,,,,,,,0,1,1,1,0,35,35,172,661.257540482,9.3012185971e-06,662.201590765,0.944060546443,,,,,x,1,0.933849732718,2018_Nov_15_1536,59.9929767984,chinese_cond2,001,1038,
images/lighter02b.jpg,stapler,x,sounds/animalfarm_english.wav,,,,,,,,,0,1,1,1,0,36,36,227,663.302460557,9.62195031207e-06,664.385543212,1.08309259748,,,,,x,1,1.06722022816,2018_Nov_15_1536,59.9929767984,chinese_cond2,001,1038,
images/lion.jpg,lion,z,sounds/animalfarm_english.wav,,,,,,,,,0,1,1,1,0,37,37,44,665.495293744,9.62195053944e-06,666.086026651,0.590742849849,,,,,z,1,0.567077342199,2018_Nov_15_1536,59.9929767984,chinese_cond2,001,1038,
images/remotecontrol01c.jpg,remote control,z,sounds/animalfarm_english.wav,,,,,,,,,0,1,1,1,0,38,38,85,667.194485275,9.62195053944e-06,667.869867291,0.67539259963,,,,,x,0,0.667105534514,2018_Nov_15_1536,59.9929767984,chinese_cond2,001,1038,
images/volleyball.jpg,volley ball,z,sounds/animalfarm_english.wav,,,,,,,,,0,1,1,1,0,39,39,2,669.000998758,9.94268202703e-06,670.554113688,1.55313353246,,,,,z,1,1.5341048427,2018_Nov_15_1536,59.9929767984,chinese_cond2,001,1038,
images/apple06.jpg,apple,z,sounds/animalfarm_english.wav,,,,,,,,,0,1,1,1,0,40,40,13,671.680418786,9.62195053944e-06,672.287780989,0.607372466661,,,,,z,1,0.583722354132,2018_Nov_15_1536,59.9929767984,chinese_cond2,001,1038,
images/doorhandle.jpg,doll,x,sounds/animalfarm_english.wav,,,,,,,,,0,1,1,1,0,41,41,168,673.390073868,9.30121882448e-06,674.088295186,0.698231902475,,,,,x,1,0.683753753764,2018_Nov_15_1536,59.9929767984,chinese_cond2,001,1038,
images/teapot.jpg,light switch,x,sounds/animalfarm_english.wav,,,,,,,,,0,1,1,1,0,42,42,197,675.203756345,1.02634135146e-05,676.355606759,1.15186131819,,,,,x,1,1.13389841979,2018_Nov_15_1536,59.9929767984,chinese_cond2,001,1038,
images/aquarium.jpg,computer mouse,x,sounds/animalfarm_english.wav,,,,,,,,,0,1,1,1,0,43,43,159,677.488938766,9.3012185971e-06,678.439537428,0.950608604397,,,,,x,1,0.933847487596,2018_Nov_15_1536,59.9929767984,chinese_cond2,001,1038,
images/ladder.jpg,ladder,z,sounds/animalfarm_english.wav,,,,,,,,,0,1,1,1,0,44,44,113,679.530877641,9.3012185971e-06,680.773645863,1.2427784857,,,,,z,1,1.23405041453,2018_Nov_15_1536,59.9929767984,chinese_cond2,001,1038,
images/hat05.jpg,hat,z,sounds/animalfarm_english.wav,,,,,,,,,0,1,1,1,0,45,45,15,681.874834783,8.98048688214e-06,682.557395415,0.682571216064,,,,,z,1,0.667123174756,2018_Nov_15_1536,59.9929767984,chinese_cond2,001,1038,
images/candy.jpg,candy,z,sounds/animalfarm_english.wav,,,,,,,,,0,1,1,1,0,46,46,31,683.657225074,1.0263413742e-05,684.858024594,1.20081074554,,,,,z,1,1.18390112997,2018_Nov_15_1536,59.9929767984,chinese_cond2,001,1038,
images/weight01.jpg,weight,z,sounds/animalfarm_english.wav,,,,,,,,,0,1,1,1,0,47,47,67,685.960900243,9.94268202703e-06,686.575175176,0.614285517265,,,,,x,0,0.600410023378,2018_Nov_15_1536,59.9929767984,chinese_cond2,001,1038,
images/corn01.jpg,corn,z,sounds/animalfarm_english.wav,,,,,,,,,0,1,1,1,0,48,48,22,687.673287317,1.0263413742e-05,688.4423743,0.769098529092,,,,,z,1,0.750456000264,2018_Nov_15_1536,59.9929767984,chinese_cond2,001,1038,
images/lightswitch02a.jpg,fork,x,sounds/animalfarm_english.wav,,,,,,,,,0,1,1,1,0,49,49,177,689.552099814,9.94268202703e-06,690.409597767,0.857508216344,,,,,x,1,0.833813842843,2018_Nov_15_1536,59.9929767984,chinese_cond2,001,1038,
images/handfan01b.jpg,handfan,z,sounds/animalfarm_english.wav,,,,,,,,,0,1,1,1,0,50,50,69,691.52225509,9.62195031207e-06,692.243477681,0.721232854085,,,,,z,1,0.700460025447,2018_Nov_15_1536,59.9929767984,chinese_cond2,001,1038,
images/carrot02.jpg,corkscrew,x,sounds/animalfarm_english.wav,,,,,,,,,0,1,1,1,0,51,51,161,693.343444934,9.62195031207e-06,694.193849906,0.850415556,,,,,x,1,0.833640327005,2018_Nov_15_1536,59.9929767984,chinese_cond2,001,1038,
images/coffeepot03b.jpg,coffee pot,z,sounds/animalfarm_english.wav,,,,,,,,,0,1,1,1,0,52,52,107,695.34693225,9.94268202703e-06,696.177906334,0.830984668705,,,,,z,1,0.81711719311,2018_Nov_15_1536,59.9929767984,chinese_cond2,001,1038,
images/marker01a.jpg,marker,z,sounds/animalfarm_english.wav,,,,,,,,,0,1,1,1,0,53,53,95,697.274174589,1.0263413742e-05,698.061771638,0.787607633542,,,,,z,1,0.767124746341,2018_Nov_15_1536,59.9929767984,chinese_cond2,001,1038,
images/barrel01.jpg,barrel,z,sounds/animalfarm_english.wav,,,,,,,,,0,1,1,1,0,54,54,9,699.189575836,9.62195031207e-06,699.762274963,0.572710031942,,,,,z,1,0.550416614414,2018_Nov_15_1536,59.9929767984,chinese_cond2,001,1038,
images/radish01.jpg,raisin,x,sounds/animalfarm_english.wav,,,,,,,,,0,1,1,1,0,55,55,214,700.870926026,9.94268202703e-06,701.429398137,0.558482695403,,,,,x,1,0.550404105879,2018_Nov_15_1536,59.9929767984,chinese_cond2,001,1038,
images/envelope02a.jpg,grand piano,x,sounds/animalfarm_english.wav,,,,,,,,,0,1,1,1,0,56,56,182,702.550104222,9.30121882448e-06,703.179981468,0.629887509778,,,,,x,1,0.617167291398,2018_Nov_15_1536,59.9929767984,chinese_cond2,001,1038,
images/treadmill.jpg,lily,x,sounds/animalfarm_english.wav,,,,,,,,,0,1,1,1,0,57,57,199,704.283907513,9.30121882448e-06,705.163797348,0.879899777765,,,,,x,1,0.867163843533,2018_Nov_15_1536,59.9929767984,chinese_cond2,001,1038,
images/paperclip04.jpg,eye drops,x,sounds/animalfarm_english.wav,,,,,,,,,0,1,1,1,0,58,58,174,706.268683983,9.94268202703e-06,706.94763895,0.6789652298,,,,,x,1,0.667107458904,2018_Nov_15_1536,59.9929767984,chinese_cond2,001,1038,
images/desktopcomputer.jpg,desktop computer,z,sounds/animalfarm_english.wav,,,,,,,,,0,1,1,1,0,59,59,16,708.081474506,9.62195031207e-06,708.781483583,0.700019660852,,,,,z,1,0.683771394006,2018_Nov_15_1536,59.9929767984,chinese_cond2,001,1038,
images/diploma01.jpg,glasses,x,sounds/animalfarm_english.wav,,,,,,,,,0,1,1,1,0,60,60,179,709.910483468,9.94268202703e-06,711.765669266,1.85519670313,,,,,x,1,1.83408903062,2018_Nov_15_1536,59.9929767984,chinese_cond2,001,1038,
images/pingpongpaddle01c (1).jpg,ping pong paddle,z,sounds/animalfarm_english.wav,,,,,,,,,0,1,1,1,0,61,61,10,712.87506154,9.62195031207e-06,714.966578155,2.09152719917,,,,,z,1,2.06749958545,2018_Nov_15_1536,59.9929767984,chinese_cond2,001,1038,
images/boxingglove02a.jpg,bracelet,x,sounds/animalfarm_english.wav,,,,,,,,,0,1,1,1,0,62,62,135,716.160014959,9.30121882448e-06,716.967147133,0.807142117169,,,,,x,1,0.783779700956,2018_Nov_15_1536,59.9929767984,chinese_cond2,001,1038,
images/binder03b.jpg,dj mixer,x,sounds/animalfarm_english.wav,,,,,,,,,0,1,1,1,0,63,63,167,718.077770376,9.62195031207e-06,718.834345937,0.756586465572,,,,,x,1,0.733779877359,2018_Nov_15_1536,59.9929767984,chinese_cond2,001,1038,
images/bed.jpg,bed,z,sounds/animalfarm_english.wav,,,,,,,,,0,1,1,1,0,64,64,103,720.028734993,9.62195031207e-06,720.868255935,0.839531205749,,,,,z,1,0.817144134571,2018_Nov_15_1536,59.9929767984,chinese_cond2,001,1038,
images/ladybug03.jpg,giraffe,x,sounds/animalfarm_english.wav,,,,,,,,,0,1,1,1,0,65,65,178,721.968902498,9.30121882448e-06,723.469003689,1.50011113353,,,,,x,1,1.48400495081,2018_Nov_15_1536,59.9929767984,chinese_cond2,001,1038,
images/butterfly.jpg,butterfly,z,sounds/animalfarm_english.wav,,,,,,,,,0,1,1,1,0,66,66,91,724.574395477,9.94268202703e-06,726.336475755,1.76209150411,,,,,x,0,1.7507398478,2018_Nov_15_1536,59.9929767984,chinese_cond2,001,1038,
images/drink.jpg,drink,z,sounds/animalfarm_english.wav,,,,,,,,,0,1,1,1,0,67,67,117,727.434273259,1.0263413742e-05,728.370389602,0.936127569101,,,,,x,0,0.917167836642,2018_Nov_15_1536,59.9929767984,chinese_cond2,001,1038,
images/mitten01.jpg,mitten,z,sounds/animalfarm_english.wav,,,,,,,,,0,1,1,1,0,68,68,102,729.488500647,9.62195031207e-06,730.120889222,0.632401083945,,,,,z,1,0.617088070674,2018_Nov_15_1536,59.9929767984,chinese_cond2,001,1038,
images/lock02a.jpg,lock,z,sounds/animalfarm_english.wav,,,,,,,,,0,1,1,1,0,69,69,65,731.229709311,9.62195053944e-06,731.771354235,0.54165614934,,,,,z,1,0.533734076875,2018_Nov_15_1536,59.9929767984,chinese_cond2,001,1038,
images/puzzle.jpg,puzzle,z,sounds/animalfarm_english.wav,,,,,,,,,0,1,1,1,0,70,70,57,732.889284066,9.62195031207e-06,733.438491843,0.549218040131,,,,,z,1,0.53372541712,2018_Nov_15_1536,59.9929767984,chinese_cond2,001,1038,
images/cocktailshrimp01.jpg,cocktail shrimp,z,sounds/animalfarm_english.wav,,,,,,,,,0,1,1,1,0,71,71,30,734.551265591,9.94268202703e-06,735.205670793,0.654415785644,,,,,z,1,0.633752005776,2018_Nov_15_1536,59.9929767984,chinese_cond2,001,1038,
images/showerhead01.jpg,skateboard,x,sounds/animalfarm_english.wav,,,,,,,,,0,1,1,1,0,72,72,223,736.311117105,9.94268202703e-06,736.939489479,0.628382957473,,,,,x,1,0.617072675553,2018_Nov_15_1536,59.9929767984,chinese_cond2,001,1038,
images/gamecontroller01.jpg,game controller,z,sounds/animalfarm_english.wav,,,,,,,,,0,1,1,1,0,73,73,112,738.057544074,9.62195031207e-06,738.823354783,0.765820972067,,,,,z,1,0.750451830753,2018_Nov_15_1536,59.9929767984,chinese_cond2,001,1038,
images/flower01.jpg,bus,x,sounds/animalfarm_english.wav,,,,,,,,,0,1,1,1,0,74,74,140,739.935846287,9.30121882448e-06,740.607198951,0.671363247549,,,,,x,1,0.65042780795,2018_Nov_15_1536,59.9929767984,chinese_cond2,001,1038,
images/lip.jpg,boxing glove,x,sounds/animalfarm_english.wav,,,,,,,,,0,1,1,1,0,75,75,136,741.70829518,9.62195031207e-06,742.54107787,0.83279295391,,,,,x,1,0.817140285791,2018_Nov_15_1536,59.9929767984,chinese_cond2,001,1038,
images/umbrella01.jpg,umbrella,z,sounds/animalfarm_english.wav,,,,,,,,,0,1,1,1,0,76,76,53,743.652460285,9.3012185971e-06,744.408341461,0.755891760756,,,,,z,1,0.733851079792,2018_Nov_15_1536,59.9929767984,chinese_cond2,001,1038,
images/aloe02.jpg,broad sword,x,sounds/animalfarm_english.wav,,,,,,,,,0,1,1,1,0,77,77,137,745.528314353,9.94268202703e-06,746.725608276,1.19730450683,,,,,x,1,1.18391171412,2018_Nov_15_1536,59.9929767984,chinese_cond2,001,1038,
images/bottleofredwine02.jpg,pipe,x,sounds/animalfarm_english.wav,,,,,,,,,0,1,1,1,0,78,78,213,747.82175786,9.3012185971e-06,749.359730085,1.53798248869,,,,,x,1,1.51737996857,2018_Nov_15_1536,59.9929767984,chinese_cond2,001,1038,
images/candle08a.jpg,screw driver,x,sounds/animalfarm_english.wav,,,,,,,,,0,1,1,1,0,79,79,221,750.47156409,9.62195031207e-06,751.160230491,0.688676664301,,,,,x,1,0.667135041828,2018_Nov_15_1536,59.9929767984,chinese_cond2,001,1038,
images/stapler03a.jpg,candy cane,x,sounds/animalfarm_english.wav,,,,,,,,,0,1,1,1,0,80,80,145,752.269266432,9.94268202703e-06,752.910695151,0.641439302652,,,,,x,1,0.617089032869,2018_Nov_15_1536,59.9929767984,chinese_cond2,001,1038,
images/raisin.jpg,ruler,x,sounds/animalfarm_english.wav,,,,,,,,,0,1,1,1,0,81,81,218,754.014265824,9.62195031207e-06,754.627852147,0.613597227082,,,,,x,1,0.600419645328,2018_Nov_15_1536,59.9929767984,chinese_cond2,001,1038,
images/lemon02.jpg,lemon,z,sounds/animalfarm_english.wav,,,,,,,,,0,1,1,1,0,82,82,14,755.814009624,9.3012185971e-06,757.045200395,1.2312010343,,,,,z,1,1.21725882822,2018_Nov_15_1536,59.9929767984,chinese_cond2,001,1038,
images/knife04.jpg,tooth brush,x,sounds/animalfarm_english.wav,,,,,,,,,0,1,1,1,0,83,83,233,758.139733491,9.62195031207e-06,761.113034183,2.97331095481,,,,,x,1,2.95109643728,2018_Nov_15_1536,59.9929767984,chinese_cond2,001,1038,
images/screw03c.jpg,screw,z,sounds/animalfarm_english.wav,,,,,,,,,0,1,1,1,0,84,84,84,762.205083854,1.0263413742e-05,762.980223685,0.775150735871,,,,,z,1,0.767134689023,2018_Nov_15_1536,59.9929767984,chinese_cond2,001,1038,
images/parkingmeter.jpg,ear,x,sounds/animalfarm_english.wav,,,,,,,,,0,1,1,1,0,85,85,171,764.120824755,9.62195031207e-06,764.863931189,0.743117338722,,,,,x,1,0.733624963958,2018_Nov_15_1536,59.9929767984,chinese_cond2,001,1038,
images/plate01b.jpg,plate,z,sounds/animalfarm_english.wav,,,,,,,,,0,1,1,1,0,86,86,3,765.961176392,1.0263413742e-05,766.71461199,0.753446502437,,,,,z,1,0.733772179798,2018_Nov_15_1536,59.9929767984,chinese_cond2,001,1038,
images/candycane01a.jpg,lip,x,sounds/animalfarm_english.wav,,,,,,,,,0,1,1,1,0,87,87,200,767.878087323,9.3012185971e-06,769.415379918,1.53730253753,,,,,x,1,1.51732993443,2018_Nov_15_1536,59.9929767984,chinese_cond2,001,1038,
images/screwdriver02b.jpg,cola,x,sounds/animalfarm_english.wav,,,,,,,,,0,1,1,1,0,88,88,158,770.507421891,9.94268202703e-06,771.916093386,1.40868207825,,,,,x,1,1.40064101433,2018_Nov_15_1536,59.9929767984,chinese_cond2,001,1038,
images/fireextinguisher02.jpg,fire extinguisher,z,sounds/animalfarm_english.wav,,,,,,,,,0,1,1,1,0,89,89,175,773.024689604,9.3012185971e-06,773.733281781,0.708602119844,,,,,z,1,0.700448158375,2018_Nov_15_1536,59.9929767984,chinese_cond2,001,1038,
images/50dollarbill.jpg,cherry,x,sounds/animalfarm_english.wav,,,,,,,,,0,1,1,1,0,90,90,151,774.852345719,1.0263413742e-05,775.500464259,0.648129124008,,,,,x,1,0.63376996675,2018_Nov_15_1536,59.9929767984,chinese_cond2,001,1038,
images/bull.jpg,button,x,sounds/animalfarm_english.wav,,,,,,,,,0,1,1,1,0,91,91,141,776.603965976,1.0263413742e-05,777.217616765,0.613662335613,,,,,x,1,0.600417079475,2018_Nov_15_1536,59.9929767984,chinese_cond2,001,1038,
images/donut.jpg,rhinoceros,x,sounds/animalfarm_english.wav,,,,,,,,,0,1,1,1,0,92,92,216,778.340972414,9.62195031207e-06,778.951423584,0.610461433459,,,,,x,1,0.600387892892,2018_Nov_15_1536,59.9929767984,chinese_cond2,001,1038,
images/cola.jpg,comb,x,sounds/animalfarm_english.wav,,,,,,,,,0,1,1,1,0,93,93,157,780.072354501,9.62195031207e-06,780.635238918,0.562895642571,,,,,x,1,0.550398011977,2018_Nov_15_1536,59.9929767984,chinese_cond2,001,1038,
images/charcoalbarbecue.jpg,charcoal barbecue,z,sounds/animalfarm_english.wav,,,,,,,,,0,1,1,1,0,94,94,77,781.750026861,9.62195031207e-06,782.252369004,0.50235272723,,,,,x,0,0.483720782547,2018_Nov_15_1536,59.9929767984,chinese_cond2,001,1038,
images/hairband.jpg,hairband,z,sounds/animalfarm_english.wav,,,,,,,,,0,1,1,1,0,95,95,66,783.360145753,9.62195031207e-06,784.236262501,0.876127011028,,,,,z,1,0.867157428899,2018_Nov_15_1536,59.9929767984,chinese_cond2,001,1038,
images/ashtray02b.jpg,ashtray,z,sounds/animalfarm_english.wav,,,,,,,,,0,1,1,1,0,96,96,43,785.348877808,9.62195031207e-06,787.353813869,2.00494696541,,,,,z,1,1.98412923434,2018_Nov_15_1536,59.9929767984,chinese_cond2,001,1038,
images/broom02.jpg,broom,z,sounds/animalfarm_english.wav,,,,,,,,,0,1,1,1,0,97,97,116,788.445143497,9.3012185971e-06,789.371062177,0.92592894318,,,,,z,1,0.917185476885,2018_Nov_15_1536,59.9929767984,chinese_cond2,001,1038,
images/microphone01.jpg,diaper,x,sounds/animalfarm_english.wav,,,,,,,,,0,1,1,1,0,98,98,164,790.538895612,1.02634135146e-05,791.621700834,1.08281580604,,,,,x,1,1.06722535987,2018_Nov_15_1536,59.9929767984,chinese_cond2,001,1038,
images/scooter.jpg,pen,x,sounds/animalfarm_english.wav,,,,,,,,,0,1,1,1,0,99,99,212,792.711913033,9.62195031207e-06,793.588926546,0.877024097533,,,,,x,1,0.86716512646,2018_Nov_15_1536,59.9929767984,chinese_cond2,001,1038,
images/rhinoceros01.jpg,envelope,x,sounds/animalfarm_english.wav,,,,,,,,,0,1,1,1,0,100,100,173,794.777489832,9.9426822544e-06,795.756197739,0.978717849456,,,,,x,1,0.967181451702,2018_Nov_15_1536,59.9929767984,chinese_cond2,001,1038,
images/printer03a.jpg,printer,z,sounds/animalfarm_english.wav,,,,,,,,,0,1,1,1,0,101,101,72,796.863096324,9.30121882448e-06,797.540039341,0.67695360071,,,,,z,1,0.667100082075,2018_Nov_15_1536,59.9929767984,chinese_cond2,001,1038,
images/cactus.jpg,cactus,z,sounds/animalfarm_english.wav,,,,,,,,,0,1,1,1,0,102,102,70,798.650342814,9.30121882448e-06,799.623967765,0.973636176737,,,,,z,1,0.950519120259,2018_Nov_15_1536,59.9929767984,chinese_cond2,001,1038,
images/cherry01.jpg,highlighter,x,sounds/animalfarm_english.wav,,,,,,,,,0,1,1,1,0,103,103,187,800.731279453,1.02634135146e-05,801.791087572,1.05981966541,,,,,x,1,1.05036353332,2018_Nov_15_1536,59.9929767984,chinese_cond2,001,1038,
images/shotglass.jpg,shot glass,z,sounds/animalfarm_english.wav,,,,,,,,,0,1,1,1,0,104,104,86,802.898349226,9.62195031207e-06,803.708462602,0.810123959586,,,,,z,1,0.800464804349,2018_Nov_15_1536,59.9929767984,chinese_cond2,001,1038,
images/pouch01b.jpg,pouch,z,sounds/animalfarm_english.wav,,,,,,,,,0,1,1,1,0,105,105,25,804.818975833,9.62195031207e-06,805.592332396,0.773367147005,,,,,z,1,0.750460169776,2018_Nov_15_1536,59.9929767984,chinese_cond2,001,1038,
images/bowl02b (1).jpg,bowl,z,sounds/animalfarm_english.wav,,,,,,,,,0,1,1,1,0,106,106,24,806.708125192,9.94268202703e-06,807.242796447,0.534681838986,,,,,z,1,0.517050256409,2018_Nov_15_1536,59.9929767984,chinese_cond2,001,1038,
images/dolphin01.jpg,dolphin,z,sounds/animalfarm_english.wav,,,,,,,,,0,1,1,1,0,107,107,99,808.341228357,1.0584145457e-05,808.976625717,0.63540922636,,,,,z,1,0.617088070674,2018_Nov_15_1536,59.9929767984,chinese_cond2,001,1038,
images/bullet (2).jpg,rubber glove,x,sounds/animalfarm_english.wav,,,,,,,,,0,1,1,1,0,108,108,217,810.079985028,9.30121882448e-06,810.727150033,0.647175267995,,,,,x,1,0.633782154554,2018_Nov_15_1536,59.9929767984,chinese_cond2,001,1038,
images/axe01.jpg,axe,z,sounds/animalfarm_english.wav,,,,,,,,,0,1,1,1,0,109,109,104,811.894016462,8.98048688214e-06,812.494307173,0.600301295339,,,,,z,1,0.583746088276,2018_Nov_15_1536,59.9929767984,chinese_cond2,001,1038,
images/spoon02b.jpg,spoon,z,sounds/animalfarm_english.wav,,,,,,,,,0,1,1,1,0,110,110,38,813.583835572,9.62195053944e-06,814.128087724,0.544262735694,,,,,z,1,0.533732473216,2018_Nov_15_1536,59.9929767984,chinese_cond2,001,1038,
images/8ball.jpg,nail clipper,x,sounds/animalfarm_english.wav,,,,,,,,,0,1,1,1,0,111,111,206,815.243726569,9.94268202703e-06,816.078650143,0.834934479329,,,,,x,1,0.81715536018,2018_Nov_15_1536,59.9929767984,chinese_cond2,001,1038,
images/egg01b (1).jpg,egg,z,sounds/animalfarm_english.wav,,,,,,,,,0,1,1,1,0,112,112,19,817.189449467,9.62195031207e-06,817.679103144,0.489663940554,,,,,z,1,0.467048508421,2018_Nov_15_1536,59.9929767984,chinese_cond2,001,1038,
images/thumbtack02a.jpg,thumb tack,z,sounds/animalfarm_english.wav,,,,,,,,,0,1,1,1,0,113,113,60,818.787872558,9.62195031207e-06,819.546301306,0.758439653212,,,,,z,1,0.733785009066,2018_Nov_15_1536,59.9929767984,chinese_cond2,001,1038,
images/arrow02.jpg,hammer,x,sounds/animalfarm_english.wav,,,,,,,,,0,1,1,1,0,114,114,184,820.642922687,9.62195053944e-06,821.530213405,0.887300981984,,,,,x,1,0.867181804507,2018_Nov_15_1536,59.9929767984,chinese_cond2,001,1038,
images/plant01.jpg,plant,z,sounds/animalfarm_english.wav,,,,,,,,,0,1,1,1,0,115,115,47,822.640160545,9.94268202703e-06,823.247357251,0.607206648383,,,,,z,1,0.583757313885,2018_Nov_15_1536,59.9929767984,chinese_cond2,001,1038,
images/comb02a.jpg,diploma,x,sounds/animalfarm_english.wav,,,,,,,,,0,1,1,1,0,116,116,166,824.350223277,9.9426822544e-06,825.014512467,0.66430009452,,,,,x,1,0.650430694535,2018_Nov_15_1536,59.9929767984,chinese_cond2,001,1038,
images/doll.jpg,carrot,x,sounds/animalfarm_english.wav,,,,,,,,,0,1,1,1,0,117,117,146,826.123721604,9.62195031207e-06,826.865044449,0.741333108394,,,,,x,1,0.717122036159,2018_Nov_15_1536,59.9929767984,chinese_cond2,001,1038,
images/nailclipper03a.jpg,aquarium,x,sounds/animalfarm_english.wav,,,,,,,,,0,1,1,1,0,118,118,123,827.962559708,9.62195031207e-06,829.232384213,1.26983508939,,,,,x,1,1.25060273501,2018_Nov_15_1536,59.9929767984,chinese_cond2,001,1038,
images/dresser02.jpg,dresser,z,sounds/animalfarm_english.wav,,,,,,,,,0,1,1,1,0,119,119,87,830.352889199,9.3012185971e-06,831.933156952,1.58027801663,,,,,z,1,1.56736600071,2018_Nov_15_1536,59.9929767984,chinese_cond2,001,1038,
images/lamp04b.jpg,parking meter,x,sounds/animalfarm_english.wav,,,,,,,,,0,1,1,1,0,120,120,209,833.053318755,9.30121882448e-06,835.217529205,2.16422071343,,,,,x,1,2.15097160851,2018_Nov_15_1536,59.9929767984,chinese_cond2,001,1038,
images/squirrel.jpg,binder,x,sounds/animalfarm_english.wav,,,,,,,,,0,1,1,1,0,121,121,132,836.318517347,9.94268202703e-06,836.917900067,0.599393303957,,,,,x,1,0.58374480535,2018_Nov_15_1536,59.9929767984,chinese_cond2,001,1038,
images/bowlingball.jpg,bowling ball,z,sounds/animalfarm_english.wav,,,,,,,,,0,1,1,1,0,122,122,20,838.04835864,9.62195031207e-06,839.685353884,1.63700582866,,,,,z,1,1.61737480479,2018_Nov_15_1536,59.9929767984,chinese_cond2,001,1038,
images/mushroom01.jpg,shower head,x,sounds/animalfarm_english.wav,,,,,,,,,0,1,1,1,0,123,123,222,840.800160751,9.62195031207e-06,842.069372017,1.26922152969,,,,,x,1,1.25060947037,2018_Nov_15_1536,59.9929767984,chinese_cond2,001,1038,
images/corkscrew02a.jpg,masquerade mask,x,sounds/animalfarm_english.wav,,,,,,,,,0,1,1,1,0,124,124,201,843.173859342,9.62195031207e-06,843.919918432,0.74606871163,,,,,x,1,0.733810026137,2018_Nov_15_1536,59.9929767984,chinese_cond2,001,1038,
images/toucan.jpg,toucan,z,sounds/animalfarm_english.wav,,,,,,,,,0,1,1,1,0,125,125,81,845.019113363,9.62195031207e-06,845.970470234,0.951367455549,,,,,x,0,0.933845883938,2018_Nov_15_1536,59.9929767984,chinese_cond2,001,1038,
images/fryingpan01.jpg,frying pan,z,sounds/animalfarm_english.wav,,,,,,,,,0,1,1,1,0,126,126,45,847.182436028,9.3012185971e-06,847.887679125,0.705253039654,,,,,z,1,0.683768186689,2018_Nov_15_1536,59.9929767984,chinese_cond2,001,1038,
images/nailpolish02b.jpg,nail polish,z,sounds/animalfarm_english.wav,,,,,,,,,0,1,1,1,0,127,127,94,848.99430124,9.62195053944e-06,850.505098832,1.51080785575,,,,,z,1,1.50067626274,2018_Nov_15_1536,59.9929767984,chinese_cond2,001,1038,
images/chessknight02b (1).jpg,cockroach,x,sounds/animalfarm_english.wav,,,,,,,,,0,1,1,1,0,128,128,155,851.612413406,9.94268202703e-06,852.572351133,0.959948631614,,,,,x,1,0.950521044649,2018_Nov_15_1536,59.9929767984,chinese_cond2,001,1038,
images/dragonfly02.jpg,dragon fly,z,sounds/animalfarm_english.wav,,,,,,,,,0,1,1,1,0,129,129,29,853.667775543,1.0263413742e-05,854.489560665,0.82179602684,,,,,z,1,0.800473784836,2018_Nov_15_1536,59.9929767984,chinese_cond2,001,1038,
images/redfox.jpg,red fox,z,sounds/animalfarm_english.wav,,,,,,,,,0,1,1,1,0,130,130,1,855.677500127,9.3012185971e-06,856.523478681,0.845988175906,,,,,z,1,0.833815767234,2018_Nov_15_1536,59.9929767984,chinese_cond2,001,1038,
images/lychee02a.jpg,lychee,z,sounds/animalfarm_english.wav,,,,,,,,,0,1,1,1,0,131,131,62,857.645591174,1.0263413742e-05,858.340649757,0.69506916739,,,,,z,1,0.683771714737,2018_Nov_15_1536,59.9929767984,chinese_cond2,001,1038,
images/parrot01.jpg,chameleon,x,sounds/animalfarm_english.wav,,,,,,,,,0,1,1,1,0,132,132,150,859.452037945,9.94268202703e-06,860.624631038,1.17260431878,,,,,x,1,1.15056844879,2018_Nov_15_1536,59.9929767984,chinese_cond2,001,1038,
images/honeycomb.jpg,honey comb,z,sounds/animalfarm_english.wav,,,,,,,,,0,1,1,1,0,133,133,59,861.735395403,9.94268202703e-06,862.425146518,0.68976169957,,,,,z,1,0.667100723539,2018_Nov_15_1536,59.9929767984,chinese_cond2,001,1038,
images/globe.jpg,cloud,x,sounds/animalfarm_english.wav,,,,,,,,,0,1,1,1,0,134,134,154,863.551106188,9.62195031207e-06,864.492402348,0.941306744249,,,,,z,0,0.917169440301,2018_Nov_15_1536,59.9929767984,chinese_cond2,001,1038,
images/backpack01b.jpg,swallow,x,sounds/animalfarm_english.wav,,,,,,,,,0,1,1,1,0,135,135,228,865.622315676,9.62195031207e-06,866.35959634,0.737291247778,,,,,x,1,0.717115621525,2018_Nov_15_1536,59.9929767984,chinese_cond2,001,1038,
images/snowman.jpg,globe,x,sounds/animalfarm_english.wav,,,,,,,,,0,1,1,1,0,136,136,180,867.469022612,9.62195053944e-06,868.210123511,0.741111162072,,,,,x,1,0.717114338599,2018_Nov_15_1536,59.9929767984,chinese_cond2,001,1038,
images/beermug01b.jpg,beer mug,z,sounds/animalfarm_english.wav,,,,,,,,,0,1,1,1,0,137,137,111,869.324617022,9.94268202703e-06,870.060652285,0.736045846669,,,,,z,1,0.717119791037,2018_Nov_15_1536,59.9929767984,chinese_cond2,001,1038,
images/lantern03.jpg,lantern,z,sounds/animalfarm_english.wav,,,,,,,,,0,1,1,1,0,138,138,5,871.165754132,9.62195031207e-06,871.827824499,0.662081272766,,,,,z,1,0.65043165673,2018_Nov_15_1536,59.9929767984,chinese_cond2,001,1038,
images/handbag02a.jpg,candle,x,sounds/animalfarm_english.wav,,,,,,,,,0,1,1,1,0,139,139,144,872.942044427,9.62195031207e-06,873.69502651,0.752992667112,,,,,x,1,0.733776670042,2018_Nov_15_1536,59.9929767984,chinese_cond2,001,1038,
images/orange.jpg,bat,x,sounds/animalfarm_english.wav,,,,,,,,,0,1,1,1,0,140,140,128,874.817886308,8.98048688214e-06,875.428850007,0.610973321218,,,,,x,1,0.600397194111,2018_Nov_15_1536,59.9929767984,chinese_cond2,001,1038,
images/flashlight05.jpg,flash light,z,sounds/animalfarm_english.wav,,,,,,,,,0,1,1,1,0,141,141,8,876.529131577,8.98048710951e-06,877.062639859,0.533518545187,,,,,z,1,0.517051218604,2018_Nov_15_1536,59.9929767984,chinese_cond2,001,1038,
images/apricot.jpg,apricot,z,sounds/animalfarm_english.wav,,,,,,,,,0,1,1,1,0,142,142,32,878.178035268,3.20731678585e-05,878.779794289,0.60178596228,,,,,z,1,0.58374480535,2018_Nov_15_1536,59.9929767984,chinese_cond2,001,1038,
images/glasses01b.jpg,calculator,x,sounds/animalfarm_english.wav,,,,,,,,,0,1,1,1,0,143,143,142,879.870833014,9.3012185971e-06,880.496949681,0.626126289382,,,,,x,1,0.617091919454,2018_Nov_15_1536,59.9929767984,chinese_cond2,001,1038,
images/peach01.jpg,peach,z,sounds/animalfarm_english.wav,,,,,,,,,0,1,1,1,0,144,144,106,881.624229482,9.3012185971e-06,882.314127172,0.689907632484,,,,,z,1,0.667092705247,2018_Nov_15_1536,59.9929767984,chinese_cond2,001,1038,
images/mailbox01.jpg,mail box,z,sounds/animalfarm_english.wav,,,,,,,,,0,1,1,1,0,145,145,73,883.431794644,9.94268202703e-06,884.031283847,0.599499786874,,,,,z,1,0.583686752916,2018_Nov_15_1536,59.9929767984,chinese_cond2,001,1038,
images/flipflop01b.jpg,flip flop,z,sounds/animalfarm_english.wav,,,,,,,,,0,1,1,1,0,146,146,27,885.224263608,8.98048710951e-06,885.831798365,0.607545020304,,,,,z,1,0.583723316327,2018_Nov_15_1536,59.9929767984,chinese_cond2,001,1038,
images/eyedrops.jpg,bicycle,x,sounds/animalfarm_english.wav,,,,,,,,,0,1,1,1,0,147,147,131,886.930379416,9.62195053944e-06,887.532338894,0.601970703727,,,,,x,1,0.583802857783,2018_Nov_15_1536,59.9929767984,chinese_cond2,001,1038,
images/electrictoothbrush01a.jpg,banjo,x,sounds/animalfarm_english.wav,,,,,,,,,0,1,1,1,0,148,148,127,888.625190715,9.62195031207e-06,889.899625097,1.27444464508,,,,,x,1,1.25060658379,2018_Nov_15_1536,59.9929767984,chinese_cond2,001,1038,
images/hairpin.jpg,hair pin,z,sounds/animalfarm_english.wav,,,,,,,,,0,1,1,1,0,149,149,28,890.989118216,9.62195053944e-06,891.650110925,0.66100265213,,,,,z,1,0.650423317706,2018_Nov_15_1536,59.9929767984,chinese_cond2,001,1038,
images/dice05a.jpg,band aid,x,sounds/animalfarm_english.wav,,,,,,,,,0,1,1,1,0,150,150,126,892.761150798,9.30121882448e-06,893.450713003,0.68957246788,,,,,x,1,0.667182189385,2018_Nov_15_1536,59.9929767984,chinese_cond2,001,1038,
images/cloud.jpg,ceiling fan,x,sounds/animalfarm_english.wav,,,,,,,,,0,1,1,1,0,151,151,149,894.554380537,9.62195031207e-06,895.25113964,0.696769045288,,,,,x,1,0.683772997664,2018_Nov_15_1536,59.9929767984,chinese_cond2,001,1038,
images/table02.jpg,table,z,sounds/animalfarm_english.wav,,,,,,,,,0,1,1,1,0,152,152,49,896.363814924,9.62195053944e-06,896.96829856,0.604494220576,,,,,z,1,0.583743201691,2018_Nov_15_1536,59.9929767984,chinese_cond2,001,1038,
images/key03b.jpg,cigar,x,sounds/animalfarm_english.wav,,,,,,,,,0,1,1,1,0,153,153,153,898.069375545,9.62195031207e-06,898.635465996,0.566100393506,,,,,x,1,0.550429764413,2018_Nov_15_1536,59.9929767984,chinese_cond2,001,1038,
images/ceilingfan02.jpg,paper clip,x,sounds/animalfarm_english.wav,,,,,,,,,0,1,1,1,0,154,154,208,899.731993723,9.62195031207e-06,900.335925059,0.603942562088,,,,,x,1,0.583745446813,2018_Nov_15_1536,59.9929767984,chinese_cond2,001,1038,
images/nametag01a.jpg,name tag,z,sounds/animalfarm_english.wav,,,,,,,,,0,1,1,1,0,155,155,108,901.455591973,9.30121882448e-06,902.203120655,0.747538624914,,,,,z,1,0.733755822483,2018_Nov_15_1536,59.9929767984,chinese_cond2,001,1038,
images/battery03b.jpg,battery,z,sounds/animalfarm_english.wav,,,,,,,,,0,1,1,1,0,156,156,34,903.310450625,9.94268202703e-06,903.92028599,0.609846270099,,,,,z,1,0.600432474596,2018_Nov_15_1536,59.9929767984,chinese_cond2,001,1038,
images/straw.jpg,straw,z,sounds/animalfarm_english.wav,,,,,,,,,0,1,1,1,0,157,157,109,905.071155606,9.3012185971e-06,905.937517941,0.86637227775,,,,,x,0,0.850485154774,2018_Nov_15_1536,59.9929767984,chinese_cond2,001,1038,
images/seagull.jpg,seagull,z,sounds/animalfarm_english.wav,,,,,,,,,0,1,1,1,0,158,158,50,907.043623999,9.94268202703e-06,907.704679571,0.661066157003,,,,,z,1,0.650430053071,2018_Nov_15_1536,59.9929767984,chinese_cond2,001,1038,
images/computermouse02a.jpg,world map,x,sounds/animalfarm_english.wav,,,,,,,,,0,1,1,1,0,159,159,239,908.804257456,9.62195031207e-06,909.438534821,0.634288269143,,,,,x,1,0.617120143842,2018_Nov_15_1536,59.9929767984,chinese_cond2,001,1038,
images/banjo.jpg,knife,x,sounds/animalfarm_english.wav,,,,,,,,,0,1,1,1,0,160,160,191,910.533352727,9.62195031207e-06,911.739160151,1.20581800851,,,,,x,1,1.18391235558,2018_Nov_15_1536,59.9929767984,chinese_cond2,001,1038,
images/ruler02b.jpg,watermelon,x,sounds/animalfarm_english.wav,,,,,,,,,0,1,1,1,0,161,161,238,912.914663564,9.3012185971e-06,913.739736506,0.825082885084,,,,,x,1,0.817150869937,2018_Nov_15_1536,59.9929767984,chinese_cond2,001,1038,
images/sunglasses03a.jpg,sun glasses,z,sounds/animalfarm_english.wav,,,,,,,,,0,1,1,1,0,162,162,17,914.846708219,1.0263413742e-05,915.44021321,0.593516216675,,,,,z,1,0.583733579741,2018_Nov_15_1536,59.9929767984,chinese_cond2,001,1038,
images/broadsword.jpg,teapot,x,sounds/animalfarm_english.wav,,,,,,,,,0,1,1,1,0,163,163,231,916.531206711,9.62195053944e-06,917.374102392,0.842905944473,,,,,x,1,0.833828275769,2018_Nov_15_1536,59.9929767984,chinese_cond2,001,1038,
images/blackolive.jpg,tank,x,sounds/animalfarm_english.wav,,,,,,,,,0,1,1,1,0,164,164,229,918.48758592,9.62195053944e-06,919.424676646,0.937100669014,,,,,x,1,0.917161422009,2018_Nov_15_1536,59.9929767984,chinese_cond2,001,1038,
images/sock03.jpg,sock,z,sounds/animalfarm_english.wav,,,,,,,,,0,1,1,1,0,165,165,90,920.528802827,9.3012185971e-06,921.341888423,0.813095859322,,,,,z,1,0.800475388494,2018_Nov_15_1536,59.9929767984,chinese_cond2,001,1038,
images/bandaid01.jpg,door handle,x,sounds/animalfarm_english.wav,,,,,,,,,0,1,1,1,0,166,166,170,922.446881542,9.3012185971e-06,923.159067838,0.712196559768,,,,,x,1,0.700445271789,2018_Nov_15_1536,59.9929767984,chinese_cond2,001,1038,
images/mirror02.jpg,8 ball,x,sounds/animalfarm_english.wav,,,,,,,,,0,1,1,1,0,167,167,121,924.259095389,9.94268202703e-06,925.393036787,1.13395134051,,,,,x,1,1.11722678712,2018_Nov_15_1536,59.9929767984,chinese_cond2,001,1038,
images/ear.jpg,bullet,x,sounds/animalfarm_english.wav,,,,,,,,,0,1,1,1,0,168,168,139,926.494636885,9.94268202703e-06,927.493648711,0.999022409843,,,,,x,1,0.983870083143,2018_Nov_15_1536,59.9929767984,chinese_cond2,001,1038,
images/croissant02b.jpg,croissant,z,sounds/animalfarm_english.wav,,,,,,,,,0,1,1,1,0,169,169,39,928.603456333,9.3012185971e-06,929.244157953,0.640712203937,,,,,z,1,0.61710827677,2018_Nov_15_1536,59.9929767984,chinese_cond2,001,1038,
images/atm.jpg,atm,z,sounds/animalfarm_english.wav,,,,,,,,,0,1,1,1,0,170,170,96,930.381009349,8.98048710951e-06,931.078111314,0.697111907452,,,,,z,1,0.683887498873,2018_Nov_15_1536,59.9929767984,chinese_cond2,001,1038,
images/gorilla.jpg,gorilla,z,sounds/animalfarm_english.wav,,,,,,,,,0,1,1,1,0,171,171,80,932.187265605,9.94268202703e-06,933.045215148,0.857960448011,,,,,z,1,0.833814805038,2018_Nov_15_1536,59.9929767984,chinese_cond2,001,1038,
images/hand01a.jpg,cupcake,x,sounds/animalfarm_english.wav,,,,,,,,,0,1,1,1,0,172,172,163,934.154829048,9.62195031207e-06,934.995777888,0.840959423914,,,,,x,1,0.817149266278,2018_Nov_15_1536,59.9929767984,chinese_cond2,001,1038,
images/tulip02.jpg,sport shorts,x,sounds/animalfarm_english.wav,,,,,,,,,0,1,1,1,0,173,173,225,936.08831443,9.94268202703e-06,937.429793279,1.34149007448,,,,,x,1,1.3172866998,2018_Nov_15_1536,59.9929767984,chinese_cond2,001,1038,
images/lily.jpg,kiwi,x,sounds/animalfarm_english.wav,,,,,,,,,0,1,1,1,0,174,174,190,938.527279993,9.62195031207e-06,939.547077798,1.01980806775,,,,,x,1,1.00053305605,2018_Nov_15_1536,59.9929767984,chinese_cond2,001,1038,
images/skateboard.jpg,key,x,sounds/animalfarm_english.wav,,,,,,,,,0,1,1,1,0,175,175,189,940.636869197,9.94268202703e-06,941.464297914,0.827439942191,,,,,x,1,0.817165944325,2018_Nov_15_1536,59.9929767984,chinese_cond2,001,1038,
images/cauliflower01.jpg,glue stick,x,sounds/animalfarm_english.wav,,,,,,,,,0,1,1,1,0,176,176,181,942.578703224,9.62195031207e-06,943.731590884,1.15289792297,,,,,z,0,1.13389970271,2018_Nov_15_1536,59.9929767984,chinese_cond2,001,1038,
images/calculator02b.jpg,dice,x,sounds/animalfarm_english.wav,,,,,,,,,0,1,1,1,0,177,177,165,944.831885925,9.9426822544e-06,945.498760853,0.666885512582,,,,,x,1,0.650443523802,2018_Nov_15_1536,59.9929767984,chinese_cond2,001,1038,
images/leaf01a.jpg,leaf,z,sounds/animalfarm_english.wav,,,,,,,,,0,1,1,1,0,178,178,68,946.675466689,9.94268202703e-06,948.466285167,1.79082970399,,,,,x,0,1.76743264875,2018_Nov_15_1536,59.9929767984,chinese_cond2,001,1038,
images/medal01.jpg,medal,z,sounds/animalfarm_english.wav,,,,,,,,,0,1,1,1,0,179,179,115,949.566395787,9.62195053944e-06,951.633829623,2.06744377814,,,,,z,1,2.05081961377,2018_Nov_15_1536,59.9929767984,chinese_cond2,001,1038,
images/gluestick.jpg,squirrel,x,sounds/animalfarm_english.wav,,,,,,,,,0,1,1,1,0,180,180,226,952.739665304,9.94268202703e-06,953.451019943,0.711365543988,,,,,x,1,0.700452648618,2018_Nov_15_1536,59.9929767984,chinese_cond2,001,1038,
images/computerkeyboard01a.jpg,computer keyboard,z,sounds/animalfarm_english.wav,,,,,,,,,0,1,1,1,0,181,181,61,954.566348961,9.94268202703e-06,955.751682157,1.1853431396,,,,,z,1,1.16725643877,2018_Nov_15_1536,59.9929767984,chinese_cond2,001,1038,
images/cockroach02.jpg,belt,x,sounds/animalfarm_english.wav,,,,,,,,,0,1,1,1,0,182,182,129,956.848583857,8.98048710951e-06,957.918964576,1.07039098154,,,,,x,1,1.05055917965,2018_Nov_15_1536,59.9929767984,chinese_cond2,001,1038,
images/chameleon.jpg,50 dollar bill,x,sounds/animalfarm_english.wav,,,,,,,,,0,1,1,1,0,183,183,120,959.027572982,9.94268202703e-06,959.852847344,0.825284946042,,,,,x,1,0.817095704088,2018_Nov_15_1536,59.9929767984,chinese_cond2,001,1038,
images/parkbench03.jpg,park bench,z,sounds/animalfarm_english.wav,,,,,,,,,0,1,1,1,0,184,184,71,960.957259296,9.62195031207e-06,962.736991364,1.77974233058,,,,,z,1,1.76742206461,2018_Nov_15_1536,59.9929767984,chinese_cond2,001,1038,
images/hairdryer03a.jpg,hairdryer,z,sounds/animalfarm_english.wav,,,,,,,,,0,1,1,1,0,185,185,119,963.90261175,1.05841452296e-05,964.987618154,1.08501730828,,,,,z,1,1.06719649402,2018_Nov_15_1536,59.9929767984,chinese_cond2,001,1038,
images/watermelon01.jpg,orange,x,sounds/animalfarm_english.wav,,,,,,,,,0,1,1,1,0,186,186,207,966.114960497,1.02634135146e-05,967.3716334,1.2566834869,,,,,z,0,1.23393078161,2018_Nov_15_1536,59.9929767984,chinese_cond2,001,1038,
images/licenseplate.jpg,license plate,z,sounds/animalfarm_english.wav,,,,,,,,,0,1,1,1,0,187,187,40,968.487547753,9.94268202703e-06,969.372199171,0.884662322463,,,,,z,1,0.867150693534,2018_Nov_15_1536,59.9929767984,chinese_cond2,001,1038,
images/baseball01a.jpg,baseball,z,sounds/animalfarm_english.wav,,,,,,,,,0,1,1,1,0,188,188,74,970.502567938,9.62195053944e-06,971.106064683,0.603507008468,,,,,z,1,0.583778802908,2018_Nov_15_1536,59.9929767984,chinese_cond2,001,1038,
images/cheetah.jpg,cheetah,z,sounds/animalfarm_english.wav,,,,,,,,,0,1,1,1,0,189,189,82,972.206686229,1.0584145457e-05,972.873198089,0.666523727249,,,,,z,1,0.650430053071,2018_Nov_15_1536,59.9929767984,chinese_cond2,001,1038,
images/bowtie.jpg,bowtie,z,sounds/animalfarm_english.wav,,,,,,,,,0,1,1,1,0,190,190,89,974.064228443,8.98048688214e-06,974.773737592,0.709518770982,,,,,z,1,0.700446875448,2018_Nov_15_1536,59.9929767984,chinese_cond2,001,1038,
images/grandpiano.jpg,tulip,x,sounds/animalfarm_english.wav,,,,,,,,,0,1,1,1,0,191,191,236,975.88679615,9.94268202703e-06,976.590925025,0.704139779997,,,,,x,1,0.683779091566,2018_Nov_15_1536,59.9929767984,chinese_cond2,001,1038,
images/puma.jpg,puma,z,sounds/animalfarm_english.wav,,,,,,,,,0,1,1,1,0,192,192,4,977.688144891,9.30121882448e-06,978.691530214,1.00339558628,,,,,z,1,0.983873611192,2018_Nov_15_1536,59.9929767984,chinese_cond2,001,1038,
images/magnifyingglass01b.jpg,magnifying glass,z,sounds/animalfarm_english.wav,,,,,,,,,0,1,1,1,0,193,193,64,979.796913984,9.9426822544e-06,980.475491128,0.678587728614,,,,,z,1,0.667235430844,2018_Nov_15_1536,59.9929767984,chinese_cond2,001,1038,
images/elbow.jpg,elbow,z,sounds/animalfarm_english.wav,,,,,,,,,0,1,1,1,0,194,194,105,981.584957171,1.0584145457e-05,982.292553476,0.707607530908,,,,,z,1,0.683785506199,2018_Nov_15_1536,59.9929767984,chinese_cond2,001,1038,
images/pineapple01a.jpg,pineapple,z,sounds/animalfarm_english.wav,,,,,,,,,0,1,1,1,0,195,195,51,983.403871745,9.30121882448e-06,983.926340763,0.522481205925,,,,,z,1,0.500377661552,2018_Nov_15_1536,59.9929767984,chinese_cond2,001,1038,
images/eraser.jpg,eraser,z,sounds/animalfarm_english.wav,,,,,,,,,0,1,1,1,0,196,196,110,985.031754681,9.62195031207e-06,985.710181723,0.678436984724,,,,,z,1,0.667110986952,2018_Nov_15_1536,59.9929767984,chinese_cond2,001,1038,
images/headphones02b.jpg,headphones,z,sounds/animalfarm_english.wav,,,,,,,,,0,1,1,1,0,197,197,101,986.901553336,9.62195053944e-06,987.494011138,0.592467424085,,,,,z,1,0.583730372424,2018_Nov_15_1536,59.9929767984,chinese_cond2,001,1038,
images/hammer02a.jpg,flower,x,sounds/animalfarm_english.wav,,,,,,,,,0,1,1,1,0,198,198,176,988.587956654,9.62195031207e-06,989.111144111,0.523198041227,,,,,z,0,0.500385359112,2018_Nov_15_1536,59.9929767984,chinese_cond2,001,1038,
images/antelope.jpg,antelope,z,sounds/animalfarm_english.wav,,,,,,,,,0,1,1,1,0,199,199,12,990.215161243,9.62195031207e-06,990.778282681,0.563132021819,,,,,z,1,0.550397691245,2018_Nov_15_1536,59.9929767984,chinese_cond2,001,1038,
images/safe.jpg,safe,z,sounds/animalfarm_english.wav,,,,,,,,,0,1,1,1,0,200,200,78,991.887414842,1.0263413742e-05,992.478769006,0.591365069305,,,,,z,1,0.567025062935,2018_Nov_15_1536,59.9929767984,chinese_cond2,001,1038,
images/wallet01.jpg,lamp,x,sounds/animalfarm_english.wav,,,,,,,,,0,1,1,1,0,201,201,193,993.655767028,9.62195031207e-06,994.429330142,0.773573377474,,,,,x,1,0.750465622215,2018_Nov_15_1536,59.9929767984,chinese_cond2,001,1038,
images/tent.jpg,tent,z,sounds/animalfarm_english.wav,,,,,,,,,0,1,1,1,0,202,202,11,995.554713136,4.55438982954e-05,996.363210986,0.808523187778,,,,,z,1,0.783801189979,2018_Nov_15_1536,59.9929767984,chinese_cond2,001,1038,
images/dryingmachine01.jpg,drying machine,z,sounds/animalfarm_english.wav,,,,,,,,,0,1,1,1,0,203,203,18,997.482723307,9.62195053944e-06,998.147045853,0.664332809151,,,,,z,1,0.650429090877,2018_Nov_15_1536,59.9929767984,chinese_cond2,001,1038,
images/kiwi03.jpg,backpack,x,sounds/animalfarm_english.wav,,,,,,,,,0,1,1,1,0,204,204,125,999.274042127,9.94268202703e-06,999.897379975,0.623348753043,,,,,x,1,0.600245167295,2018_Nov_15_1536,59.9929767984,chinese_cond2,001,1038,
images/paintbrush03a.jpg,paint brush,z,sounds/animalfarm_english.wav,,,,,,,,,0,1,1,1,0,205,205,0,1000.99638247,9.30121882448e-06,1003.0984627,2.10209081774,,,,,z,1,2.08417314251,2018_Nov_15_1536,59.9929767984,chinese_cond2,001,1038,
images/notebook02b.jpg,notebook,z,sounds/animalfarm_english.wav,,,,,,,,,0,1,1,1,0,206,206,7,1004.20343369,9.94268202703e-06,1005.44911544,1.24569201227,,,,,z,1,1.23389582186,2018_Nov_15_1536,59.9929767984,chinese_cond2,001,1038,
images/scissors04a.jpg,leek,x,sounds/animalfarm_english.wav,,,,,,,,,0,1,1,1,0,207,207,194,1006.54177129,9.94268202703e-06,1007.8831443,1.34138327083,,,,,x,1,1.31728573761,2018_Nov_15_1536,59.9929767984,chinese_cond2,001,1038,
images/icecube02 (2).jpg,aloe,x,sounds/animalfarm_english.wav,,,,,,,,,0,1,1,1,0,208,208,122,1008.99209813,9.30121882448e-06,1010.20047013,1.20838257901,,,,,x,1,1.18391171412,2018_Nov_15_1536,59.9929767984,chinese_cond2,001,1038,
images/bat.jpg,hand,x,sounds/animalfarm_english.wav,,,,,,,,,0,1,1,1,0,209,209,185,1011.29689618,9.62195031207e-06,1012.85122604,1.5543407665,,,,,x,1,1.53401888661,2018_Nov_15_1536,59.9929767984,chinese_cond2,001,1038,
images/electricguitar02.jpg,electric guitar,z,sounds/animalfarm_english.wav,,,,,,,,,0,1,1,1,0,210,210,100,1013.95131806,9.94268202703e-06,1015.36859928,1.41729179944,,,,,z,1,1.40063876921,2018_Nov_15_1536,59.9929767984,chinese_cond2,001,1038,
images/djmixer01.jpg,light bulb,x,sounds/animalfarm_english.wav,,,,,,,,,0,1,1,1,0,211,211,196,1016.56774831,9.3012185971e-06,1017.2191303,0.651392248108,,,,,z,0,0.63374911919,2018_Nov_15_1536,59.9929767984,chinese_cond2,001,1038,
images/tape01a.jpg,tie,x,sounds/animalfarm_english.wav,,,,,,,,,0,1,1,1,0,212,212,232,1018.34496296,1.0263413742e-05,1019.20302379,0.858071421172,,,,,x,1,0.833814805038,2018_Nov_15_1536,59.9929767984,chinese_cond2,001,1038,
images/feather03b.jpg,feather,z,sounds/animalfarm_english.wav,,,,,,,,,0,1,1,1,0,213,213,114,1020.30199036,9.94268202703e-06,1020.95353239,0.651552934679,,,,,z,1,0.633760986263,2018_Nov_15_1536,59.9929767984,chinese_cond2,001,1038,
images/fork01.jpg,cooking pot,x,sounds/animalfarm_english.wav,,,,,,,,,0,1,1,1,0,214,214,160,1022.04537006,9.3012185971e-06,1022.78738665,0.742026851015,,,,,x,1,0.733797517601,2018_Nov_15_1536,59.9929767984,chinese_cond2,001,1038,
images/birthdaycandle.jpg,birthday candle,z,sounds/animalfarm_english.wav,,,,,,,,,0,1,1,1,0,215,215,55,1023.8817751,9.94268202703e-06,1024.60456735,0.722803156385,,,,,z,1,0.70040133155,2018_Nov_15_1536,59.9929767984,chinese_cond2,001,1038,
images/rubberglove02a.jpg,lady bug,x,sounds/animalfarm_english.wav,,,,,,,,,0,1,1,1,0,216,216,192,1025.70797284,9.62195031207e-06,1026.90522154,1.1972586422,,,,,x,1,1.1839146007,2018_Nov_15_1536,59.9929767984,chinese_cond2,001,1038,
images/cupcake.jpg,scissors,x,sounds/animalfarm_english.wav,,,,,,,,,0,1,1,1,0,217,217,219,1028.02259298,9.94268202703e-06,1028.92246953,0.899887134522,,,,,x,1,0.883835796927,2018_Nov_15_1536,59.9929767984,chinese_cond2,001,1038,
images/pepper05a.jpg,lighter,x,sounds/animalfarm_english.wav,,,,,,,,,0,1,1,1,0,218,218,198,1030.11073614,9.62195053944e-06,1033.07364929,2.96292373867,,,,,x,1,2.95109804094,2018_Nov_15_1536,59.9929767984,chinese_cond2,001,1038,
images/lollipop03b.jpg,lollipop,z,sounds/animalfarm_english.wav,,,,,,,,,0,1,1,1,0,219,219,42,1034.16491895,9.62195031207e-06,1035.25759148,1.09268311614,,,,,z,1,1.0838764657,2018_Nov_15_1536,59.9929767984,chinese_cond2,001,1038,
images/crocodile.jpg,triangle ruler,x,sounds/animalfarm_english.wav,,,,,,,,,0,1,1,1,0,220,220,235,1036.35294757,9.62195031207e-06,1036.97475104,0.621813731229,,,,,x,1,0.600403288013,2018_Nov_15_1536,59.9929767984,chinese_cond2,001,1038,
images/ant.jpg,ant,z,sounds/animalfarm_english.wav,,,,,,,,,0,1,1,1,0,221,221,98,1038.06768304,9.62195031207e-06,1038.69190419,0.624231406623,,,,,z,1,0.600384044112,2018_Nov_15_1536,59.9929767984,chinese_cond2,001,1038,
images/saltshaker03c.jpg,salt shaker,z,sounds/animalfarm_english.wav,,,,,,,,,0,1,1,1,0,222,222,63,1039.80233916,9.9426822544e-06,1040.44239579,0.640067533262,,,,,z,1,0.617077486528,2018_Nov_15_1536,59.9929767984,chinese_cond2,001,1038,
