images,name,corrAns,sounds,trials_3.thisRepN,trials_3.thisTrialN,trials_3.thisN,trials_3.thisIndex,trials_4.thisRepN,trials_4.thisTrialN,trials_4.thisN,trials_4.thisIndex,trials_2.thisRepN,trials_2.thisTrialN,trials_2.thisN,trials_2.thisIndex,trials.thisRepN,trials.thisTrialN,trials.thisN,trials.thisIndex,begin_global,begin_routine,end_global,end_routine,key_resp_2.keys,key_resp_2.corr,key_resp_2.rt,begin_book,key_resp_1.keys,key_resp_1.corr,key_resp_1.rt,date,frameRate,expName,session,participant,
images/volleyball.jpg,volley ball,z,,0,0,0,0,,,,,,,,,,,,,,,,,,,,,,,,2018_Nov_28_1540,59.983743737,chinese_cond2,001,1066,
images/puma.jpg,puma,z,,,,,,0,0,0,0,,,,,,,,,48.252855964,1.05837825686e-05,49.7144430522,1.46159799281,z,1,1.4506324511,,,,,2018_Nov_28_1540,59.983743737,chinese_cond2,001,1066,
images/calculator02b.jpg,dice,x,sounds/animalfarm_english.wav,,,,,,,,,0,0,0,1,0,0,0,165,91.9665931035,9.30111855268e-06,93.0089648676,1.04238138604,,,,81.7109340148,x,1,1.03383377986,2018_Nov_28_1540,59.983743737,chinese_cond2,001,1066,
images/triangleruler02.jpg,bottle of red wine,x,sounds/animalfarm_english.wav,,,,,,,,,0,0,0,1,0,1,1,134,94.201145689,8.98027792573e-06,95.0761673781,0.875030989992,,,,,x,1,0.85045072902,2018_Nov_28_1540,59.983743737,chinese_cond2,001,1066,
images/key03b.jpg,cigar,x,sounds/animalfarm_english.wav,,,,,,,,,0,0,0,1,0,2,2,153,96.246678185,8.98027792573e-06,96.9599900448,0.713321802206,,,,,x,1,0.700416523963,2018_Nov_28_1540,59.983743737,chinese_cond2,001,1066,
images/toucan.jpg,toucan,z,sounds/animalfarm_english.wav,,,,,,,,,0,0,0,1,0,3,3,81,98.0999628282,9.30088572204e-06,99.1438827256,1.04392951913,,,,,z,1,1.03382961056,2018_Nov_28_1540,59.983743737,chinese_cond2,001,1066,
images/tie01.jpg,bench,x,sounds/animalfarm_english.wav,,,,,,,,,0,0,0,1,0,4,4,130,100.271771925,9.30088572204e-06,101.194422359,0.922660056269,,,,,x,1,0.900464375736,2018_Nov_28_1540,59.983743737,chinese_cond2,001,1066,
images/beermug01b.jpg,beer mug,z,sounds/animalfarm_english.wav,,,,,,,,,0,0,0,1,0,5,5,111,102.398049808,9.621726349e-06,103.745246635,1.34720709035,,,,,z,1,1.33406062773,2018_Nov_28_1540,59.983743737,chinese_cond2,001,1066,
images/diaper01a.jpg,camera,x,sounds/animalfarm_english.wav,,,,,,,,,0,0,0,1,0,6,6,143,105.104482466,8.98027792573e-06,106.045673935,0.941200449364,,,,,x,1,0.917123083258,2018_Nov_28_1540,59.983743737,chinese_cond2,001,1066,
images/leek.jpg,donut,x,sounds/animalfarm_english.wav,,,,,,,,,0,0,0,1,0,7,7,169,107.21971174,9.30088572204e-06,108.1462115,0.926509702345,,,,,x,1,0.917131742695,2018_Nov_28_1540,59.983743737,chinese_cond2,001,1066,
images/hat05.jpg,hat,z,sounds/animalfarm_english.wav,,,,,,,,,0,0,0,1,0,8,8,15,109.339299649,9.30111855268e-06,110.146793613,0.807503586635,,,,,z,1,0.78378735506,2018_Nov_28_1540,59.983743737,chinese_cond2,001,1066,
images/nametag01a.jpg,name tag,z,sounds/animalfarm_english.wav,,,,,,,,,0,0,0,1,0,9,9,108,111.322482183,9.30088572204e-06,112.447167673,1.12469543284,,,,,z,1,1.10034769634,2018_Nov_28_1540,59.983743737,chinese_cond2,001,1066,
images/camera01a.jpg,bull,x,sounds/animalfarm_english.wav,,,,,,,,,0,0,0,1,0,10,10,138,113.637205099,9.30111855268e-06,114.898114434,1.26091959816,,,,,x,1,1.25067472225,2018_Nov_28_1540,59.983743737,chinese_cond2,001,1066,
images/bullet (2).jpg,rubber glove,x,sounds/animalfarm_english.wav,,,,,,,,,0,0,0,1,0,11,11,217,116.097983322,9.30088572204e-06,117.265252254,1.16727823322,,,,,x,1,1.15052395011,2018_Nov_28_1540,59.983743737,chinese_cond2,001,1066,
images/tape01a.jpg,tie,x,sounds/animalfarm_english.wav,,,,,,,,,0,0,0,1,0,12,12,232,118.426636869,9.30111855268e-06,119.315769437,0.889142189408,,,,,x,1,0.867101738928,2018_Nov_28_1540,59.983743737,chinese_cond2,001,1066,
images/lightswitch02a.jpg,fork,x,sounds/animalfarm_english.wav,,,,,,,,,0,0,0,1,0,13,13,177,120.511738646,9.30088572204e-06,121.316297027,0.804568002699,,,,,x,1,0.783755603479,2018_Nov_28_1540,59.983743737,chinese_cond2,001,1066,
images/lemon02.jpg,lemon,z,sounds/animalfarm_english.wav,,,,,,,,,0,0,0,1,0,14,14,14,122.509163235,7.12005421519e-05,123.900318767,1.39120011264,,,,,z,1,1.36725456384,2018_Nov_28_1540,59.983743737,chinese_cond2,001,1066,
images/bus.jpg,microphone,x,sounds/animalfarm_english.wav,,,,,,,,,0,0,0,1,0,15,15,203,125.088378931,8.98027792573e-06,125.950839157,0.86247016862,,,,,x,1,0.850395885296,2018_Nov_28_1540,59.983743737,chinese_cond2,001,1066,
images/aquarium.jpg,computer mouse,x,sounds/animalfarm_english.wav,,,,,,,,,0,0,0,1,0,16,16,159,127.172437715,8.98027792573e-06,128.168067213,0.995639120461,,,,,x,1,0.983806021279,2018_Nov_28_1540,59.983743737,chinese_cond2,001,1066,
images/screwdriver02b.jpg,cola,x,sounds/animalfarm_english.wav,,,,,,,,,0,0,0,1,0,17,17,158,129.348175355,9.621726349e-06,130.168585824,0.82042041095,,,,,x,1,0.800427460577,2018_Nov_28_1540,59.983743737,chinese_cond2,001,1066,
images/coffeepot03b.jpg,coffee pot,z,sounds/animalfarm_english.wav,,,,,,,,,0,0,0,1,0,18,18,107,131.371057705,9.30111855268e-06,132.602562133,1.23151469138,,,,,z,1,1.21720720897,2018_Nov_28_1540,59.983743737,chinese_cond2,001,1066,
images/lettuce.jpg,mushroom,x,sounds/animalfarm_english.wav,,,,,,,,,0,0,0,1,0,19,19,205,133.784881344,9.30088572204e-06,134.469704283,0.684832561295,,,,,x,1,0.667057094164,2018_Nov_28_1540,59.983743737,chinese_cond2,001,1066,
images/ant.jpg,ant,z,sounds/animalfarm_english.wav,,,,,,,,,0,0,0,1,0,20,20,98,135.647081463,8.98027792573e-06,136.486886412,0.8398145705,,,,,z,1,0.817088092212,2018_Nov_28_1540,59.983743737,chinese_cond2,001,1066,
images/lantern03.jpg,lantern,z,sounds/animalfarm_english.wav,,,,,,,,,0,0,0,1,0,21,21,5,137.666918542,8.98027792573e-06,138.504099009,0.837190088583,,,,,z,1,0.817114391597,2018_Nov_28_1540,59.983743737,chinese_cond2,001,1066,
images/bowlingball.jpg,bowling ball,z,sounds/animalfarm_english.wav,,,,,,,,,0,0,0,1,0,22,22,20,139.714283973,8.98027792573e-06,140.604636894,0.890362542821,,,,,z,1,0.867119378876,2018_Nov_28_1540,59.983743737,chinese_cond2,001,1066,
images/donut.jpg,rhinoceros,x,sounds/animalfarm_english.wav,,,,,,,,,0,0,0,1,0,23,23,216,141.796229829,8.65943729877e-06,142.521788843,0.725568314316,,,,,x,1,0.717072986066,2018_Nov_28_1540,59.983743737,chinese_cond2,001,1066,
images/electrictoothbrush01a.jpg,banjo,x,sounds/animalfarm_english.wav,,,,,,,,,0,0,0,1,0,24,24,127,143.692307347,8.98027792573e-06,144.48908401,0.796785964165,,,,,x,1,0.783874271205,2018_Nov_28_1540,59.983743737,chinese_cond2,001,1066,
images/fryingpan01.jpg,frying pan,z,sounds/animalfarm_english.wav,,,,,,,,,0,0,0,1,0,25,25,45,145.663376149,8.65967012942e-06,147.123028632,1.45966178412,,,,,z,1,1.45063437521,2018_Nov_28_1540,59.983743737,chinese_cond2,001,1066,
images/8ball.jpg,nail clipper,x,sounds/animalfarm_english.wav,,,,,,,,,0,0,0,1,0,26,26,206,148.308083615,8.98027792573e-06,149.290213855,0.982140182517,,,,,x,1,0.967139295768,2018_Nov_28_1540,59.983743737,chinese_cond2,001,1066,
images/doorhandle.jpg,doll,x,sounds/animalfarm_english.wav,,,,,,,,,0,0,0,1,0,27,27,168,150.465417812,8.65943729877e-06,151.324087726,0.858679535799,,,,,x,1,0.85046291654,2018_Nov_28_1540,59.983743737,chinese_cond2,001,1066,
images/bottleofredwine02.jpg,pipe,x,sounds/animalfarm_english.wav,,,,,,,,,0,0,0,1,0,28,28,213,152.474976018,8.98027792573e-06,153.324691969,0.849725893699,,,,,x,1,0.833857769845,2018_Nov_28_1540,59.983743737,chinese_cond2,001,1066,
images/sunglasses03a.jpg,sun glasses,z,sounds/animalfarm_english.wav,,,,,,,,,0,0,0,1,0,29,29,17,154.516778498,8.65967012942e-06,155.291797268,0.775027750758,,,,,z,1,0.767118063755,2018_Nov_28_1540,59.983743737,chinese_cond2,001,1066,
images/bench02.jpg,electric toothbrush,x,sounds/animalfarm_english.wav,,,,,,,,,0,0,0,1,0,30,30,172,156.493150786,9.62149351835e-06,157.575708583,1.08256773907,,,,,x,1,1.06718102191,2018_Nov_28_1540,59.983743737,chinese_cond2,001,1066,
images/gamecontroller01.jpg,game controller,z,sounds/animalfarm_english.wav,,,,,,,,,0,0,0,1,0,31,31,112,158.77917118,9.30088572204e-06,159.492890358,0.713728479808,,,,,z,1,0.700421013869,2018_Nov_28_1540,59.983743737,chinese_cond2,001,1066,
images/50dollarbill.jpg,cherry,x,sounds/animalfarm_english.wav,,,,,,,,,0,0,0,1,0,32,32,151,160.648527285,8.65967012942e-06,161.810125182,1.16160751833,,,,,x,1,1.15053132689,2018_Nov_28_1540,59.983743737,chinese_cond2,001,1066,
images/arrow02.jpg,hammer,x,sounds/animalfarm_english.wav,,,,,,,,,0,0,0,1,0,33,33,184,162.983665544,8.98027792573e-06,163.827408017,0.843764282297,,,,,x,1,0.833787531592,2018_Nov_28_1540,59.983743737,chinese_cond2,001,1066,
images/apricot.jpg,apricot,z,sounds/animalfarm_english.wav,,,,,,,,,0,0,0,1,0,34,34,32,165.031371584,8.98027792573e-06,166.24461048,1.2132485169,,,,,z,1,1.20054240781,2018_Nov_28_1540,59.983743737,chinese_cond2,001,1066,
images/pipe.jpg,icecube,x,sounds/animalfarm_english.wav,,,,,,,,,0,0,0,1,0,35,35,188,167.377494308,9.30111855268e-06,168.345140347,0.96765534021,,,,,x,1,0.950454930542,2018_Nov_28_1540,59.983743737,chinese_cond2,001,1066,
images/ear.jpg,bullet,x,sounds/animalfarm_english.wav,,,,,,,,,0,0,0,1,0,36,36,139,169.525719632,9.30111855268e-06,170.595739379,1.07002936862,,,,,x,1,1.05050146743,2018_Nov_28_1540,59.983743737,chinese_cond2,001,1066,
images/volleyball.jpg,volley ball,z,sounds/animalfarm_english.wav,,,,,,,,,0,0,0,1,0,37,37,2,171.728785814,9.30111855268e-06,172.646258486,0.917482293677,,,,,z,1,0.900455395458,2018_Nov_28_1540,59.983743737,chinese_cond2,001,1066,
images/floorlamp.jpg,floor lamp,z,sounds/animalfarm_english.wav,,,,,,,,,0,0,0,1,0,38,38,26,173.807800577,9.621726349e-06,175.297133789,1.48935983237,,,,,z,1,1.46735434094,2018_Nov_28_1540,59.983743737,chinese_cond2,001,1066,
images/bull.jpg,button,x,sounds/animalfarm_english.wav,,,,,,,,,0,0,0,1,0,39,39,141,176.481276955,9.621726349e-06,177.264129721,0.782862388063,,,,,x,1,0.767089198576,2018_Nov_28_1540,59.983743737,chinese_cond2,001,1066,
images/barrel01.jpg,barrel,z,sounds/animalfarm_english.wav,,,,,,,,,0,0,0,1,0,40,40,9,178.465872598,8.98027792573e-06,179.348000561,0.882137264125,,,,,z,1,0.867111040046,2018_Nov_28_1540,59.983743737,chinese_cond2,001,1066,
images/cola.jpg,comb,x,sounds/animalfarm_english.wav,,,,,,,,,0,0,0,1,0,41,41,157,180.538074869,9.30088572204e-06,181.448544861,0.910479613347,,,,,x,1,0.900461168727,2018_Nov_28_1540,59.983743737,chinese_cond2,001,1066,
images/elbow.jpg,elbow,z,sounds/animalfarm_english.wav,,,,,,,,,0,0,0,1,0,42,42,105,182.624753323,8.98027792573e-06,183.415712701,0.790968999034,,,,,z,1,0.767066748114,2018_Nov_28_1540,59.983743737,chinese_cond2,001,1066,
images/dresser02.jpg,dresser,z,sounds/animalfarm_english.wav,,,,,,,,,0,0,0,1,0,43,43,87,184.6084596,8.98027792573e-06,185.682981024,1.07453136658,,,,,z,1,1.05049377005,2018_Nov_28_1540,59.983743737,chinese_cond2,001,1066,
images/knife04.jpg,tooth brush,x,sounds/animalfarm_english.wav,,,,,,,,,0,0,0,1,0,44,44,233,186.860797595,8.98027792573e-06,187.800197181,0.93941081129,,,,,x,1,0.917129497742,2018_Nov_28_1540,59.983743737,chinese_cond2,001,1066,
images/hairdryer03a.jpg,hairdryer,z,sounds/animalfarm_english.wav,,,,,,,,,0,0,0,1,0,45,45,119,188.97404608,9.30111855268e-06,189.750732613,0.776696475921,,,,,z,1,0.767117101466,2018_Nov_28_1540,59.983743737,chinese_cond2,001,1066,
images/snowman.jpg,globe,x,sounds/animalfarm_english.wav,,,,,,,,,0,0,0,1,0,46,46,180,190.939608377,1.44324731082e-05,191.76789646,0.828298666747,,,,,x,1,0.81710444903,2018_Nov_28_1540,59.983743737,chinese_cond2,001,1066,
images/birthdaycandle.jpg,birthday candle,z,sounds/animalfarm_english.wav,,,,,,,,,0,0,0,1,0,47,47,55,192.934212202,8.98027792573e-06,194.168506926,1.23430466629,,,,,z,1,1.21720400173,2018_Nov_28_1540,59.983743737,chinese_cond2,001,1066,
images/magnifyingglass01b.jpg,magnifying glass,z,sounds/animalfarm_english.wav,,,,,,,,,0,0,0,1,0,48,48,64,195.307743327,9.30088572204e-06,196.302404241,0.994671176421,,,,,z,1,0.983810511418,2018_Nov_28_1540,59.983743737,chinese_cond2,001,1066,
images/scooter.jpg,pen,x,sounds/animalfarm_english.wav,,,,,,,,,0,0,0,1,0,49,49,212,197.467239201,8.98027792573e-06,198.919753659,1.45252407901,,,,,x,1,1.43392820098,2018_Nov_28_1540,59.983743737,chinese_cond2,001,1066,
images/parkfountain.jpg,park fountain,z,sounds/animalfarm_english.wav,,,,,,,,,0,0,0,1,0,50,50,93,200.107148962,9.30088572204e-06,201.787150784,1.68001144333,,,,,z,1,1.66731720115,2018_Nov_28_1540,59.983743737,chinese_cond2,001,1066,
images/panda.jpg,panda,z,sounds/animalfarm_english.wav,,,,,,,,,0,0,0,1,0,51,51,83,202.977673464,8.98027792573e-06,203.85435137,0.876687527634,,,,,z,1,0.867117454298,2018_Nov_28_1540,59.983743737,chinese_cond2,001,1066,
images/honeycomb.jpg,honey comb,z,sounds/animalfarm_english.wav,,,,,,,,,0,0,0,1,0,52,52,59,205.040738319,8.98027792573e-06,205.938221247,0.897492229706,,,,,z,1,0.883788028732,2018_Nov_28_1540,59.983743737,chinese_cond2,001,1066,
images/shotglass.jpg,shot glass,z,sounds/animalfarm_english.wav,,,,,,,,,0,0,0,1,0,53,53,86,207.118042662,9.30111855268e-06,208.338838448,1.22080540773,,,,,z,1,1.20053599356,2018_Nov_28_1540,59.983743737,chinese_cond2,001,1066,
images/candle08a.jpg,screw driver,x,sounds/animalfarm_english.wav,,,,,,,,,0,0,0,1,0,54,54,221,209.499997915,9.94233414531e-06,211.122930491,1.6229421969,,,,,x,1,1.6006685805,2018_Nov_28_1540,59.983743737,chinese_cond2,001,1066,
images/mattress.jpg,cat,x,sounds/animalfarm_english.wav,,,,,,,,,0,0,0,1,0,55,55,147,212.312349561,9.30088572204e-06,213.473527951,1.16118769092,,,,,x,1,1.15053677908,2018_Nov_28_1540,59.983743737,chinese_cond2,001,1066,
images/bowtie.jpg,bowtie,z,sounds/animalfarm_english.wav,,,,,,,,,0,0,0,1,0,56,56,89,214.612239328,9.30111855268e-06,215.524047379,0.91181799327,,,,,z,1,0.900466300081,2018_Nov_28_1540,59.983743737,chinese_cond2,001,1066,
images/parkbench03.jpg,park bench,z,sounds/animalfarm_english.wav,,,,,,,,,0,0,0,1,0,57,57,71,216.71709704,8.98027792573e-06,217.441203817,0.724116398254,,,,,z,1,0.700402411865,2018_Nov_28_1540,59.983743737,chinese_cond2,001,1066,
images/djmixer01.jpg,light bulb,x,sounds/animalfarm_english.wav,,,,,,,,,0,0,0,1,0,58,58,196,218.652050755,9.30088572204e-06,219.925183189,1.27314205584,,,,,x,1,1.2505451499,2018_Nov_28_1540,59.983743737,chinese_cond2,001,1066,
images/kiwi03.jpg,backpack,x,sounds/animalfarm_english.wav,,,,,,,,,0,0,0,1,0,59,59,125,221.126037341,9.30088572204e-06,222.142407397,1.01637967792,,,,,x,1,1.00046921871,2018_Nov_28_1540,59.983743737,chinese_cond2,001,1066,
images/seagull.jpg,seagull,z,sounds/animalfarm_english.wav,,,,,,,,,0,0,0,1,0,60,60,50,223.342771482,8.98027792573e-06,224.259646646,0.916884785518,,,,,z,1,0.900463734288,2018_Nov_28_1540,59.983743737,chinese_cond2,001,1066,
images/pingpongpaddle01c (1).jpg,ping pong paddle,z,sounds/animalfarm_english.wav,,,,,,,,,0,0,0,1,0,61,61,10,225.405786304,9.30088572204e-06,226.326849798,0.921073757112,,,,,z,1,0.900460847653,2018_Nov_28_1540,59.983743737,chinese_cond2,001,1066,
images/mushroom01.jpg,shower head,x,sounds/animalfarm_english.wav,,,,,,,,,0,0,0,1,0,62,62,222,227.522574295,8.98027792573e-06,228.360706028,0.838141355198,,,,,x,1,0.817107977113,2018_Nov_28_1540,59.983743737,chinese_cond2,001,1066,
images/ceilingfan02.jpg,paper clip,x,sounds/animalfarm_english.wav,,,,,,,,,0,0,0,1,0,63,63,208,229.539863224,9.30111855268e-06,230.427907256,0.888053653296,,,,,x,1,0.867123548174,2018_Nov_28_1540,59.983743737,chinese_cond2,001,1066,
images/bed.jpg,bed,z,sounds/animalfarm_english.wav,,,,,,,,,0,0,0,1,0,64,64,103,231.618790108,8.98027792573e-06,233.595399412,1.97661860404,,,,,z,1,1.96741992887,2018_Nov_28_1540,59.983743737,chinese_cond2,001,1066,
images/baseball01a.jpg,baseball,z,sounds/animalfarm_english.wav,,,,,,,,,0,0,0,1,0,65,65,74,234.796471976,8.98027792573e-06,236.096055773,1.299593098,,,,,z,1,1.28390393802,2018_Nov_28_1540,59.983743737,chinese_cond2,001,1066,
images/cake.jpg,cake,z,sounds/animalfarm_english.wav,,,,,,,,,0,0,0,1,0,66,66,23,237.247549271,9.30088572204e-06,238.496679708,1.24913973897,,,,,z,1,1.23390023387,2018_Nov_28_1540,59.983743737,chinese_cond2,001,1066,
images/dreamcatcher.jpg,dream catcher,z,sounds/animalfarm_english.wav,,,,,,,,,0,0,0,1,0,67,67,48,239.628661341,9.621726349e-06,240.630552969,1.00190124987,,,,,z,1,0.983823981602,2018_Nov_28_1540,59.983743737,chinese_cond2,001,1066,
images/watermelon01.jpg,orange,x,sounds/animalfarm_english.wav,,,,,,,,,0,0,0,1,0,68,68,207,241.847729389,9.30088572204e-06,243.031175622,1.18345617573,,,,,x,1,1.16720061819,2018_Nov_28_1540,59.983743737,chinese_cond2,001,1066,
images/printer03a.jpg,printer,z,sounds/animalfarm_english.wav,,,,,,,,,0,0,0,1,0,69,69,72,244.173801753,8.98027792573e-06,245.215064454,1.04127200297,,,,,z,1,1.0171449245,2018_Nov_28_1540,59.983743737,chinese_cond2,001,1066,
images/chameleon.jpg,50 dollar bill,x,sounds/animalfarm_english.wav,,,,,,,,,0,0,0,1,0,70,70,120,246.388755557,8.65967012942e-06,247.332285422,0.943539166357,,,,,x,1,0.933800392319,2018_Nov_28_1540,59.983743737,chinese_cond2,001,1066,
images/ashtray02b.jpg,ashtray,z,sounds/animalfarm_english.wav,,,,,,,,,0,0,0,1,0,71,71,43,248.551064819,9.621726349e-06,249.616212453,1.06515757623,,,,,z,1,1.05050114659,2018_Nov_28_1540,59.983743737,chinese_cond2,001,1066,
images/teapot.jpg,light switch,x,sounds/animalfarm_english.wav,,,,,,,,,0,0,0,1,0,72,72,197,250.757254849,9.30088572204e-06,251.600078449,0.842833542032,,,,,x,1,0.833793304628,2018_Nov_28_1540,59.983743737,chinese_cond2,001,1066,
images/highlighter03b.jpg,coin,x,sounds/animalfarm_english.wav,,,,,,,,,0,0,0,1,0,73,73,156,252.777207068,8.98027792573e-06,253.633922171,0.856724725105,,,,,x,1,0.83377566468,2018_Nov_28_1540,59.983743737,chinese_cond2,001,1066,
images/peach01.jpg,peach,z,sounds/animalfarm_english.wav,,,,,,,,,0,0,0,1,0,74,74,106,254.825382647,8.98027792573e-06,255.7177882,0.892415174283,,,,,z,1,0.883787066443,2018_Nov_28_1540,59.983743737,chinese_cond2,001,1066,
images/handbag02a.jpg,candle,x,sounds/animalfarm_english.wav,,,,,,,,,0,0,0,1,0,75,75,144,256.902898989,9.30088572204e-06,257.634949449,0.732060402399,,,,,x,1,0.717072344851,2018_Nov_28_1540,59.983743737,chinese_cond2,001,1066,
images/ostrich.jpg,ostrich,z,sounds/animalfarm_english.wav,,,,,,,,,0,0,0,1,0,76,76,76,258.802886128,9.621726349e-06,259.968899748,1.16602388304,,,,,z,1,1.15051849792,2018_Nov_28_1540,59.983743737,chinese_cond2,001,1066,
images/diploma01.jpg,glasses,x,sounds/animalfarm_english.wav,,,,,,,,,0,0,0,1,0,77,77,179,261.15209261,9.30111855268e-06,262.152779279,1.00069629122,,,,,x,1,0.983799927402,2018_Nov_28_1540,59.983743737,chinese_cond2,001,1066,
images/orange.jpg,bat,x,sounds/animalfarm_english.wav,,,,,,,,,0,0,0,1,0,78,78,128,263.366146143,8.98027792573e-06,264.503410736,1.13727421453,,,,,x,1,1.11718857475,2018_Nov_28_1540,59.983743737,chinese_cond2,001,1066,
images/grasshopper.jpg,cauliflower,x,sounds/animalfarm_english.wav,,,,,,,,,0,0,0,1,0,79,79,148,265.62775241,9.30088572204e-06,266.770671361,1.14292793116,,,,,x,1,1.13387486455,2018_Nov_28_1540,59.983743737,chinese_cond2,001,1066,
images/icecube02 (2).jpg,aloe,x,sounds/animalfarm_english.wav,,,,,,,,,0,0,0,1,0,80,80,122,267.916174703,8.98027792573e-06,269.271487763,1.35532973753,,,,,x,1,1.33404651587,2018_Nov_28_1540,59.983743737,chinese_cond2,001,1066,
images/highheelshoe02a.jpg,high heel shoe,z,sounds/animalfarm_english.wav,,,,,,,,,0,0,0,1,0,81,81,75,270.406290802,8.98027792573e-06,271.371853741,0.965572560672,,,,,z,1,0.950479946798,2018_Nov_28_1540,59.983743737,chinese_cond2,001,1066,
images/treadmill.jpg,lily,x,sounds/animalfarm_english.wav,,,,,,,,,0,0,0,1,0,82,82,199,272.602165719,9.621726349e-06,273.472402852,0.87024739664,,,,,x,1,0.850451049628,2018_Nov_28_1540,59.983743737,chinese_cond2,001,1066,
images/cauliflower01.jpg,glue stick,x,sounds/animalfarm_english.wav,,,,,,,,,0,0,0,1,0,83,83,181,274.667991042,8.98027792573e-06,275.923032416,1.25505067594,,,,,x,1,1.23388195247,2018_Nov_28_1540,59.983743737,chinese_cond2,001,1066,
images/hairband.jpg,hairband,z,sounds/animalfarm_english.wav,,,,,,,,,0,0,0,1,0,84,84,66,277.071441194,9.30088572204e-06,279.27391083,2.2024798994,,,,,x,0,2.18414092064,2018_Nov_28_1540,59.983743737,chinese_cond2,001,1066,
images/plate01b.jpg,plate,z,sounds/animalfarm_english.wav,,,,,,,,,0,0,0,1,0,85,85,3,280.403116279,9.30088572204e-06,282.141298014,1.7381919974,,,,,z,1,1.71732796147,2018_Nov_28_1540,59.983743737,chinese_cond2,001,1066,
images/atm.jpg,atm,z,sounds/animalfarm_english.wav,,,,,,,,,0,0,0,1,0,86,86,96,283.351425569,8.98027792573e-06,284.608621565,1.25720593892,,,,,z,1,1.23388836696,2018_Nov_28_1540,59.983743737,chinese_cond2,001,1066,
images/lightbulb03b.jpg,treadmill,x,sounds/animalfarm_english.wav,,,,,,,,,0,0,0,1,0,87,87,234,285.792355167,8.98027792573e-06,288.026171371,2.23382550525,,,,,x,1,2.21747084381,2018_Nov_28_1540,59.983743737,chinese_cond2,001,1066,
images/cloud.jpg,ceiling fan,x,sounds/animalfarm_english.wav,,,,,,,,,0,0,0,1,0,88,88,149,289.212189808,8.65967012942e-06,291.12695878,1.91477827262,,,,,x,1,1.9007122952,2018_Nov_28_1540,59.983743737,chinese_cond2,001,1066,
images/toothbrush03a.jpg,parrot,x,sounds/animalfarm_english.wav,,,,,,,,,0,0,0,1,0,89,89,210,292.289485492,8.65967012942e-06,293.144156303,0.854680111865,,,,,x,1,0.833759628469,2018_Nov_28_1540,59.983743737,chinese_cond2,001,1066,
images/table02.jpg,table,z,sounds/animalfarm_english.wav,,,,,,,,,0,0,0,1,0,90,90,49,294.333983654,9.62149351835e-06,295.311401822,0.977427469101,,,,,z,1,0.967156294268,2018_Nov_28_1540,59.983743737,chinese_cond2,001,1066,
images/razor04a.jpg,razor,z,sounds/animalfarm_english.wav,,,,,,,,,0,0,0,1,0,91,91,36,296.513784863,9.30111855268e-06,297.561972951,1.04819738888,,,,,z,1,1.03383249696,2018_Nov_28_1540,59.983743737,chinese_cond2,001,1066,
images/flamingo.jpg,flamingo,z,sounds/animalfarm_english.wav,,,,,,,,,0,0,0,1,0,92,92,52,298.712141539,9.30088572204e-06,300.812809639,2.1006777212,,,,,z,1,2.084097591,2018_Nov_28_1540,59.983743737,chinese_cond2,001,1066,
images/swallow.jpg,mattress,x,sounds/animalfarm_english.wav,,,,,,,,,0,0,0,1,0,93,93,202,301.995199408,8.65967012942e-06,303.780254905,1.78506479762,,,,,x,1,1.76734898495,2018_Nov_28_1540,59.983743737,chinese_cond2,001,1066,
images/broom02.jpg,broom,z,sounds/animalfarm_english.wav,,,,,,,,,0,0,0,1,0,94,94,116,304.961598795,9.30088572204e-06,305.730753133,0.769163639285,,,,,z,1,0.750416700263,2018_Nov_28_1540,59.983743737,chinese_cond2,001,1066,
images/banjo.jpg,knife,x,sounds/animalfarm_english.wav,,,,,,,,,0,0,0,1,0,95,95,191,306.902650428,9.30088572204e-06,307.981350561,1.078710075,,,,,x,1,1.0671848706,2018_Nov_28_1540,59.983743737,chinese_cond2,001,1066,
images/lip.jpg,boxing glove,x,sounds/animalfarm_english.wav,,,,,,,,,0,0,0,1,0,96,96,136,309.116520828,8.98027792573e-06,311.515584764,2.39907323709,,,,,x,1,2.38418299984,2018_Nov_28_1540,59.983743737,chinese_cond2,001,1066,
images/notebook02b.jpg,notebook,z,sounds/animalfarm_english.wav,,,,,,,,,0,0,0,1,0,97,97,7,312.694824066,9.30088572204e-06,313.416075119,0.721260995604,,,,,z,1,0.700403694762,2018_Nov_28_1540,59.983743737,chinese_cond2,001,1066,
images/radish01.jpg,raisin,x,sounds/animalfarm_english.wav,,,,,,,,,0,0,0,1,0,98,98,214,314.603610579,9.30088572204e-06,315.416590842,0.812990206061,,,,,x,1,0.800425536232,2018_Nov_28_1540,59.983743737,chinese_cond2,001,1066,
images/cockroach02.jpg,belt,x,sounds/animalfarm_english.wav,,,,,,,,,0,0,0,1,0,99,99,129,316.588530152,8.98027792573e-06,317.783878761,1.19535823073,,,,,x,1,1.18385194894,2018_Nov_28_1540,59.983743737,chinese_cond2,001,1066,
images/paperclip04.jpg,eye drops,x,sounds/animalfarm_english.wav,,,,,,,,,0,0,0,1,0,100,100,174,318.913803914,9.30088572204e-06,320.017796635,1.10400298401,,,,,x,1,1.08384582284,2018_Nov_28_1540,59.983743737,chinese_cond2,001,1066,
images/egg01b (1).jpg,egg,z,sounds/animalfarm_english.wav,,,,,,,,,0,0,0,1,0,101,101,19,321.165572625,9.30088572204e-06,322.101669399,0.936106074834,,,,,z,1,0.917141364422,2018_Nov_28_1540,59.983743737,chinese_cond2,001,1066,
images/umbrella01.jpg,umbrella,z,sounds/animalfarm_english.wav,,,,,,,,,0,0,0,1,0,102,102,53,323.326817405,9.621726349e-06,324.435441696,1.10863391287,,,,,z,1,1.10034705489,2018_Nov_28_1540,59.983743737,chinese_cond2,001,1066,
images/eyedrops.jpg,bicycle,x,sounds/animalfarm_english.wav,,,,,,,,,0,0,0,1,0,103,103,131,325.537757994,8.98027792573e-06,326.486129504,0.948381452123,,,,,x,1,0.933802316897,2018_Nov_28_1540,59.983743737,chinese_cond2,001,1066,
images/lighter02b.jpg,stapler,x,sounds/animalfarm_english.wav,,,,,,,,,0,0,0,1,0,104,104,227,327.713122633,9.30111855268e-06,328.670044956,0.956931624096,,,,,x,1,0.933815466706,2018_Nov_28_1540,59.983743737,chinese_cond2,001,1066,
images/glasses01b.jpg,calculator,x,sounds/animalfarm_english.wav,,,,,,,,,0,0,0,1,0,105,105,142,329.877392799,8.65943729877e-06,331.720826415,1.8434429171,,,,,x,1,1.83404507255,2018_Nov_28_1540,59.983743737,chinese_cond2,001,1066,
images/basketball01.jpg,basket ball,z,sounds/animalfarm_english.wav,,,,,,,,,0,0,0,1,0,106,106,33,332.927760845,8.65943729877e-06,333.654659201,0.726907656295,,,,,z,1,0.717082607793,2018_Nov_28_1540,59.983743737,chinese_cond2,001,1066,
images/puma.jpg,puma,z,sounds/animalfarm_english.wav,,,,,,,,,0,0,0,1,0,107,107,4,334.753335606,9.30111855268e-06,335.771902299,1.01857599337,,,,,z,1,1.00051893084,2018_Nov_28_1540,59.983743737,chinese_cond2,001,1066,
images/hammer02a.jpg,flower,x,sounds/animalfarm_english.wav,,,,,,,,,0,0,0,1,0,108,108,176,336.938323879,8.98027792573e-06,338.205836593,1.26752233598,,,,,x,1,1.25055445102,2018_Nov_28_1540,59.983743737,chinese_cond2,001,1066,
images/computermouse02a.jpg,world map,x,sounds/animalfarm_english.wav,,,,,,,,,0,0,0,1,0,109,109,239,339.387399537,9.30088572204e-06,340.606453473,1.21906355745,,,,,x,1,1.20052861655,2018_Nov_28_1540,59.983743737,chinese_cond2,001,1066,
images/envelope02a.jpg,grand piano,x,sounds/animalfarm_english.wav,,,,,,,,,0,0,0,1,0,110,110,182,341.804095256,9.62149351835e-06,342.623653883,0.819569210289,,,,,x,1,0.800437723519,2018_Nov_28_1540,59.983743737,chinese_cond2,001,1066,
images/bowl02b (1).jpg,bowl,z,sounds/animalfarm_english.wav,,,,,,,,,0,0,0,1,0,111,111,24,343.808903545,9.30088572204e-06,344.740858815,0.931965211639,,,,,z,1,0.9171262905,2018_Nov_28_1540,59.983743737,chinese_cond2,001,1066,
images/mailbox01.jpg,mail box,z,sounds/animalfarm_english.wav,,,,,,,,,0,0,0,1,0,112,112,73,345.946468977,8.98027792573e-06,347.024785845,1.07832648954,,,,,z,1,1.06715664687,2018_Nov_28_1540,59.983743737,chinese_cond2,001,1066,
images/apple06.jpg,apple,z,sounds/animalfarm_english.wav,,,,,,,,,0,0,0,1,0,113,113,13,348.181188339,9.30111855268e-06,348.991966193,0.810787155293,,,,,z,1,0.800439968705,2018_Nov_28_1540,59.983743737,chinese_cond2,001,1066,
images/swan.jpg,swan,z,sounds/animalfarm_english.wav,,,,,,,,,0,0,0,1,0,114,114,54,350.151107347,8.65967012942e-06,351.776028408,1.62493068376,,,,,z,1,1.6006528649,2018_Nov_28_1540,59.983743737,chinese_cond2,001,1066,
images/lollipop03b.jpg,lollipop,z,sounds/animalfarm_english.wav,,,,,,,,,0,0,0,1,0,115,115,42,352.969485069,8.98027792573e-06,353.909894614,0.940418845974,,,,,z,1,0.917113782139,2018_Nov_28_1540,59.983743737,chinese_cond2,001,1066,
images/banana04a.jpg,banana,z,sounds/animalfarm_english.wav,,,,,,,,,0,0,0,1,0,116,116,118,355.120029545,9.621726349e-06,355.960436813,0.840416889405,,,,,z,1,0.817103486974,2018_Nov_28_1540,59.983743737,chinese_cond2,001,1066,
images/hanger02a.jpg,hanger,z,sounds/animalfarm_english.wav,,,,,,,,,0,0,0,1,0,117,117,88,357.137250802,9.30111855268e-06,357.994323833,0.857083294308,,,,,z,1,0.833807416493,2018_Nov_28_1540,59.983743737,chinese_cond2,001,1066,
images/lychee02a.jpg,lychee,z,sounds/animalfarm_english.wav,,,,,,,,,0,0,0,1,0,118,118,62,359.185667886,8.98027792573e-06,360.178043002,0.99238473759,,,,,z,1,0.983638282632,2018_Nov_28_1540,59.983743737,chinese_cond2,001,1066,
images/feather03b.jpg,feather,z,sounds/animalfarm_english.wav,,,,,,,,,0,0,0,1,0,119,119,114,361.368207434,9.62149351835e-06,362.328759066,0.960561253363,,,,,z,1,0.950474173762,2018_Nov_28_1540,59.983743737,chinese_cond2,001,1066,
images/corn01.jpg,corn,z,sounds/animalfarm_english.wav,,,,,,,,,0,0,0,1,0,120,120,22,363.539024211,9.30088572204e-06,364.746051651,1.20703738253,,,,,z,1,1.18387760664,2018_Nov_28_1540,59.983743737,chinese_cond2,001,1066,
images/boxingglove02a.jpg,bracelet,x,sounds/animalfarm_english.wav,,,,,,,,,0,0,0,1,0,121,121,135,365.897643611,9.30111855268e-06,366.863264281,0.965630932478,,,,,x,1,0.950473853154,2018_Nov_28_1540,59.983743737,chinese_cond2,001,1066,
images/globe.jpg,cloud,x,sounds/animalfarm_english.wav,,,,,,,,,0,0,0,1,0,122,122,154,368.074041301,8.98027792573e-06,369.197210731,1.12317937217,,,,,x,1,1.10051286919,2018_Nov_28_1540,59.983743737,chinese_cond2,001,1066,
images/rubberglove02a.jpg,lady bug,x,sounds/animalfarm_english.wav,,,,,,,,,0,0,0,1,0,123,123,192,370.331428128,8.65967012942e-06,371.931266676,1.59984784876,,,,,x,1,1.58398229093,2018_Nov_28_1540,59.983743737,chinese_cond2,001,1066,
images/handfan01b.jpg,handfan,z,sounds/animalfarm_english.wav,,,,,,,,,0,0,0,1,0,124,124,69,373.1143723,8.98027792573e-06,374.331863991,1.21750131273,,,,,z,1,1.20053791767,2018_Nov_28_1540,59.983743737,chinese_cond2,001,1066,
images/saltshaker03c.jpg,salt shaker,z,sounds/animalfarm_english.wav,,,,,,,,,0,0,0,1,0,125,125,63,375.470583387,9.30088572204e-06,376.632461916,1.16188879288,,,,,z,1,1.15052362951,2018_Nov_28_1540,59.983743737,chinese_cond2,001,1066,
images/ladder.jpg,ladder,z,sounds/animalfarm_english.wav,,,,,,,,,0,0,0,1,0,126,126,113,377.7538911,8.98027792573e-06,378.833037038,1.07915620157,,,,,z,1,1.06716145761,2018_Nov_28_1540,59.983743737,chinese_cond2,001,1066,
images/safe.jpg,safe,z,sounds/animalfarm_english.wav,,,,,,,,,0,0,0,1,0,127,127,78,380.025221388,9.30088572204e-06,381.016925229,0.991713462863,,,,,z,1,0.967143144226,2018_Nov_28_1540,59.983743737,chinese_cond2,001,1066,
images/masquerademask02b.jpg,mirror,x,sounds/animalfarm_english.wav,,,,,,,,,0,0,0,1,0,128,128,204,382.209491881,8.98027792573e-06,383.350859171,1.14137723227,,,,,x,1,1.11716901069,2018_Nov_28_1540,59.983743737,chinese_cond2,001,1066,
images/nailpolish02b.jpg,nail polish,z,sounds/animalfarm_english.wav,,,,,,,,,0,0,0,1,0,129,129,94,384.507688227,8.98027792573e-06,385.984909952,1.47723134677,,,,,z,1,1.46730270446,2018_Nov_28_1540,59.983743737,chinese_cond2,001,1066,
images/rhinoceros01.jpg,envelope,x,sounds/animalfarm_english.wav,,,,,,,,,0,0,0,1,0,130,130,173,387.183339753,9.62149351835e-06,388.21879415,1.03546465957,,,,,x,1,1.01714749029,2018_Nov_28_1540,59.983743737,chinese_cond2,001,1066,
images/pepper05a.jpg,lighter,x,sounds/animalfarm_english.wav,,,,,,,,,0,0,0,1,0,131,131,198,389.4098178,8.65967012942e-06,390.235991993,0.826183494413,,,,,x,1,0.817106052767,2018_Nov_28_1540,59.983743737,chinese_cond2,001,1066,
images/sock03.jpg,sock,z,sounds/animalfarm_english.wav,,,,,,,,,0,0,0,1,0,132,132,90,391.406062447,9.30111855268e-06,392.186495674,0.780443169642,,,,,z,1,0.767101065489,2018_Nov_28_1540,59.983743737,chinese_cond2,001,1066,
images/drink.jpg,drink,z,sounds/animalfarm_english.wav,,,,,,,,,0,0,0,1,0,133,133,117,393.364636817,9.30088572204e-06,394.870532199,1.50590500352,,,,,z,1,1.48394697928,2018_Nov_28_1540,59.983743737,chinese_cond2,001,1066,
images/gluestick.jpg,squirrel,x,sounds/animalfarm_english.wav,,,,,,,,,0,0,0,1,0,134,134,226,396.069485101,1.05840153992e-05,397.887986622,1.81851146393,,,,,x,1,1.80071033887,2018_Nov_28_1540,59.983743737,chinese_cond2,001,1066,
images/spoon02b.jpg,spoon,z,sounds/animalfarm_english.wav,,,,,,,,,0,0,0,1,0,135,135,38,399.057404723,9.30111855268e-06,400.07186936,1.01447393792,,,,,z,1,1.00048814132,2018_Nov_28_1540,59.983743737,chinese_cond2,001,1066,
images/leaf01a.jpg,leaf,z,sounds/animalfarm_english.wav,,,,,,,,,0,0,0,1,0,136,136,68,401.239226812,9.30111855268e-06,402.355794145,1.11657695496,,,,,z,1,1.10051158629,2018_Nov_28_1540,59.983743737,chinese_cond2,001,1066,
images/thumbtack02a.jpg,thumb tack,z,sounds/animalfarm_english.wav,,,,,,,,,0,0,0,1,0,137,137,60,403.503346591,9.621726349e-06,405.223215325,1.71987835597,,,,,z,1,1.70067983796,2018_Nov_28_1540,59.983743737,chinese_cond2,001,1066,
images/lion.jpg,lion,z,sounds/animalfarm_english.wav,,,,,,,,,0,0,0,1,0,138,138,44,406.415705966,8.65943729877e-06,407.373761085,0.958064740524,,,,,z,1,0.933807127643,2018_Nov_28_1540,59.983743737,chinese_cond2,001,1066,
images/lipstick04.jpg,lipstick,z,sounds/animalfarm_english.wav,,,,,,,,,0,0,0,1,0,139,139,56,408.561328296,8.65943729877e-06,409.841067958,1.27974864235,,,,,z,1,1.26720930962,2018_Nov_28_1540,59.983743737,chinese_cond2,001,1066,
images/backpack01b.jpg,swallow,x,sounds/animalfarm_english.wav,,,,,,,,,0,0,0,1,0,140,140,228,411.043053943,8.65943729877e-06,412.191703585,1.1486589422,,,,,x,1,1.13388159964,2018_Nov_28_1540,59.983743737,chinese_cond2,001,1066,
images/bat.jpg,hand,x,sounds/animalfarm_english.wav,,,,,,,,,0,0,0,1,0,141,141,185,413.323411961,9.621726349e-06,414.40892266,1.08552096272,,,,,x,1,1.06717300368,2018_Nov_28_1540,59.983743737,chinese_cond2,001,1066,
images/dice05a.jpg,band aid,x,sounds/animalfarm_english.wav,,,,,,,,,0,0,0,1,0,142,142,126,415.605278021,8.98027792573e-06,417.009587072,1.40431867237,,,,,x,1,1.38390429108,2018_Nov_28_1540,59.983743737,chinese_cond2,001,1066,
images/marker01a.jpg,marker,z,sounds/animalfarm_english.wav,,,,,,,,,0,0,0,1,0,143,143,95,418.1816056,8.98027792573e-06,419.060130233,0.878534575226,,,,,z,1,0.867127717705,2018_Nov_28_1540,59.983743737,chinese_cond2,001,1066,
images/antelope.jpg,antelope,z,sounds/animalfarm_english.wav,,,,,,,,,0,0,0,1,0,144,144,12,420.226684914,8.98027792573e-06,421.494088261,1.26741296914,,,,,z,1,1.25055797887,2018_Nov_28_1540,59.983743737,chinese_cond2,001,1066,
images/broadsword.jpg,teapot,x,sounds/animalfarm_english.wav,,,,,,,,,0,0,0,1,0,145,145,231,422.609101047,8.98004509509e-06,423.394574446,0.785483020823,,,,,x,1,0.767092085211,2018_Nov_28_1540,59.983743737,chinese_cond2,001,1066,
images/worldmap.jpg,scooter,x,sounds/animalfarm_english.wav,,,,,,,,,0,0,0,1,0,146,146,220,424.591166822,8.98027792573e-06,425.478466774,0.887309574289,,,,,x,1,0.867132207844,2018_Nov_28_1540,59.983743737,chinese_cond2,001,1066,
images/wallet01.jpg,lamp,x,sounds/animalfarm_english.wav,,,,,,,,,0,0,0,1,0,147,147,193,426.657936034,8.98027792573e-06,427.495637357,0.837710944004,,,,,x,1,0.817103486974,2018_Nov_28_1540,59.983743737,chinese_cond2,001,1066,
images/dolphin01.jpg,dolphin,z,sounds/animalfarm_english.wav,,,,,,,,,0,0,0,1,0,148,148,99,428.682627586,9.621726349e-06,429.679545432,0.996927788248,,,,,z,1,0.983823340386,2018_Nov_28_1540,59.983743737,chinese_cond2,001,1066,
images/coin01b.jpg,arrow,x,sounds/animalfarm_english.wav,,,,,,,,,0,0,0,1,0,149,149,124,430.861670284,9.30111855268e-06,431.730079293,0.868418951053,,,,,x,1,0.850452011917,2018_Nov_28_1540,59.983743737,chinese_cond2,001,1066,
images/pineapple01a.jpg,pineapple,z,sounds/animalfarm_english.wav,,,,,,,,,0,0,0,1,0,150,150,51,432.918538116,8.98027792573e-06,433.613893941,0.695364805404,,,,,z,1,0.683732158737,2018_Nov_28_1540,59.983743737,chinese_cond2,001,1066,
images/eraser.jpg,eraser,z,sounds/animalfarm_english.wav,,,,,,,,,0,0,0,1,0,151,151,110,434.798531984,9.30088572204e-06,436.081216851,1.28269448923,,,,,z,1,1.26724009914,2018_Nov_28_1540,59.983743737,chinese_cond2,001,1066,
images/carrot02.jpg,corkscrew,x,sounds/animalfarm_english.wav,,,,,,,,,0,0,0,1,0,152,152,161,437.259436893,8.98027792573e-06,438.065042437,0.805615165504,,,,,x,1,0.783757848432,2018_Nov_28_1540,59.983743737,chinese_cond2,001,1066,
images/flower01.jpg,bus,x,sounds/animalfarm_english.wav,,,,,,,,,0,0,0,1,0,153,153,140,439.25554459,9.30088572204e-06,440.582595482,1.32706083381,,,,,x,1,1.31746766856,2018_Nov_28_1540,59.983743737,chinese_cond2,001,1066,
images/raisin.jpg,ruler,x,sounds/animalfarm_english.wav,,,,,,,,,0,0,0,1,0,154,154,218,441.768084083,9.94233414531e-06,442.966320809,1.19824666786,,,,,x,1,1.18386573996,2018_Nov_28_1540,59.983743737,chinese_cond2,001,1066,
images/gps.jpg,gps,z,sounds/animalfarm_english.wav,,,,,,,,,0,0,0,1,0,155,155,21,444.114880006,1.18666794151e-05,445.883746976,1.76887755375,,,,,z,1,1.75067873136,2018_Nov_28_1540,59.983743737,chinese_cond2,001,1066,
images/comb02a.jpg,diploma,x,sounds/animalfarm_english.wav,,,,,,,,,0,0,0,1,0,156,156,166,447.063347733,8.65967012942e-06,447.950931526,0.887593094027,,,,,x,1,0.867106229067,2018_Nov_28_1540,59.983743737,chinese_cond2,001,1066,
images/mirror02.jpg,8 ball,x,sounds/animalfarm_english.wav,,,,,,,,,0,0,0,1,0,157,157,121,449.119921141,9.30088572204e-06,450.584969158,1.46505763871,,,,,x,1,1.45061352826,2018_Nov_28_1540,59.983743737,chinese_cond2,001,1066,
images/remotecontrol01c.jpg,remote control,z,sounds/animalfarm_english.wav,,,,,,,,,0,0,0,1,0,158,158,85,451.7727009,8.98027792573e-06,452.485463681,0.712772082072,,,,,z,1,0.700422617607,2018_Nov_28_1540,59.983743737,chinese_cond2,001,1066,
images/bicycle.jpg,hand bag,x,sounds/animalfarm_english.wav,,,,,,,,,0,0,0,1,0,159,159,186,453.669531157,9.621726349e-06,454.686037841,1.0165163062,,,,,x,1,1.00049808389,2018_Nov_28_1540,59.983743737,chinese_cond2,001,1066,
images/chessknight02b (1).jpg,cockroach,x,sounds/animalfarm_english.wav,,,,,,,,,0,0,0,1,0,160,160,155,455.863856978,8.98027792573e-06,457.236696623,1.37284894637,,,,,x,1,1.35057276418,2018_Nov_28_1540,59.983743737,chinese_cond2,001,1066,
images/daisy.jpg,daisy,z,sounds/animalfarm_english.wav,,,,,,,,,0,0,0,1,0,161,161,6,458.467330928,9.621726349e-06,459.970729476,1.50340849068,,,,,z,1,1.48394922423,2018_Nov_28_1540,59.983743737,chinese_cond2,001,1066,
images/cookingpot.jpg,grasshopper,x,sounds/animalfarm_english.wav,,,,,,,,,0,0,0,1,0,162,162,183,461.124775934,9.30088572204e-06,462.121288385,0.996522072703,,,,,x,1,0.983824943891,2018_Nov_28_1540,59.983743737,chinese_cond2,001,1066,
images/tulip02.jpg,sport shorts,x,sounds/animalfarm_english.wav,,,,,,,,,0,0,0,1,0,163,163,225,463.284399777,8.98004509509e-06,464.12182656,0.837435762864,,,,,x,1,0.817138766637,2018_Nov_28_1540,59.983743737,chinese_cond2,001,1066,
images/butterfly.jpg,butterfly,z,sounds/animalfarm_english.wav,,,,,,,,,0,0,0,1,0,164,164,91,465.311961485,8.65967012942e-06,466.172318085,0.86036590091,,,,,z,1,0.850426033372,2018_Nov_28_1540,59.983743737,chinese_cond2,001,1066,
images/headphones02b.jpg,headphones,z,sounds/animalfarm_english.wav,,,,,,,,,0,0,0,1,0,165,165,101,467.352298899,8.98027792573e-06,468.372904752,1.02061547502,,,,,z,1,1.00049359375,2018_Nov_28_1540,59.983743737,chinese_cond2,001,1066,
images/sportshorts02.jpg,tape,x,sounds/animalfarm_english.wav,,,,,,,,,0,0,0,1,0,166,166,230,469.537672682,9.30111855268e-06,470.856882201,1.31921881996,,,,,x,1,1.30057483306,2018_Nov_28_1540,59.983743737,chinese_cond2,001,1066,
images/binder03b.jpg,dj mixer,x,sounds/animalfarm_english.wav,,,,,,,,,0,0,0,1,0,167,167,167,472.009134851,9.621726349e-06,472.990764762,0.981639532838,,,,,x,1,0.967144106515,2018_Nov_28_1540,59.983743737,chinese_cond2,001,1066,
images/fork01.jpg,cooking pot,x,sounds/animalfarm_english.wav,,,,,,,,,0,0,0,1,0,168,168,160,474.168794615,9.30111855268e-06,475.758155762,1.58937108982,,,,,x,1,1.56729086977,2018_Nov_28_1540,59.983743737,chinese_cond2,001,1066,
images/grandpiano.jpg,tulip,x,sounds/animalfarm_english.wav,,,,,,,,,0,0,0,1,0,169,169,236,476.962264617,8.65967012942e-06,477.908704087,0.946448771283,,,,,x,1,0.933786280686,2018_Nov_28_1540,59.983743737,chinese_cond2,001,1066,
images/showerhead01.jpg,skateboard,x,sounds/animalfarm_english.wav,,,,,,,,,0,0,0,1,0,170,170,223,479.117763312,8.98027792573e-06,480.242654386,1.12490101671,,,,,x,1,1.10052217031,2018_Nov_28_1540,59.983743737,chinese_cond2,001,1066,
images/stapler03a.jpg,candy cane,x,sounds/animalfarm_english.wav,,,,,,,,,0,0,0,1,0,171,171,145,481.39194772,9.30111855268e-06,482.276515427,0.884577650344,,,,,x,1,0.867123227566,2018_Nov_28_1540,59.983743737,chinese_cond2,001,1066,
images/tissuebox03.jpg,tissue box,z,sounds/animalfarm_english.wav,,,,,,,,,0,0,0,1,0,172,172,58,483.472861166,9.621726349e-06,484.227019108,0.754167884123,,,,,z,1,0.733755106339,2018_Nov_28_1540,59.983743737,chinese_cond2,001,1066,
images/gorilla.jpg,gorilla,z,sounds/animalfarm_english.wav,,,,,,,,,0,0,0,1,0,173,173,80,485.413406377,9.30088572204e-06,486.360878898,0.947482463671,,,,,z,1,0.933786280686,2018_Nov_28_1540,59.983743737,chinese_cond2,001,1066,
images/lamp04b.jpg,parking meter,x,sounds/animalfarm_english.wav,,,,,,,,,0,0,0,1,0,174,174,209,487.583090358,8.98027792573e-06,488.3614113,0.77833088371,,,,,x,1,0.767076049,2018_Nov_28_1540,59.983743737,chinese_cond2,001,1066,
images/flipflop01b.jpg,flip flop,z,sounds/animalfarm_english.wav,,,,,,,,,0,0,0,1,0,175,175,27,489.542469104,9.30088572204e-06,490.295251783,0.752791979583,,,,,z,1,0.733758313581,2018_Nov_28_1540,59.983743737,chinese_cond2,001,1066,
images/pen03c.jpg,pepper,x,sounds/animalfarm_english.wav,,,,,,,,,0,0,0,1,0,176,176,211,491.391870104,8.65967012942e-06,492.612505849,1.22064504586,,,,,x,1,1.20053342753,2018_Nov_28_1540,59.983743737,chinese_cond2,001,1066,
images/mitten01.jpg,mitten,z,sounds/animalfarm_english.wav,,,,,,,,,0,0,0,1,0,177,177,102,493.764552275,9.30088572204e-06,494.429792149,0.665249495767,,,,,z,1,0.650534694316,2018_Nov_28_1540,59.983743737,chinese_cond2,001,1066,
images/scissors04a.jpg,leek,x,sounds/animalfarm_english.wav,,,,,,,,,0,0,0,1,0,178,178,194,495.619787559,4.23355959356e-05,496.396825606,0.77705953503,,,,,x,1,0.767071238253,2018_Nov_28_1540,59.983743737,chinese_cond2,001,1066,
images/axe01.jpg,axe,z,sounds/animalfarm_english.wav,,,,,,,,,0,0,0,1,0,179,179,104,497.567342827,9.30111855268e-06,498.580739454,1.01340689021,,,,,z,1,1.00049070711,2018_Nov_28_1540,59.983743737,chinese_cond2,001,1066,
images/aloe02.jpg,broad sword,x,sounds/animalfarm_english.wav,,,,,,,,,0,0,0,1,0,180,180,137,499.764704939,8.98004509509e-06,500.814648027,1.04995270912,,,,,x,1,1.03383345902,2018_Nov_28_1540,59.983743737,chinese_cond2,001,1066,
images/plant01.jpg,plant,z,sounds/animalfarm_english.wav,,,,,,,,,0,0,0,1,0,181,181,47,501.997235362,9.30111855268e-06,502.765143689,0.767918269383,,,,,z,1,0.750418945216,2018_Nov_28_1540,59.983743737,chinese_cond2,001,1066,
images/computerkeyboard01a.jpg,computer keyboard,z,sounds/animalfarm_english.wav,,,,,,,,,0,0,0,1,0,182,182,61,503.953684618,1.28289684653e-05,504.832351331,0.878676014254,,,,,z,1,0.867123869015,2018_Nov_28_1540,59.983743737,chinese_cond2,001,1066,
images/crocodile.jpg,triangle ruler,x,sounds/animalfarm_english.wav,,,,,,,,,0,0,0,1,0,183,183,235,506.003804424,8.98027792573e-06,506.98291473,0.979119927855,,,,,x,1,0.967156935483,2018_Nov_28_1540,59.983743737,chinese_cond2,001,1066,
images/medal01.jpg,medal,z,sounds/animalfarm_english.wav,,,,,,,,,0,0,0,1,0,184,184,115,508.179483693,8.65967012942e-06,509.583593253,1.40411886154,,,,,z,1,1.38393123168,2018_Nov_28_1540,59.983743737,chinese_cond2,001,1066,
images/cocktailshrimp01.jpg,cocktail shrimp,z,sounds/animalfarm_english.wav,,,,,,,,,0,0,0,1,0,185,185,30,510.77682669,9.30088572204e-06,511.767478878,0.990661489312,,,,,z,1,0.967142823618,2018_Nov_28_1540,59.983743737,chinese_cond2,001,1066,
images/belt02a.jpg,snowman,x,sounds/animalfarm_english.wav,,,,,,,,,0,0,0,1,0,186,186,224,512.950930884,9.30111855268e-06,513.801333184,0.850411921507,,,,,x,1,0.833772457438,2018_Nov_28_1540,59.983743737,chinese_cond2,001,1066,
images/charcoalbarbecue.jpg,charcoal barbecue,z,sounds/animalfarm_english.wav,,,,,,,,,0,0,0,1,0,187,187,77,514.994533907,8.98027792573e-06,515.735199646,0.740675681503,,,,,z,1,0.71710473788,2018_Nov_28_1540,59.983743737,chinese_cond2,001,1066,
images/weight01.jpg,weight,z,sounds/animalfarm_english.wav,,,,,,,,,0,0,0,1,0,188,188,67,516.923591117,9.30111855268e-06,517.919081101,0.995499605779,,,,,z,1,0.983827509684,2018_Nov_28_1540,59.983743737,chinese_cond2,001,1066,
images/straw.jpg,straw,z,sounds/animalfarm_english.wav,,,,,,,,,0,0,0,1,0,189,189,109,519.088326012,8.98027792573e-06,520.119651412,1.03133470123,,,,,z,1,1.01715679117,2018_Nov_28_1540,59.983743737,chinese_cond2,001,1066,
images/pouch01b.jpg,pouch,z,sounds/animalfarm_english.wav,,,,,,,,,0,0,0,1,0,190,190,25,521.276644679,9.30111855268e-06,522.420239074,1.14360369602,,,,,z,1,1.1338501689,2018_Nov_28_1540,59.983743737,chinese_cond2,001,1066,
images/clothespin02a.jpg,clothes pin,z,sounds/animalfarm_english.wav,,,,,,,,,0,0,0,1,0,191,191,79,523.602365209,8.98027792573e-06,524.72083283,1.11847820459,,,,,z,1,1.10051607643,2018_Nov_28_1540,59.983743737,chinese_cond2,001,1066,
images/screw03c.jpg,screw,z,sounds/animalfarm_english.wav,,,,,,,,,0,0,0,1,0,192,192,84,525.850816675,8.65967012942e-06,527.504896007,1.65408927482,,,,,z,1,1.63398727821,2018_Nov_28_1540,59.983743737,chinese_cond2,001,1066,
images/blueberry02.jpg,blueberry,z,sounds/animalfarm_english.wav,,,,,,,,,0,0,0,1,0,193,193,46,528.692426336,8.98027792573e-06,529.688797347,0.996380954282,,,,,z,1,0.983823019546,2018_Nov_28_1540,59.983743737,chinese_cond2,001,1066,
images/licenseplate.jpg,license plate,z,sounds/animalfarm_english.wav,,,,,,,,,0,0,0,1,0,194,194,40,530.895933833,9.30111855268e-06,532.239453564,1.34352935222,,,,,z,1,1.3339076424,2018_Nov_28_1540,59.983743737,chinese_cond2,001,1066,
images/giraffe.jpg,lettuce,x,sounds/animalfarm_english.wav,,,,,,,,,0,0,0,1,0,195,195,195,533.394644685,8.98004509509e-06,534.623411416,1.22877635248,,,,,x,1,1.21721394407,2018_Nov_28_1540,59.983743737,chinese_cond2,001,1066,
images/pictureframe04.jpg,picture frame,z,sounds/animalfarm_english.wav,,,,,,,,,0,0,0,1,0,196,196,41,535.74753596,9.30088572204e-06,536.573936585,0.826411528746,,,,,z,1,0.817132672761,2018_Nov_28_1540,59.983743737,chinese_cond2,001,1066,
images/candy.jpg,candy,z,sounds/animalfarm_english.wav,,,,,,,,,0,0,0,1,0,197,197,31,537.761081083,9.94233414531e-06,538.724482985,0.963412166107,,,,,z,1,0.95041163289,2018_Nov_28_1540,59.983743737,chinese_cond2,001,1066,
images/hairpin.jpg,hair pin,z,sounds/animalfarm_english.wav,,,,,,,,,0,0,0,1,0,198,198,28,539.894815149,9.62149351835e-06,541.158451597,1.26364671113,,,,,z,1,1.25056407275,2018_Nov_28_1540,59.983743737,chinese_cond2,001,1066,
images/button07.jpg,radish,x,sounds/animalfarm_english.wav,,,,,,,,,0,0,0,1,0,199,199,215,542.30549313,9.621726349e-06,543.242306401,0.936823213007,,,,,x,1,0.917130459798,2018_Nov_28_1540,59.983743737,chinese_cond2,001,1066,
images/paintbrush03a.jpg,paint brush,z,sounds/animalfarm_english.wav,,,,,,,,,0,0,0,1,0,200,200,0,544.446568562,9.30088572204e-06,545.19282291,0.746263649547,,,,,z,1,0.733765690122,2018_Nov_28_1540,59.983743737,chinese_cond2,001,1066,
images/cherry01.jpg,highlighter,x,sounds/animalfarm_english.wav,,,,,,,,,0,0,0,1,0,201,201,187,546.378639292,9.30088572204e-06,547.126643188,0.748013838427,,,,,x,1,0.733743880875,2018_Nov_28_1540,59.983743737,chinese_cond2,001,1066,
images/ruler02b.jpg,watermelon,x,sounds/animalfarm_english.wav,,,,,,,,,0,0,0,1,0,202,202,238,548.296570278,9.30088572204e-06,549.310552546,1.01399221085,,,,,x,1,1.00048653781,2018_Nov_28_1540,59.983743737,chinese_cond2,001,1066,
images/electricguitar02.jpg,electric guitar,z,sounds/animalfarm_english.wav,,,,,,,,,0,0,0,1,0,203,203,100,550.440417082,9.30111855268e-06,551.227706098,0.787298958516,,,,,z,1,0.767094971845,2018_Nov_28_1540,59.983743737,chinese_cond2,001,1066,
images/graduationcap.jpg,graduation cap,z,sounds/animalfarm_english.wav,,,,,,,,,0,0,0,1,0,204,204,35,552.393458649,8.98027792573e-06,553.078192106,0.68474307959,,,,,z,1,0.667072168319,2018_Nov_28_1540,59.983743737,chinese_cond2,001,1066,
images/radio03a.jpg,radio,z,sounds/animalfarm_english.wav,,,,,,,,,0,0,0,1,0,205,205,37,554.245854567,9.621726349e-06,554.895326062,0.649481437868,,,,,z,1,0.633726209169,2018_Nov_28_1540,59.983743737,chinese_cond2,001,1066,
images/hand01a.jpg,cupcake,x,sounds/animalfarm_english.wav,,,,,,,,,0,0,0,1,0,206,206,163,556.086740354,9.30111855268e-06,556.779155143,0.692424411187,,,,,x,1,0.683741459623,2018_Nov_28_1540,59.983743737,chinese_cond2,001,1066,
images/cigar.jpg,crocodile,x,sounds/animalfarm_english.wav,,,,,,,,,0,0,0,1,0,207,207,162,557.940753681,9.30111855268e-06,558.696455587,0.755711847916,,,,,x,1,0.733898149105,2018_Nov_28_1540,59.983743737,chinese_cond2,001,1066,
images/tank.jpg,wallet,x,sounds/animalfarm_english.wav,,,,,,,,,0,0,0,1,0,208,208,237,559.869781706,9.94233414531e-06,560.59680354,0.727031455608,,,,,x,1,0.717082286952,2018_Nov_28_1540,59.983743737,chinese_cond2,001,1066,
images/beachumbrella01.jpg,beach umbrella,z,sounds/animalfarm_english.wav,,,,,,,,,0,0,0,1,0,209,209,92,561.773598606,8.98027792573e-06,562.664001239,0.890411934117,,,,,z,1,0.867119058268,2018_Nov_28_1540,59.983743737,chinese_cond2,001,1066,
,,,sounds/animalfarm_english.wav,,,,,,,,,0,0,0,1,,,,,,,,,,,,,,,,2018_Nov_28_1540,59.983743737,chinese_cond2,001,1066,
images/candle08a.jpg,screw driver,x,sounds/greatgatsby_chinese.wav,,,,,,,,,0,1,1,0,0,0,0,221,583.804489426,9.62149351835e-06,585.453258857,1.64877969446,,,,573.66701989,x,1,1.63400074863,2018_Nov_28_1540,59.983743737,chinese_cond2,001,1066,
images/bowlingball.jpg,bowling ball,z,sounds/greatgatsby_chinese.wav,,,,,,,,,0,1,1,0,0,1,1,20,586.584052529,9.30111855268e-06,587.570520878,0.986477969913,,,,,z,1,0.967208892806,2018_Nov_28_1540,59.983743737,chinese_cond2,001,1066,
images/eraser.jpg,eraser,z,sounds/greatgatsby_chinese.wav,,,,,,,,,0,1,1,0,0,2,2,110,588.676664051,9.62149351835e-06,589.687669683,1.01101525384,,,,,z,1,1.00048685842,2018_Nov_28_1540,59.983743737,chinese_cond2,001,1066,
images/pepper05a.jpg,lighter,x,sounds/greatgatsby_chinese.wav,,,,,,,,,0,1,1,0,0,3,3,198,590.807813085,8.98027792573e-06,592.838510508,2.03070640354,,,,,x,1,2.01743742428,2018_Nov_28_1540,59.983743737,chinese_cond2,001,1066,
images/lantern03.jpg,lantern,z,sounds/greatgatsby_chinese.wav,,,,,,,,,0,1,1,0,0,4,4,5,593.942943262,8.98027792573e-06,594.688979518,0.74604587839,,,,,z,1,0.733761199983,2018_Nov_28_1540,59.983743737,chinese_cond2,001,1066,
images/raisin.jpg,ruler,x,sounds/greatgatsby_chinese.wav,,,,,,,,,0,1,1,0,0,5,5,218,595.793345561,9.30111855268e-06,597.306315145,1.51297920523,,,,,x,1,1.5006114596,2018_Nov_28_1540,59.983743737,chinese_cond2,001,1066,
images/acousticguitar02.jpg,acoustic guitar,z,sounds/greatgatsby_chinese.wav,,,,,,,,,0,1,1,0,0,6,6,97,598.493485621,9.30088572204e-06,599.290148428,0.796672748635,,,,,z,1,0.783754320582,2018_Nov_28_1540,59.983743737,chinese_cond2,001,1066,
images/gorilla.jpg,gorilla,z,sounds/greatgatsby_chinese.wav,,,,,,,,,0,1,1,0,0,7,7,80,600.400425408,8.98027792573e-06,601.290670887,0.890254458878,,,,,z,1,0.867110398598,2018_Nov_28_1540,59.983743737,chinese_cond2,001,1066,
images/fireextinguisher02.jpg,fire extinguisher,z,sounds/greatgatsby_chinese.wav,,,,,,,,,0,1,1,0,0,8,8,175,602.470884546,9.621726349e-06,604.308126592,1.83725230908,,,,,z,1,1.81736712158,2018_Nov_28_1540,59.983743737,chinese_cond2,001,1066,
images/cupcake.jpg,scissors,x,sounds/greatgatsby_chinese.wav,,,,,,,,,0,1,1,0,0,9,9,219,605.508448342,8.98027792573e-06,607.442263167,1.93382444675,,,,,x,1,1.91737837926,2018_Nov_28_1540,59.983743737,chinese_cond2,001,1066,
images/headphones02b.jpg,headphones,z,sounds/greatgatsby_chinese.wav,,,,,,,,,0,1,1,0,0,10,10,101,608.548089465,8.98027792573e-06,610.026279776,1.47819961119,,,,,z,1,1.46728249895,2018_Nov_28_1540,59.983743737,chinese_cond2,001,1066,
images/lion.jpg,lion,z,sounds/greatgatsby_chinese.wav,,,,,,,,,0,1,1,0,0,11,11,44,611.136704609,9.30088572204e-06,611.910103084,0.773408096051,,,,,z,1,0.750428566942,2018_Nov_28_1540,59.983743737,chinese_cond2,001,1066,
images/wallet01.jpg,lamp,x,sounds/greatgatsby_chinese.wav,,,,,,,,,0,1,1,0,0,12,12,193,613.013048321,8.98027792573e-06,614.260703751,1.24766505184,,,,,x,1,1.23387810378,2018_Nov_28_1540,59.983743737,chinese_cond2,001,1066,
images/ostrich.jpg,ostrich,z,sounds/greatgatsby_chinese.wav,,,,,,,,,0,1,1,0,0,13,13,76,615.360318915,9.30088572204e-06,616.678014618,1.31770532485,,,,,z,1,1.30057098437,2018_Nov_28_1540,59.983743737,chinese_cond2,001,1066,
images/cockroach02.jpg,belt,x,sounds/greatgatsby_chinese.wav,,,,,,,,,0,1,1,0,0,14,14,129,617.775627504,9.621726349e-06,618.578505934,0.802888693754,,,,,x,1,0.783779657679,2018_Nov_28_1540,59.983743737,chinese_cond2,001,1066,
images/razor04a.jpg,razor,z,sounds/greatgatsby_chinese.wav,,,,,,,,,0,1,1,0,0,15,15,36,619.676045375,9.30111855268e-06,620.595677158,0.919641084503,,,,,z,1,0.900453471346,2018_Nov_28_1540,59.983743737,chinese_cond2,001,1066,
images/electrictoothbrush01a.jpg,banjo,x,sounds/greatgatsby_chinese.wav,,,,,,,,,0,1,1,0,0,16,16,127,621.688427553,9.30111855268e-06,622.546186612,0.857768680668,,,,,x,1,0.833778872155,2018_Nov_28_1540,59.983743737,chinese_cond2,001,1066,
images/gamecontroller01.jpg,game controller,z,sounds/greatgatsby_chinese.wav,,,,,,,,,0,1,1,0,0,17,17,112,623.665522432,9.30088572204e-06,625.080188932,1.4146761219,,,,,z,1,1.40059924009,2018_Nov_28_1540,59.983743737,chinese_cond2,001,1066,
images/nametag01a.jpg,name tag,z,sounds/greatgatsby_chinese.wav,,,,,,,,,0,1,1,0,0,18,18,108,626.199463814,9.621726349e-06,626.897311662,0.697857469786,,,,,z,1,0.68374145939,2018_Nov_28_1540,59.983743737,chinese_cond2,001,1066,
images/daisy.jpg,daisy,z,sounds/greatgatsby_chinese.wav,,,,,,,,,0,1,1,0,0,19,19,6,627.998972081,9.30111855268e-06,629.49798794,1.49902548129,,,,,z,1,1.48394505493,2018_Nov_28_1540,59.983743737,chinese_cond2,001,1066,
images/scooter.jpg,pen,x,sounds/greatgatsby_chinese.wav,,,,,,,,,0,1,1,0,0,20,20,212,630.588584355,9.621726349e-06,632.015306537,1.42673180369,,,,,z,0,1.41725281579,2018_Nov_28_1540,59.983743737,chinese_cond2,001,1066,
images/apricot.jpg,apricot,z,sounds/greatgatsby_chinese.wav,,,,,,,,,0,1,1,0,0,21,21,32,633.130113418,9.30111855268e-06,634.249214147,1.1191106718,,,,,z,1,1.10050132312,2018_Nov_28_1540,59.983743737,chinese_cond2,001,1066,
images/mushroom01.jpg,shower head,x,sounds/greatgatsby_chinese.wav,,,,,,,,,0,1,1,0,0,22,22,222,635.365357484,8.98027792573e-06,636.216394495,0.851046633441,,,,,x,1,0.833769250195,2018_Nov_28_1540,59.983743737,chinese_cond2,001,1066,
images/honeycomb.jpg,honey comb,z,sounds/greatgatsby_chinese.wav,,,,,,,,,0,1,1,0,0,23,23,59,637.327498942,8.98027792573e-06,638.06687441,0.739385089371,,,,,z,1,0.717073627748,2018_Nov_28_1540,59.983743737,chinese_cond2,001,1066,
images/leek.jpg,donut,x,sounds/greatgatsby_chinese.wav,,,,,,,,,0,1,1,0,0,24,24,169,639.16773783,8.65943729877e-06,640.067406491,0.899677961366,,,,,x,1,0.883800857468,2018_Nov_28_1540,59.983743737,chinese_cond2,001,1066,
images/chessknight02b (1).jpg,cockroach,x,sounds/greatgatsby_chinese.wav,,,,,,,,,0,1,1,0,0,25,25,155,641.174456991,8.98027792573e-06,642.334653646,1.16020563501,,,,,x,1,1.15052908193,2018_Nov_28_1540,59.983743737,chinese_cond2,001,1066,
images/bed.jpg,bed,z,sounds/greatgatsby_chinese.wav,,,,,,,,,0,1,1,0,0,26,26,103,643.452587262,8.98027792573e-06,644.185135164,0.732557203621,,,,,z,1,0.717086135643,2018_Nov_28_1540,59.983743737,chinese_cond2,001,1066,
images/antelope.jpg,antelope,z,sounds/greatgatsby_chinese.wav,,,,,,,,,0,1,1,0,0,27,27,12,645.288268346,9.30111855268e-06,646.485730523,1.19747179956,,,,,z,1,1.18387055071,2018_Nov_28_1540,59.983743737,chinese_cond2,001,1066,
images/djmixer01.jpg,light bulb,x,sounds/greatgatsby_chinese.wav,,,,,,,,,0,1,1,0,0,28,28,196,647.606747577,9.30088572204e-06,648.336201137,0.729463823838,,,,,x,1,0.717079721158,2018_Nov_28_1540,59.983743737,chinese_cond2,001,1066,
images/lychee02a.jpg,lychee,z,sounds/greatgatsby_chinese.wav,,,,,,,,,0,1,1,0,0,29,29,62,649.4602362,9.30111855268e-06,650.236693737,0.776467158459,,,,,z,1,0.767067389563,2018_Nov_28_1540,59.983743737,chinese_cond2,001,1066,
images/parkbench03.jpg,park bench,z,sounds/greatgatsby_chinese.wav,,,,,,,,,0,1,1,0,0,30,30,71,651.341523546,8.98027792573e-06,652.270553816,0.929040211951,,,,,z,1,0.917124366155,2018_Nov_28_1540,59.983743737,chinese_cond2,001,1066,
images/hand01a.jpg,cupcake,x,sounds/greatgatsby_chinese.wav,,,,,,,,,0,1,1,0,0,31,31,163,653.382177836,8.98027792573e-06,654.587822636,1.20565442205,,,,,x,1,1.18386766431,2018_Nov_28_1540,59.983743737,chinese_cond2,001,1066,
images/parkingmeter.jpg,ear,x,sounds/greatgatsby_chinese.wav,,,,,,,,,0,1,1,0,0,32,32,171,655.764286074,8.98027792573e-06,657.271892517,1.50761542283,,,,,x,1,1.48397937231,2018_Nov_28_1540,59.983743737,chinese_cond2,001,1066,
images/screw03c.jpg,screw,z,sounds/greatgatsby_chinese.wav,,,,,,,,,0,1,1,0,0,33,33,84,658.366000534,9.621726349e-06,659.639127516,1.27313692425,,,,,z,1,1.25054579158,2018_Nov_28_1540,59.983743737,chinese_cond2,001,1066,
images/coin01b.jpg,arrow,x,sounds/greatgatsby_chinese.wav,,,,,,,,,0,1,1,0,0,34,34,124,660.741988083,8.98027792573e-06,661.956412052,1.21443359088,,,,,x,1,1.20055427472,2018_Nov_28_1540,59.983743737,chinese_cond2,001,1066,
images/battery03b.jpg,battery,z,sounds/greatgatsby_chinese.wav,,,,,,,,,0,1,1,0,0,35,35,34,663.146301303,8.98004509509e-06,664.82381463,1.67752230703,,,,,z,1,1.66733195446,2018_Nov_28_1540,59.983743737,chinese_cond2,001,1066,
images/fork01.jpg,cooking pot,x,sounds/greatgatsby_chinese.wav,,,,,,,,,0,1,1,0,0,36,36,160,665.917322253,9.94256697595e-06,667.341136754,1.42382412287,,,,,x,1,1.40059859841,2018_Nov_28_1540,59.983743737,chinese_cond2,001,1066,
images/flower01.jpg,bus,x,sounds/greatgatsby_chinese.wav,,,,,,,,,0,1,1,0,0,37,37,140,668.455035025,8.98027792573e-06,669.241476368,0.786451285705,,,,,x,1,0.766938458662,2018_Nov_28_1540,59.983743737,chinese_cond2,001,1066,
images/nailpolish02b.jpg,nail polish,z,sounds/greatgatsby_chinese.wav,,,,,,,,,0,1,1,0,0,38,38,94,670.349850174,9.30088572204e-06,671.30881679,0.958976237336,,,,,z,1,0.950468400726,2018_Nov_28_1540,59.983743737,chinese_cond2,001,1066,
images/bus.jpg,microphone,x,sounds/greatgatsby_chinese.wav,,,,,,,,,0,1,1,0,0,39,39,203,672.427008909,9.30111855268e-06,673.942843517,1.51584422984,,,,,x,1,1.50061755325,2018_Nov_28_1540,59.983743737,chinese_cond2,001,1066,
images/drink.jpg,drink,z,sounds/greatgatsby_chinese.wav,,,,,,,,,0,1,1,0,0,40,40,117,675.041207217,9.621726349e-06,675.843333871,0.80213627615,,,,,z,1,0.783771960298,2018_Nov_28_1540,59.983743737,chinese_cond2,001,1066,
images/binder03b.jpg,dj mixer,x,sounds/greatgatsby_chinese.wav,,,,,,,,,0,1,1,0,0,41,41,167,676.955798828,9.30111855268e-06,678.110592572,1.15480336593,,,,,x,1,1.13385626255,2018_Nov_28_1540,59.983743737,chinese_cond2,001,1066,
images/envelope02a.jpg,grand piano,x,sounds/greatgatsby_chinese.wav,,,,,,,,,0,1,1,0,0,42,42,182,679.233857257,8.65943729877e-06,680.094464342,0.860616385937,,,,,x,1,0.850481518544,2018_Nov_28_1540,59.983743737,chinese_cond2,001,1066,
images/hairdryer03a.jpg,hairdryer,z,sounds/greatgatsby_chinese.wav,,,,,,,,,0,1,1,0,0,43,43,119,681.193367178,8.98027792573e-06,682.611750545,1.41839330923,,,,,z,1,1.40059282561,2018_Nov_28_1540,59.983743737,chinese_cond2,001,1066,
images/watermelon01.jpg,orange,x,sounds/greatgatsby_chinese.wav,,,,,,,,,0,1,1,0,0,44,44,207,683.740784407,9.30088572204e-06,685.412469543,1.67169475835,,,,,x,1,1.65065079648,2018_Nov_28_1540,59.983743737,chinese_cond2,001,1066,
images/lighter02b.jpg,stapler,x,sounds/greatgatsby_chinese.wav,,,,,,,,,0,1,1,0,0,45,45,227,686.513704682,8.98027792573e-06,688.263218866,1.74952380545,,,,,x,1,1.73401040235,2018_Nov_28_1540,59.983743737,chinese_cond2,001,1066,
images/teapot.jpg,light switch,x,sounds/greatgatsby_chinese.wav,,,,,,,,,0,1,1,0,0,46,46,197,689.380239061,9.621726349e-06,690.347086177,0.966857058927,,,,,x,1,0.95047096652,2018_Nov_28_1540,59.983743737,chinese_cond2,001,1066,
images/computermouse02a.jpg,world map,x,sounds/greatgatsby_chinese.wav,,,,,,,,,0,1,1,0,0,47,47,239,691.446937073,9.621726349e-06,692.330946722,0.884019911755,,,,,x,1,0.867119699484,2018_Nov_28_1540,59.983743737,chinese_cond2,001,1066,
images/dreamcatcher.jpg,dream catcher,z,sounds/greatgatsby_chinese.wav,,,,,,,,,0,1,1,0,0,48,48,48,693.429420751,9.30088572204e-06,694.231435793,0.802024984965,,,,,z,1,0.783772601746,2018_Nov_28_1540,59.983743737,chinese_cond2,001,1066,
images/electricguitar02.jpg,electric guitar,z,sounds/greatgatsby_chinese.wav,,,,,,,,,0,1,1,0,0,49,49,100,695.331647182,9.30111855268e-06,696.331984263,1.00034702313,,,,,z,1,0.983822378097,2018_Nov_28_1540,59.983743737,chinese_cond2,001,1066,
images/ear.jpg,bullet,x,sounds/greatgatsby_chinese.wav,,,,,,,,,0,1,1,0,0,50,50,139,697.435274919,9.30111855268e-06,698.215812061,0.780546763446,,,,,x,1,0.767096254742,2018_Nov_28_1540,59.983743737,chinese_cond2,001,1066,
images/belt02a.jpg,snowman,x,sounds/greatgatsby_chinese.wav,,,,,,,,,0,1,1,0,0,51,51,224,699.31737979,9.30088572204e-06,700.249658028,0.932288180338,,,,,x,1,0.917131742695,2018_Nov_28_1540,59.983743737,chinese_cond2,001,1066,
images/lettuce.jpg,mushroom,x,sounds/greatgatsby_chinese.wav,,,,,,,,,0,1,1,0,0,52,52,205,701.373124769,8.98027792573e-06,702.300200869,0.92708540149,,,,,x,1,0.917144892504,2018_Nov_28_1540,59.983743737,chinese_cond2,001,1066,
images/bowtie.jpg,bowtie,z,sounds/greatgatsby_chinese.wav,,,,,,,,,0,1,1,0,0,53,53,89,703.408758129,9.621726349e-06,704.250687872,0.841939364793,,,,,z,1,0.833775343839,2018_Nov_28_1540,59.983743737,chinese_cond2,001,1066,
images/dolphin01.jpg,dolphin,z,sounds/greatgatsby_chinese.wav,,,,,,,,,0,1,1,0,0,54,54,99,705.350909524,9.30111855268e-06,706.484611198,1.13371097483,,,,,z,1,1.11717863241,2018_Nov_28_1540,59.983743737,chinese_cond2,001,1066,
images/pineapple01a.jpg,pineapple,z,sounds/greatgatsby_chinese.wav,,,,,,,,,0,1,1,0,0,55,55,51,707.595844255,9.621726349e-06,708.301751889,0.705917255254,,,,,z,1,0.683744025417,2018_Nov_28_1540,59.983743737,chinese_cond2,001,1066,
images/peach01.jpg,peach,z,sounds/greatgatsby_chinese.wav,,,,,,,,,0,1,1,0,0,56,56,106,709.430481704,9.30111855268e-06,710.318930169,0.888458085945,,,,,z,1,0.867119058035,2018_Nov_28_1540,59.983743737,chinese_cond2,001,1066,
images/lightswitch02a.jpg,fork,x,sounds/greatgatsby_chinese.wav,,,,,,,,,0,1,1,0,0,57,57,177,711.432028875,8.65967012942e-06,712.102730673,0.670711098937,,,,,x,1,0.65040383907,2018_Nov_28_1540,59.983743737,chinese_cond2,001,1066,
images/spoon02b.jpg,spoon,z,sounds/greatgatsby_chinese.wav,,,,,,,,,0,1,1,0,0,58,58,38,713.193940953,8.98027792573e-06,713.903038183,0.709106531227,,,,,z,1,0.700256482698,2018_Nov_28_1540,59.983743737,chinese_cond2,001,1066,
images/tank.jpg,wallet,x,sounds/greatgatsby_chinese.wav,,,,,,,,,0,1,1,0,0,59,59,237,715.006104013,9.30111855268e-06,715.603634312,0.59754088358,,,,,x,1,0.583714486565,2018_Nov_28_1540,59.983743737,chinese_cond2,001,1066,
images/bat.jpg,hand,x,sounds/greatgatsby_chinese.wav,,,,,,,,,0,1,1,0,0,60,60,185,716.70141622,8.98027792573e-06,717.40410026,0.702693982515,,,,,x,1,0.683740176726,2018_Nov_28_1540,59.983743737,chinese_cond2,001,1066,
images/gps.jpg,gps,z,sounds/greatgatsby_chinese.wav,,,,,,,,,0,1,1,0,0,61,61,21,718.520691326,9.30088572204e-06,719.187889539,0.667207513703,,,,,z,1,0.650390368653,2018_Nov_28_1540,59.983743737,chinese_cond2,001,1066,
images/ceilingfan02.jpg,paper clip,x,sounds/greatgatsby_chinese.wav,,,,,,,,,0,1,1,0,0,62,62,208,720.285853297,9.30111855268e-06,721.005044021,0.719200346153,,,,,x,1,0.700408185134,2018_Nov_28_1540,59.983743737,chinese_cond2,001,1066,
images/gluestick.jpg,squirrel,x,sounds/greatgatsby_chinese.wav,,,,,,,,,0,1,1,0,0,63,63,226,722.112149044,9.30088572204e-06,722.888863801,0.776724057971,,,,,x,1,0.76710042404,2018_Nov_28_1540,59.983743737,chinese_cond2,001,1066,
images/toucan.jpg,toucan,z,sounds/greatgatsby_chinese.wav,,,,,,,,,0,1,1,0,0,64,64,81,723.987764713,8.98027792573e-06,724.689318523,0.701562469592,,,,,z,1,0.683738893829,2018_Nov_28_1540,59.983743737,chinese_cond2,001,1066,
images/boxingglove02a.jpg,bracelet,x,sounds/greatgatsby_chinese.wav,,,,,,,,,0,1,1,0,0,65,65,135,725.799269648,9.30088572204e-06,726.439777238,0.640517532593,,,,,x,1,0.617054352071,2018_Nov_28_1540,59.983743737,chinese_cond2,001,1066,
images/cheetah.jpg,cheetah,z,sounds/greatgatsby_chinese.wav,,,,,,,,,0,1,1,0,0,66,66,82,727.61359631,8.65943729877e-06,729.190486118,1.57689975039,,,,,z,1,1.56729535991,2018_Nov_28_1540,59.983743737,chinese_cond2,001,1066,
images/butterfly.jpg,butterfly,z,sounds/greatgatsby_chinese.wav,,,,,,,,,0,1,1,0,0,67,67,91,730.296486248,9.621726349e-06,731.641129794,1.3446534886,,,,,z,1,1.33388583316,2018_Nov_28_1540,59.983743737,chinese_cond2,001,1066,
images/carrot02.jpg,corkscrew,x,sounds/greatgatsby_chinese.wav,,,,,,,,,0,1,1,0,0,68,68,161,732.742336388,9.621726349e-06,733.408248499,0.66592173255,,,,,x,1,0.650387161644,2018_Nov_28_1540,59.983743737,chinese_cond2,001,1066,
images/camera01a.jpg,bull,x,sounds/greatgatsby_chinese.wav,,,,,,,,,0,1,1,0,0,69,69,138,734.517793588,9.621726349e-06,735.542142928,1.0243589615,,,,,x,1,1.00049391459,2018_Nov_28_1540,59.983743737,chinese_cond2,001,1066,
images/tie01.jpg,bench,x,sounds/greatgatsby_chinese.wav,,,,,,,,,0,1,1,0,0,70,70,130,736.639193265,8.98027792573e-06,738.059450299,1.42026665621,,,,,x,1,1.40058833547,2018_Nov_28_1540,59.983743737,chinese_cond2,001,1066,
images/triangleruler02.jpg,bottle of red wine,x,sounds/greatgatsby_chinese.wav,,,,,,,,,0,1,1,0,0,71,71,134,739.168574278,8.98027792573e-06,739.809909655,0.641344999662,,,,,z,0,0.617052427726,2018_Nov_28_1540,59.983743737,chinese_cond2,001,1066,
images/screwdriver02b.jpg,cola,x,sounds/greatgatsby_chinese.wav,,,,,,,,,0,1,1,0,0,72,72,158,740.901905067,9.30088572204e-06,742.09370551,1.19181038556,,,,,x,1,1.18374162004,2018_Nov_28_1540,59.983743737,chinese_cond2,001,1066,
images/corkscrew02a.jpg,masquerade mask,x,sounds/greatgatsby_chinese.wav,,,,,,,,,0,1,1,0,0,73,73,201,743.263381473,8.65967012942e-06,743.860968861,0.59759668936,,,,,x,1,0.583702940727,2018_Nov_28_1540,59.983743737,chinese_cond2,001,1066,
images/dryingmachine01.jpg,drying machine,z,sounds/greatgatsby_chinese.wav,,,,,,,,,0,1,1,0,0,74,74,18,745.054049633,8.98027792573e-06,747.328530069,2.2744890952,,,,,z,1,2.25081359572,2018_Nov_28_1540,59.983743737,chinese_cond2,001,1066,
images/highlighter03b.jpg,coin,x,sounds/greatgatsby_chinese.wav,,,,,,,,,0,1,1,0,0,75,75,156,748.428766474,8.98027792573e-06,749.362379564,0.93362239073,,,,,x,1,0.917133346433,2018_Nov_28_1540,59.983743737,chinese_cond2,001,1066,
images/coffeepot03b.jpg,coffee pot,z,sounds/greatgatsby_chinese.wav,,,,,,,,,0,1,1,0,0,76,76,107,750.482123024,9.30088572204e-06,751.79634978,1.31423669844,,,,,z,1,1.30056906003,2018_Nov_28_1540,59.983743737,chinese_cond2,001,1066,
images/sock03.jpg,sock,z,sounds/greatgatsby_chinese.wav,,,,,,,,,0,1,1,0,0,77,77,90,752.900465659,9.621726349e-06,753.546835436,0.646380040096,,,,,z,1,0.633762771497,2018_Nov_28_1540,59.983743737,chinese_cond2,001,1066,
images/handbag02a.jpg,candle,x,sounds/greatgatsby_chinese.wav,,,,,,,,,0,1,1,0,0,78,78,144,754.663360433,9.94256697595e-06,755.780717709,1.11736721802,,,,,x,1,1.10046957131,2018_Nov_28_1540,59.983743737,chinese_cond2,001,1066,
images/umbrella01.jpg,umbrella,z,sounds/greatgatsby_chinese.wav,,,,,,,,,0,1,1,0,0,79,79,53,756.892068793,9.30088572204e-06,758.214683755,1.32262522564,,,,,z,1,1.30057579512,2018_Nov_28_1540,59.983743737,chinese_cond2,001,1066,
images/baseball01a.jpg,baseball,z,sounds/greatgatsby_chinese.wav,,,,,,,,,0,1,1,0,0,80,80,74,759.345751646,9.30088572204e-06,760.265204787,0.919462762075,,,,,z,1,0.900453150272,2018_Nov_28_1540,59.983743737,chinese_cond2,001,1066,
images/squirrel.jpg,binder,x,sounds/greatgatsby_chinese.wav,,,,,,,,,0,1,1,0,0,81,81,132,761.438622633,8.98027792573e-06,763.065947198,1.62733386597,,,,,x,1,1.61732440139,2018_Nov_28_1540,59.983743737,chinese_cond2,001,1066,
images/cauliflower01.jpg,glue stick,x,sounds/greatgatsby_chinese.wav,,,,,,,,,0,1,1,0,0,82,82,181,764.180477615,9.30111855268e-06,765.116306906,0.935839232756,,,,,x,1,0.916973305168,2018_Nov_28_1540,59.983743737,chinese_cond2,001,1066,
images/globe.jpg,cloud,x,sounds/greatgatsby_chinese.wav,,,,,,,,,0,1,1,0,0,83,83,154,766.242902626,8.33882950246e-06,767.033636535,0.790743530495,,,,,x,1,0.767095292453,2018_Nov_28_1540,59.983743737,chinese_cond2,001,1066,
images/fryingpan01.jpg,frying pan,z,sounds/greatgatsby_chinese.wav,,,,,,,,,0,1,1,0,0,84,84,45,768.132735654,8.98027792573e-06,769.217527291,1.08480125875,,,,,z,1,1.0671678721,2018_Nov_28_1540,59.983743737,chinese_cond2,001,1066,
images/bracelet02a.jpg,chess knight,x,sounds/greatgatsby_chinese.wav,,,,,,,,,0,1,1,0,0,85,85,152,770.403814495,9.30088572204e-06,771.401430876,0.997626644792,,,,,x,1,0.983819491463,2018_Nov_28_1540,59.983743737,chinese_cond2,001,1066,
images/candycane01a.jpg,lip,x,sounds/greatgatsby_chinese.wav,,,,,,,,,0,1,1,0,0,86,86,200,772.565605146,8.98027792573e-06,773.268592912,0.702997066313,,,,,x,1,0.683743383968,2018_Nov_28_1540,59.983743737,chinese_cond2,001,1066,
images/diaper01a.jpg,camera,x,sounds/greatgatsby_chinese.wav,,,,,,,,,0,1,1,0,0,87,87,143,774.387350787,9.30088572204e-06,775.085711152,0.698369986145,,,,,x,1,0.683737290092,2018_Nov_28_1540,59.983743737,chinese_cond2,001,1066,
images/showerhead01.jpg,skateboard,x,sounds/greatgatsby_chinese.wav,,,,,,,,,0,1,1,0,0,88,88,223,776.191334752,9.621726349e-06,776.852836913,0.661512102932,,,,,x,1,0.650394217577,2018_Nov_28_1540,59.983743737,chinese_cond2,001,1066,
images/volleyball.jpg,volley ball,z,sounds/greatgatsby_chinese.wav,,,,,,,,,0,1,1,0,0,89,89,2,777.984418603,9.621726349e-06,778.870041813,0.885633472586,,,,,z,1,0.867125793127,2018_Nov_28_1540,59.983743737,chinese_cond2,001,1066,
images/banana04a.jpg,banana,z,sounds/greatgatsby_chinese.wav,,,,,,,,,0,1,1,0,0,90,90,118,779.975470734,8.65943729877e-06,781.554075452,1.57861401839,,,,,z,1,1.56731716916,2018_Nov_28_1540,59.983743737,chinese_cond2,001,1066,
images/bowl02b (1).jpg,bowl,z,sounds/greatgatsby_chinese.wav,,,,,,,,,0,1,1,0,0,91,91,24,782.670039183,9.621726349e-06,783.354529532,0.684500291711,,,,,z,1,0.667053566314,2018_Nov_28_1540,59.983743737,chinese_cond2,001,1066,
images/floorlamp.jpg,floor lamp,z,sounds/greatgatsby_chinese.wav,,,,,,,,,0,1,1,0,0,92,92,26,784.445682081,9.621726349e-06,785.905189918,1.45951713785,,,,,z,1,1.45059203962,2018_Nov_28_1540,59.983743737,chinese_cond2,001,1066,
images/pipe.jpg,icecube,x,sounds/greatgatsby_chinese.wav,,,,,,,,,0,1,1,0,0,93,93,188,787.012043173,9.30111855268e-06,787.772357405,0.760324174771,,,,,x,1,0.750444282312,2018_Nov_28_1540,59.983743737,chinese_cond2,001,1066,
images/bottleofredwine02.jpg,pipe,x,sounds/greatgatsby_chinese.wav,,,,,,,,,0,1,1,0,0,94,94,213,788.869408063,8.65967012942e-06,789.772871205,0.903472443111,,,,,x,1,0.883803423261,2018_Nov_28_1540,59.983743737,chinese_cond2,001,1066,
images/swallow.jpg,mattress,x,sounds/greatgatsby_chinese.wav,,,,,,,,,0,1,1,0,0,95,95,202,790.873019732,9.30088572204e-06,792.9236899,2.05067882757,,,,,x,1,2.03410318773,2018_Nov_28_1540,59.983743737,chinese_cond2,001,1066,
images/seagull.jpg,seagull,z,sounds/greatgatsby_chinese.wav,,,,,,,,,0,1,1,0,0,96,96,50,794.029921914,8.98027792573e-06,794.824170312,0.794258020353,,,,,z,1,0.783767790999,2018_Nov_28_1540,59.983743737,chinese_cond2,001,1066,
images/doorhandle.jpg,doll,x,sounds/greatgatsby_chinese.wav,,,,,,,,,0,1,1,0,0,97,97,168,795.925239957,9.30111855268e-06,796.674683582,0.749453567201,,,,,x,1,0.733788461657,2018_Nov_28_1540,59.983743737,chinese_cond2,001,1066,
images/lipstick04.jpg,lipstick,z,sounds/greatgatsby_chinese.wav,,,,,,,,,0,1,1,0,0,98,98,56,797.773085448,9.30111855268e-06,798.691826582,0.918750755722,,,,,z,1,0.900453471113,2018_Nov_28_1540,59.983743737,chinese_cond2,001,1066,
images/ladder.jpg,ladder,z,sounds/greatgatsby_chinese.wav,,,,,,,,,0,1,1,0,0,99,99,113,799.782577906,9.621726349e-06,800.625679573,0.843112251023,,,,,z,1,0.833790738601,2018_Nov_28_1540,59.983743737,chinese_cond2,001,1066,
images/paintbrush03a.jpg,paint brush,z,sounds/greatgatsby_chinese.wav,,,,,,,,,0,1,1,0,0,100,100,0,801.725127319,8.65943729877e-06,804.460021636,2.73490425921,,,,,z,1,2.71761917858,2018_Nov_28_1540,59.983743737,chinese_cond2,001,1066,
images/calculator02b.jpg,dice,x,sounds/greatgatsby_chinese.wav,,,,,,,,,0,1,1,0,0,101,101,165,805.560593839,8.98027792573e-06,807.177373972,1.61678943434,,,,,x,1,1.60063779098,2018_Nov_28_1540,59.983743737,chinese_cond2,001,1066,
images/thumbtack02a.jpg,thumb tack,z,sounds/greatgatsby_chinese.wav,,,,,,,,,0,1,1,0,0,102,102,60,808.286439259,9.30111855268e-06,808.911142228,0.624712912366,,,,,z,1,0.600378004834,2018_Nov_28_1540,59.983743737,chinese_cond2,001,1066,
images/plant01.jpg,plant,z,sounds/greatgatsby_chinese.wav,,,,,,,,,0,1,1,0,0,103,103,47,810.021549102,8.98027792573e-06,810.728298956,0.706759475404,,,,,z,1,0.683756854152,2018_Nov_28_1540,59.983743737,chinese_cond2,001,1066,
images/icecube02 (2).jpg,aloe,x,sounds/greatgatsby_chinese.wav,,,,,,,,,0,1,1,0,0,104,104,122,811.837542243,9.621726349e-06,812.845497473,1.00796517194,,,,,x,1,0.983817887958,2018_Nov_28_1540,59.983743737,chinese_cond2,001,1066,
images/ashtray02b.jpg,ashtray,z,sounds/greatgatsby_chinese.wav,,,,,,,,,0,1,1,0,0,105,105,43,813.958423951,8.98027792573e-06,814.862711353,0.904297023546,,,,,z,1,0.883811120642,2018_Nov_28_1540,59.983743737,chinese_cond2,001,1066,
images/pen03c.jpg,pepper,x,sounds/greatgatsby_chinese.wav,,,,,,,,,0,1,1,0,0,106,106,211,815.955656427,9.30111855268e-06,817.163316334,1.2076695289,,,,,x,1,1.18389620888,2018_Nov_28_1540,59.983743737,chinese_cond2,001,1066,
images/pictureframe04.jpg,picture frame,z,sounds/greatgatsby_chinese.wav,,,,,,,,,0,1,1,0,0,107,107,41,818.283631002,9.94233414531e-06,819.063797708,0.780176327331,,,,,z,1,0.767105876468,2018_Nov_28_1540,59.983743737,chinese_cond2,001,1066,
images/highheelshoe02a.jpg,high heel shoe,z,sounds/greatgatsby_chinese.wav,,,,,,,,,0,1,1,0,0,108,108,75,820.169193595,9.30111855268e-06,820.980940355,0.811756703071,,,,,z,1,0.800430667819,2018_Nov_28_1540,59.983743737,chinese_cond2,001,1066,
images/tape01a.jpg,tie,x,sounds/greatgatsby_chinese.wav,,,,,,,,,0,1,1,0,0,109,109,232,822.104887861,9.30111855268e-06,822.731405485,0.626526925247,,,,,x,1,0.617060125107,2018_Nov_28_1540,59.983743737,chinese_cond2,001,1066,
images/doll.jpg,carrot,x,sounds/greatgatsby_chinese.wav,,,,,,,,,0,1,1,0,0,110,110,146,823.912417746,9.94256697595e-06,824.565212901,0.652805097168,,,,,x,1,0.633723001927,2018_Nov_28_1540,59.983743737,chinese_cond2,001,1066,
images/arrow02.jpg,hammer,x,sounds/greatgatsby_chinese.wav,,,,,,,,,0,1,1,0,0,111,111,184,825.662326741,2.98274680972e-05,826.999169326,1.33686311101,,,,,x,1,1.31723674759,2018_Nov_28_1540,59.983743737,chinese_cond2,001,1066,
images/pingpongpaddle01c (1).jpg,ping pong paddle,z,sounds/greatgatsby_chinese.wav,,,,,,,,,0,1,1,0,0,112,112,10,828.109650928,9.30111855268e-06,828.782990998,0.673349371646,,,,,z,1,0.650417309487,2018_Nov_28_1540,59.983743737,chinese_cond2,001,1066,
images/graduationcap.jpg,graduation cap,z,sounds/greatgatsby_chinese.wav,,,,,,,,,0,1,1,0,0,113,113,35,829.88375756,8.98027792573e-06,830.516743218,0.632994959131,,,,,z,1,0.617047937587,2018_Nov_28_1540,59.983743737,chinese_cond2,001,1066,
images/croissant02b.jpg,croissant,z,sounds/greatgatsby_chinese.wav,,,,,,,,,0,1,1,0,0,114,114,39,831.69822117,9.621726349e-06,832.784018918,1.08580736886,,,,,z,1,1.0671819842,2018_Nov_28_1540,59.983743737,chinese_cond2,001,1066,
images/remotecontrol01c.jpg,remote control,z,sounds/greatgatsby_chinese.wav,,,,,,,,,0,1,1,0,0,115,115,85,833.892202214,9.30111855268e-06,834.684495481,0.79230256821,,,,,z,1,0.783761055674,2018_Nov_28_1540,59.983743737,chinese_cond2,001,1066,
images/cactus.jpg,cactus,z,sounds/greatgatsby_chinese.wav,,,,,,,,,0,1,1,0,0,116,116,70,835.874413276,9.30088572204e-06,836.584835737,0.71043240279,,,,,z,1,0.700250068214,2018_Nov_28_1540,59.983743737,chinese_cond2,001,1066,
images/beachumbrella01.jpg,beach umbrella,z,sounds/greatgatsby_chinese.wav,,,,,,,,,0,1,1,0,0,117,117,92,837.689675489,8.98027792573e-06,838.402121395,0.712455527624,,,,,z,1,0.700394714484,2018_Nov_28_1540,59.983743737,chinese_cond2,001,1066,
images/radish01.jpg,raisin,x,sounds/greatgatsby_chinese.wav,,,,,,,,,0,1,1,0,0,118,118,214,839.511891631,8.65967012942e-06,840.352652978,0.840770647628,,,,,x,1,0.817131069256,2018_Nov_28_1540,59.983743737,chinese_cond2,001,1066,
images/knife04.jpg,tooth brush,x,sounds/greatgatsby_chinese.wav,,,,,,,,,0,1,1,0,0,119,119,233,841.44807917,9.30111855268e-06,842.13643456,0.688365011942,,,,,x,1,0.667068640236,2018_Nov_28_1540,59.983743737,chinese_cond2,001,1066,
images/shotglass.jpg,shot glass,z,sounds/greatgatsby_chinese.wav,,,,,,,,,0,1,1,0,0,120,120,86,843.243849402,9.30111855268e-06,844.003570616,0.759730835911,,,,,z,1,0.750416700263,2018_Nov_28_1540,59.983743737,chinese_cond2,001,1066,
images/microphone01.jpg,diaper,x,sounds/greatgatsby_chinese.wav,,,,,,,,,0,1,1,0,0,121,121,164,845.169473587,8.65943729877e-06,845.904079894,0.734615928493,,,,,x,1,0.717086456483,2018_Nov_28_1540,59.983743737,chinese_cond2,001,1066,
images/hat05.jpg,hat,z,sounds/greatgatsby_chinese.wav,,,,,,,,,0,1,1,0,0,122,122,15,847.006056866,8.98027792573e-06,847.62142774,0.615380495321,,,,,z,1,0.600611812435,2018_Nov_28_1540,59.983743737,chinese_cond2,001,1066,
images/blueberry02.jpg,blueberry,z,sounds/greatgatsby_chinese.wav,,,,,,,,,0,1,1,0,0,123,123,46,848.733659851,8.65943729877e-06,849.671723624,0.938073393656,,,,,z,1,0.91714200587,2018_Nov_28_1540,59.983743737,chinese_cond2,001,1066,
images/basketball01.jpg,basket ball,z,sounds/greatgatsby_chinese.wav,,,,,,,,,0,1,1,0,0,124,124,33,850.809435947,8.98027792573e-06,852.139012216,1.32958557061,,,,,z,1,1.31722231512,2018_Nov_28_1540,59.983743737,chinese_cond2,001,1066,
images/toothbrush03a.jpg,parrot,x,sounds/greatgatsby_chinese.wav,,,,,,,,,0,1,1,0,0,125,125,210,853.229902413,9.30111855268e-06,854.606325184,1.37643207121,,,,,x,1,1.36725199781,2018_Nov_28_1540,59.983743737,chinese_cond2,001,1066,
images/cherry01.jpg,highlighter,x,sounds/greatgatsby_chinese.wav,,,,,,,,,0,1,1,0,0,126,126,187,855.713695445,9.30111855268e-06,856.44030996,0.726624778006,,,,,x,1,0.717250987655,2018_Nov_28_1540,59.983743737,chinese_cond2,001,1066,
images/eyedrops.jpg,bicycle,x,sounds/greatgatsby_chinese.wav,,,,,,,,,0,1,1,0,0,127,127,131,857.53900593,8.98027792573e-06,858.407149059,0.868153071264,,,,,x,1,0.850281066261,2018_Nov_28_1540,59.983743737,chinese_cond2,001,1066,
images/medal01.jpg,medal,z,sounds/greatgatsby_chinese.wav,,,,,,,,,0,1,1,0,0,128,128,115,859.507047421,9.30088572204e-06,860.241124213,0.734086413868,,,,,z,1,0.717088701436,2018_Nov_28_1540,59.983743737,chinese_cond2,001,1066,
images/flashlight05.jpg,flash light,z,sounds/greatgatsby_chinese.wav,,,,,,,,,0,1,1,0,0,129,129,8,861.423841121,9.621726349e-06,862.258312756,0.83448189823,,,,,z,1,0.817111505195,2018_Nov_28_1540,59.983743737,chinese_cond2,001,1066,
images/snowman.jpg,globe,x,sounds/greatgatsby_chinese.wav,,,,,,,,,0,1,1,0,0,130,130,180,863.368509555,9.30111855268e-06,864.525566326,1.15706639201,,,,,x,1,1.13386203558,2018_Nov_28_1540,59.983743737,chinese_cond2,001,1066,
images/banjo.jpg,knife,x,sounds/greatgatsby_chinese.wav,,,,,,,,,0,1,1,0,0,131,131,191,865.62056371,8.98027792573e-06,866.509402816,0.888848085655,,,,,x,1,0.867116171634,2018_Nov_28_1540,59.983743737,chinese_cond2,001,1066,
images/candy.jpg,candy,z,sounds/greatgatsby_chinese.wav,,,,,,,,,0,1,1,0,0,132,132,31,867.60988682,8.98027792573e-06,868.659979685,1.0501021666,,,,,z,1,1.03384051495,2018_Nov_28_1540,59.983743737,chinese_cond2,001,1066,
images/apple06.jpg,apple,z,sounds/greatgatsby_chinese.wav,,,,,,,,,0,1,1,0,0,133,133,13,869.785713621,9.30088572204e-06,870.843859858,1.05815585819,,,,,z,1,1.03382063028,2018_Nov_28_1540,59.983743737,chinese_cond2,001,1066,
images/key03b.jpg,cigar,x,sounds/greatgatsby_chinese.wav,,,,,,,,,0,1,1,0,0,134,134,153,871.944450342,8.98027792573e-06,872.977753004,1.03331228299,,,,,x,1,1.01714075496,2018_Nov_28_1540,59.983743737,chinese_cond2,001,1066,
images/table02.jpg,table,z,sounds/greatgatsby_chinese.wav,,,,,,,,,0,1,1,0,0,135,135,49,874.090940872,9.30111855268e-06,874.84489772,0.753966469551,,,,,z,1,0.733753502602,2018_Nov_28_1540,59.983743737,chinese_cond2,001,1066,
images/bandaid01.jpg,door handle,x,sounds/greatgatsby_chinese.wav,,,,,,,,,0,1,1,0,0,136,136,170,876.025237744,8.98027792573e-06,877.028809965,1.00358120026,,,,,x,1,0.983821415808,2018_Nov_28_1540,59.983743737,chinese_cond2,001,1066,
images/notebook02b.jpg,notebook,z,sounds/greatgatsby_chinese.wav,,,,,,,,,0,1,1,0,0,137,137,7,878.133648754,9.30111855268e-06,879.129579733,0.995940600755,,,,,z,1,0.984051054111,2018_Nov_28_1540,59.983743737,chinese_cond2,001,1066,
images/redfox.jpg,red fox,z,sounds/greatgatsby_chinese.wav,,,,,,,,,0,1,1,0,0,138,138,1,880.27361384,8.98027792573e-06,882.396857999,2.12325410079,,,,,z,1,2.10077201389,2018_Nov_28_1540,59.983743737,chinese_cond2,001,1066,
images/magnifyingglass01b.jpg,magnifying glass,z,sounds/greatgatsby_chinese.wav,,,,,,,,,0,1,1,0,0,139,139,64,883.5020297,8.98027792573e-06,884.514071911,1.01205215347,,,,,z,1,1.00049070711,2018_Nov_28_1540,59.983743737,chinese_cond2,001,1066,
images/lily.jpg,kiwi,x,sounds/greatgatsby_chinese.wav,,,,,,,,,0,1,1,0,0,140,140,190,885.686396731,8.65943729877e-06,886.481292029,0.794904919807,,,,,x,1,0.783807239961,2018_Nov_28_1540,59.983743737,chinese_cond2,001,1066,
images/grandpiano.jpg,tulip,x,sounds/greatgatsby_chinese.wav,,,,,,,,,0,1,1,0,0,141,141,236,887.594341024,8.98027792573e-06,888.415083441,0.820752039319,,,,,x,1,0.800434195669,2018_Nov_28_1540,59.983743737,chinese_cond2,001,1066,
images/lock02a.jpg,lock,z,sounds/greatgatsby_chinese.wav,,,,,,,,,0,1,1,0,0,142,142,65,889.605345052,9.30111855268e-06,890.232228943,0.626893191831,,,,,z,1,0.617056917865,2018_Nov_28_1540,59.983743737,chinese_cond2,001,1066,
images/giraffe.jpg,lettuce,x,sounds/greatgatsby_chinese.wav,,,,,,,,,0,1,1,0,0,143,143,195,891.331766492,8.98004509509e-06,892.166060766,0.834304217249,,,,,x,1,0.817088412819,2018_Nov_28_1540,59.983743737,chinese_cond2,001,1066,
images/50dollarbill.jpg,cherry,x,sounds/greatgatsby_chinese.wav,,,,,,,,,0,1,1,0,0,144,144,151,893.286720854,1.05837825686e-05,894.450003191,1.16329260031,,,,,x,1,1.15053870343,2018_Nov_28_1540,59.983743737,chinese_cond2,001,1066,
images/ruler02b.jpg,watermelon,x,sounds/greatgatsby_chinese.wav,,,,,,,,,0,1,1,0,0,145,145,238,895.551028577,8.98027792573e-06,896.317134758,0.766115481732,,,,,x,1,0.750418624608,2018_Nov_28_1540,59.983743737,chinese_cond2,001,1066,
images/lamp04b.jpg,parking meter,x,sounds/greatgatsby_chinese.wav,,,,,,,,,0,1,1,0,0,146,146,209,897.437617485,8.98027792573e-06,898.534373718,1.09676585463,,,,,x,1,1.08382690023,2018_Nov_28_1540,59.983743737,chinese_cond2,001,1066,
images/feather03b.jpg,feather,z,sounds/greatgatsby_chinese.wav,,,,,,,,,0,1,1,0,0,147,147,114,899.633821464,8.98027792573e-06,900.468216446,0.834404283203,,,,,z,1,0.817108939402,2018_Nov_28_1540,59.983743737,chinese_cond2,001,1066,
images/mitten01.jpg,mitten,z,sounds/greatgatsby_chinese.wav,,,,,,,,,0,1,1,0,0,148,148,102,901.587300498,9.94256697595e-06,902.768831049,1.18154017278,,,,,z,1,1.16722627589,2018_Nov_28_1540,59.983743737,chinese_cond2,001,1066,
images/crocodile.jpg,triangle ruler,x,sounds/greatgatsby_chinese.wav,,,,,,,,,0,1,1,0,0,149,149,235,903.864627997,9.30111855268e-06,905.769592447,1.90497407131,,,,,x,1,1.8840600024,2018_Nov_28_1540,59.983743737,chinese_cond2,001,1066,
images/hairpin.jpg,hair pin,z,sounds/greatgatsby_chinese.wav,,,,,,,,,0,1,1,0,0,150,150,28,906.859549018,9.30111855268e-06,907.586728006,0.727188610239,,,,,z,1,0.717085494427,2018_Nov_28_1540,59.983743737,chinese_cond2,001,1066,
images/puzzle.jpg,puzzle,z,sounds/greatgatsby_chinese.wav,,,,,,,,,0,1,1,0,0,151,151,57,908.735420304,9.30088572204e-06,909.770627743,1.03521706094,,,,,z,1,1.01715518767,2018_Nov_28_1540,59.983743737,chinese_cond2,001,1066,
images/blackolive.jpg,tank,x,sounds/greatgatsby_chinese.wav,,,,,,,,,0,1,1,0,0,152,152,229,910.924030829,9.621726349e-06,913.221519339,2.29749813094,,,,,x,1,2.28411240852,2018_Nov_28_1540,59.983743737,chinese_cond2,001,1066,
images/mirror02.jpg,8 ball,x,sounds/greatgatsby_chinese.wav,,,,,,,,,0,1,1,0,0,153,153,121,914.321645094,9.30088572204e-06,915.15535469,0.833719217451,,,,,x,1,0.817116957391,2018_Nov_28_1540,59.983743737,chinese_cond2,001,1066,
images/printer03a.jpg,printer,z,sounds/greatgatsby_chinese.wav,,,,,,,,,0,1,1,0,0,154,154,72,916.263342024,9.30111855268e-06,917.0558521,0.792520660209,,,,,z,1,0.78377516754,2018_Nov_28_1540,59.983743737,chinese_cond2,001,1066,
images/puma.jpg,puma,z,sounds/greatgatsby_chinese.wav,,,,,,,,,0,1,1,0,0,155,155,4,918.153298851,8.65943729877e-06,919.056371031,0.903082122328,,,,,z,1,0.883755314862,2018_Nov_28_1540,59.983743737,chinese_cond2,001,1066,
images/grasshopper.jpg,cauliflower,x,sounds/greatgatsby_chinese.wav,,,,,,,,,0,1,1,0,0,156,156,148,920.148810324,8.98027792573e-06,920.923522482,0.774721780326,,,,,x,1,0.750432095025,2018_Nov_28_1540,59.983743737,chinese_cond2,001,1066,
images/licenseplate.jpg,license plate,z,sounds/greatgatsby_chinese.wav,,,,,,,,,0,1,1,0,0,157,157,40,922.039959922,8.98027792573e-06,922.824009629,0.784059008118,,,,,z,1,0.767090481706,2018_Nov_28_1540,59.983743737,chinese_cond2,001,1066,
images/bull.jpg,button,x,sounds/greatgatsby_chinese.wav,,,,,,,,,0,1,1,0,0,158,158,141,923.928966766,8.65943729877e-06,924.591132183,0.662174717989,,,,,x,1,0.650382030057,2018_Nov_28_1540,59.983743737,chinese_cond2,001,1066,
images/cloud.jpg,ceiling fan,x,sounds/greatgatsby_chinese.wav,,,,,,,,,0,1,1,0,0,159,159,149,925.69465344,8.65943729877e-06,926.458292615,0.763648154447,,,,,x,1,0.750431453343,2018_Nov_28_1540,59.983743737,chinese_cond2,001,1066,
images/flipflop01b.jpg,flip flop,z,sounds/greatgatsby_chinese.wav,,,,,,,,,0,1,1,0,0,160,160,27,927.573780071,9.30111855268e-06,928.292111577,0.718341127504,,,,,z,1,0.700429031858,2018_Nov_28_1540,59.983743737,chinese_cond2,001,1066,
images/pouch01b.jpg,pouch,z,sounds/greatgatsby_chinese.wav,,,,,,,,,0,1,1,0,0,161,161,25,929.402841419,9.30088572204e-06,930.209251338,0.806419540429,,,,,z,1,0.783764583757,2018_Nov_28_1540,59.983743737,chinese_cond2,001,1066,
images/plate01b.jpg,plate,z,sounds/greatgatsby_chinese.wav,,,,,,,,,0,1,1,0,0,162,162,3,931.308712875,8.98027792573e-06,931.95971326,0.651010006899,,,,,z,1,0.633729095804,2018_Nov_28_1540,59.983743737,chinese_cond2,001,1066,
images/donut.jpg,rhinoceros,x,sounds/greatgatsby_chinese.wav,,,,,,,,,0,1,1,0,0,163,163,216,933.084231974,8.98027792573e-06,933.760186264,0.675963910995,,,,,x,1,0.667084676446,2018_Nov_28_1540,59.983743737,chinese_cond2,001,1066,
images/cat.jpg,black olive,x,sounds/greatgatsby_chinese.wav,,,,,,,,,0,1,1,0,0,164,164,133,934.958298228,9.30111855268e-06,935.927409974,0.969121368136,,,,,x,1,0.950477701845,2018_Nov_28_1540,59.983743737,chinese_cond2,001,1066,
images/tissuebox03.jpg,tissue box,z,sounds/greatgatsby_chinese.wav,,,,,,,,,0,1,1,0,0,165,165,58,937.051376081,8.98027792573e-06,937.861254305,0.809887846233,,,,,z,1,0.800457287813,2018_Nov_28_1540,59.983743737,chinese_cond2,001,1066,
images/birthdaycandle.jpg,birthday candle,z,sounds/greatgatsby_chinese.wav,,,,,,,,,0,1,1,0,0,166,166,55,938.95624271,9.30088572204e-06,939.878420718,0.92218763032,,,,,z,1,0.900455716066,2018_Nov_28_1540,59.983743737,chinese_cond2,001,1066,
images/cake.jpg,cake,z,sounds/greatgatsby_chinese.wav,,,,,,,,,0,1,1,0,0,167,167,23,940.991049565,8.98027792573e-06,941.795593834,0.804553891066,,,,,z,1,0.783777412726,2018_Nov_28_1540,59.983743737,chinese_cond2,001,1066,
images/hammer02a.jpg,flower,x,sounds/greatgatsby_chinese.wav,,,,,,,,,0,1,1,0,0,168,168,176,942.889702494,8.98027792573e-06,944.246244246,1.35655169468,,,,,x,1,1.33392624464,2018_Nov_28_1540,59.983743737,chinese_cond2,001,1066,
images/cocktailshrimp01.jpg,cocktail shrimp,z,sounds/greatgatsby_chinese.wav,,,,,,,,,0,1,1,0,0,169,169,30,945.359721727,1.02631747723e-05,946.080053266,0.7203427637,,,,,z,1,0.70042839041,2018_Nov_28_1540,59.983743737,chinese_cond2,001,1066,
images/dresser02.jpg,dresser,z,sounds/greatgatsby_chinese.wav,,,,,,,,,0,1,1,0,0,170,170,87,947.200844209,8.98027792573e-06,947.863823622,0.662989035249,,,,,z,1,0.650394538185,2018_Nov_28_1540,59.983743737,chinese_cond2,001,1066,
images/corn01.jpg,corn,z,sounds/greatgatsby_chinese.wav,,,,,,,,,0,1,1,0,0,171,171,22,948.962593359,9.30088572204e-06,949.78103266,0.818448922597,,,,,z,1,0.800479417667,2018_Nov_28_1540,59.983743737,chinese_cond2,001,1066,
images/ladybug03.jpg,giraffe,x,sounds/greatgatsby_chinese.wav,,,,,,,,,0,1,1,0,0,172,172,178,950.953430284,8.98027792573e-06,951.564779604,0.611358620692,,,,,x,1,0.600380570861,2018_Nov_28_1540,59.983743737,chinese_cond2,001,1066,
images/broom02.jpg,broom,z,sounds/greatgatsby_chinese.wav,,,,,,,,,0,1,1,0,0,173,173,116,952.657640968,8.98027792573e-06,953.61532052,0.957689173287,,,,,z,1,0.933807769092,2018_Nov_28_1540,59.983743737,chinese_cond2,001,1066,
images/paperclip04.jpg,eye drops,x,sounds/greatgatsby_chinese.wav,,,,,,,,,0,1,1,0,0,174,174,174,954.721180815,1.02631747723e-05,955.899242419,1.17807122576,,,,,x,1,1.16719901445,2018_Nov_28_1540,59.983743737,chinese_cond2,001,1066,
images/bullet (2).jpg,rubber glove,x,sounds/greatgatsby_chinese.wav,,,,,,,,,0,1,1,0,0,175,175,217,957.002907039,9.62149351835e-06,957.799725076,0.796827337472,,,,,x,1,0.783759131329,2018_Nov_28_1540,59.983743737,chinese_cond2,001,1066,
images/mattress.jpg,cat,x,sounds/greatgatsby_chinese.wav,,,,,,,,,0,1,1,0,0,176,176,147,958.902386793,9.30111855268e-06,960.417079304,1.51470213267,,,,,x,1,1.50062204362,2018_Nov_28_1540,59.983743737,chinese_cond2,001,1066,
images/bicycle.jpg,hand bag,x,sounds/greatgatsby_chinese.wav,,,,,,,,,0,1,1,0,0,177,177,186,961.52615742,9.62149351835e-06,962.63432468,1.1081775229,,,,,x,1,1.08383780485,2018_Nov_28_1540,59.983743737,chinese_cond2,001,1066,
images/aloe02.jpg,broad sword,x,sounds/greatgatsby_chinese.wav,,,,,,,,,0,1,1,0,0,178,178,137,963.755304849,9.30088572204e-06,964.885098506,1.12980359839,,,,,x,1,1.11737780203,2018_Nov_28_1540,59.983743737,chinese_cond2,001,1066,
images/kiwi03.jpg,backpack,x,sounds/greatgatsby_chinese.wav,,,,,,,,,0,1,1,0,0,179,179,125,966.012287244,8.65943729877e-06,966.935441215,0.923163271742,,,,,x,1,0.90045988583,2018_Nov_28_1540,59.983743737,chinese_cond2,001,1066,
images/treadmill.jpg,lily,x,sounds/greatgatsby_chinese.wav,,,,,,,,,0,1,1,0,0,180,180,199,968.040043631,8.98027792573e-06,968.735905238,0.695870586904,,,,,x,1,0.683743063128,2018_Nov_28_1540,59.983743737,chinese_cond2,001,1066,
images/lemon02.jpg,lemon,z,sounds/greatgatsby_chinese.wav,,,,,,,,,0,1,1,0,0,181,181,14,969.846375294,9.621726349e-06,970.636402007,0.790036014048,,,,,z,1,0.767064502928,2018_Nov_28_1540,59.983743737,chinese_cond2,001,1066,
images/stapler03a.jpg,candy cane,x,sounds/greatgatsby_chinese.wav,,,,,,,,,0,1,1,0,0,182,182,145,971.745623485,9.621726349e-06,972.686918548,0.941304684617,,,,,x,1,0.91712596966,2018_Nov_28_1540,59.983743737,chinese_cond2,001,1066,
images/bench02.jpg,electric toothbrush,x,sounds/greatgatsby_chinese.wav,,,,,,,,,0,1,1,0,0,183,183,172,973.794012667,9.30111855268e-06,974.787476319,0.993473273702,,,,,x,1,0.983828151133,2018_Nov_28_1540,59.983743737,chinese_cond2,001,1066,
images/lightbulb03b.jpg,treadmill,x,sounds/greatgatsby_chinese.wav,,,,,,,,,0,1,1,0,0,184,184,234,975.889370545,9.30088572204e-06,976.787995891,0.898634326411,,,,,x,1,0.883788028732,2018_Nov_28_1540,59.983743737,chinese_cond2,001,1066,
images/parkfountain.jpg,park fountain,z,sounds/greatgatsby_chinese.wav,,,,,,,,,0,1,1,0,0,185,185,93,977.906932089,9.621726349e-06,978.888534739,0.981612271396,,,,,z,1,0.967149558943,2018_Nov_28_1540,59.983743737,chinese_cond2,001,1066,
images/masquerademask02b.jpg,mirror,x,sounds/greatgatsby_chinese.wav,,,,,,,,,0,1,1,0,0,186,186,204,979.992149006,8.65943729877e-06,980.739012729,0.746872703778,,,,,x,1,0.733754785499,2018_Nov_28_1540,59.983743737,chinese_cond2,001,1066,
images/radio03a.jpg,radio,z,sounds/greatgatsby_chinese.wav,,,,,,,,,0,1,1,0,0,187,187,37,981.851678459,8.98027792573e-06,982.656201561,0.804532402428,,,,,z,1,0.783791845199,2018_Nov_28_1540,59.983743737,chinese_cond2,001,1066,
images/button07.jpg,radish,x,sounds/greatgatsby_chinese.wav,,,,,,,,,0,1,1,0,0,188,188,215,983.767051995,8.98027792573e-06,984.723487459,0.956445086282,,,,,x,1,0.933907514205,2018_Nov_28_1540,59.983743737,chinese_cond2,001,1066,
images/cigar.jpg,crocodile,x,sounds/greatgatsby_chinese.wav,,,,,,,,,0,1,1,0,0,189,189,162,985.8201231,9.30088572204e-06,986.62405158,0.803938101511,,,,,x,1,0.783946113428,2018_Nov_28_1540,59.983743737,chinese_cond2,001,1066,
images/scissors04a.jpg,leek,x,sounds/greatgatsby_chinese.wav,,,,,,,,,0,1,1,0,0,190,190,194,987.718386029,9.621726349e-06,988.541037394,0.822660986334,,,,,x,1,0.800439006416,2018_Nov_28_1540,59.983743737,chinese_cond2,001,1066,
images/aquarium.jpg,computer mouse,x,sounds/greatgatsby_chinese.wav,,,,,,,,,0,1,1,0,0,191,191,159,989.676669182,9.30088572204e-06,990.808291605,1.13163172337,,,,,x,1,1.11718408461,2018_Nov_28_1540,59.983743737,chinese_cond2,001,1066,
images/elbow.jpg,elbow,z,sounds/greatgatsby_chinese.wav,,,,,,,,,0,1,1,0,0,192,192,105,991.918752039,9.30111855268e-06,992.692104649,0.773361591157,,,,,z,1,0.750411889516,2018_Nov_28_1540,59.983743737,chinese_cond2,001,1066,
images/sunglasses03a.jpg,sun glasses,z,sounds/greatgatsby_chinese.wav,,,,,,,,,0,1,1,0,0,193,193,17,993.799239179,9.30111855268e-06,994.525918801,0.726689564297,,,,,z,1,0.717076514149,2018_Nov_28_1540,59.983743737,chinese_cond2,001,1066,
images/leaf01a.jpg,leaf,z,sounds/greatgatsby_chinese.wav,,,,,,,,,0,1,1,0,0,194,194,68,995.62760584,8.65943729877e-06,996.793177823,1.16558128432,,,,,z,1,1.15053677931,2018_Nov_28_1540,59.983743737,chinese_cond2,001,1066,
images/barrel01.jpg,barrel,z,sounds/greatgatsby_chinese.wav,,,,,,,,,0,1,1,0,0,195,195,9,997.921976274,8.98027792573e-06,998.74367573,0.821709399344,,,,,z,1,0.800430667819,2018_Nov_28_1540,59.983743737,chinese_cond2,001,1066,
images/skateboard.jpg,key,x,sounds/greatgatsby_chinese.wav,,,,,,,,,0,1,1,0,0,196,196,189,999.863721632,8.65943729877e-06,1000.6941916,0.830479587661,,,,,x,1,0.817112146644,2018_Nov_28_1540,59.983743737,chinese_cond2,001,1066,
images/dice05a.jpg,band aid,x,sounds/greatgatsby_chinese.wav,,,,,,,,,0,1,1,0,0,197,197,126,1001.80555551,8.98027792573e-06,1003.81166049,2.0061145965,,,,,x,1,1.984078957,2018_Nov_28_1540,59.983743737,chinese_cond2,001,1066,
images/ant.jpg,ant,z,sounds/greatgatsby_chinese.wav,,,,,,,,,0,1,1,0,0,198,198,98,1004.90558505,9.94256697595e-06,1005.69548059,0.789905158803,,,,,z,1,0.767089198809,2018_Nov_28_1540,59.983743737,chinese_cond2,001,1066,
images/atm.jpg,atm,z,sounds/greatgatsby_chinese.wav,,,,,,,,,0,1,1,0,0,199,199,96,1006.8333584,9.30111855268e-06,1007.56263043,0.729281973559,,,,,z,1,0.717073306907,2018_Nov_28_1540,59.983743737,chinese_cond2,001,1066,
images/tulip02.jpg,sport shorts,x,sounds/greatgatsby_chinese.wav,,,,,,,,,0,1,1,0,0,200,200,225,1008.65622016,8.98027792573e-06,1009.36309702,0.706886161352,,,,,x,1,0.683739535278,2018_Nov_28_1540,59.983743737,chinese_cond2,001,1066,
images/parrot01.jpg,chameleon,x,sounds/greatgatsby_chinese.wav,,,,,,,,,0,1,1,0,0,201,201,150,1010.51137719,9.30088572204e-06,1011.66369687,1.15232898295,,,,,x,1,1.13385530026,2018_Nov_28_1540,59.983743737,chinese_cond2,001,1066,
images/hairband.jpg,hairband,z,sounds/greatgatsby_chinese.wav,,,,,,,,,0,1,1,0,0,202,202,66,1012.77214861,8.65943729877e-06,1013.43082777,0.65868909331,,,,,z,1,0.650409291498,2018_Nov_28_1540,59.983743737,chinese_cond2,001,1066,
images/backpack01b.jpg,swallow,x,sounds/greatgatsby_chinese.wav,,,,,,,,,0,1,1,0,0,203,203,228,1014.56164228,3.23930289596e-05,1015.5146877,0.95307235606,,,,,x,1,0.933799430495,2018_Nov_28_1540,59.983743737,chinese_cond2,001,1066,
images/marker01a.jpg,marker,z,sounds/greatgatsby_chinese.wav,,,,,,,,,0,1,1,0,0,204,204,95,1016.61186023,3.07895243168e-05,1017.33183288,0.719987722579,,,,,z,1,0.700412675273,2018_Nov_28_1540,59.983743737,chinese_cond2,001,1066,
images/swan.jpg,swan,z,sounds/greatgatsby_chinese.wav,,,,,,,,,0,1,1,0,0,205,205,54,1018.42271121,9.621726349e-06,1019.29900008,0.876299131196,,,,,z,1,0.867103983881,2018_Nov_28_1540,59.983743737,chinese_cond2,001,1066,
images/handfan01b.jpg,handfan,z,sounds/greatgatsby_chinese.wav,,,,,,,,,0,1,1,0,0,206,206,69,1020.41232939,8.98027792573e-06,1021.16615185,0.753832086455,,,,,z,1,0.733745805454,2018_Nov_28_1540,59.983743737,chinese_cond2,001,1066,
images/rhinoceros01.jpg,envelope,x,sounds/greatgatsby_chinese.wav,,,,,,,,,0,1,1,0,0,207,207,173,1022.27718895,8.98027792573e-06,1023.16651748,0.889339113608,,,,,x,1,0.866966072936,2018_Nov_28_1540,59.983743737,chinese_cond2,001,1066,
images/tent.jpg,tent,z,sounds/greatgatsby_chinese.wav,,,,,,,,,0,1,1,0,0,208,208,11,1024.36259798,8.98027792573e-06,1025.10051672,0.737928362563,,,,,z,1,0.717082928633,2018_Nov_28_1540,59.983743737,chinese_cond2,001,1066,
images/lollipop03b.jpg,lollipop,z,sounds/greatgatsby_chinese.wav,,,,,,,,,0,1,1,0,0,209,209,42,1026.19245215,9.621726349e-06,1027.15105026,0.958608367248,,,,,z,1,0.95048828586,2018_Nov_28_1540,59.983743737,chinese_cond2,001,1066,
images/sportshorts02.jpg,tape,x,sounds/greatgatsby_chinese.wav,,,,,,,,,0,1,1,0,0,210,210,230,1028.25764309,9.30111855268e-06,1029.63501873,1.37738494133,,,,,x,1,1.36725392239,2018_Nov_28_1540,59.983743737,chinese_cond2,001,1066,
images/hanger02a.jpg,hanger,z,sounds/greatgatsby_chinese.wav,,,,,,,,,0,1,1,0,0,211,211,88,1030.7283971,9.30111855268e-06,1031.63553798,0.907150501851,,,,,z,1,0.88378867018,2018_Nov_28_1540,59.983743737,chinese_cond2,001,1066,
images/beermug01b.jpg,beer mug,z,sounds/greatgatsby_chinese.wav,,,,,,,,,0,1,1,0,0,212,212,111,1032.75095487,9.30088572204e-06,1033.45267835,0.701733094407,,,,,z,1,0.683739214437,2018_Nov_28_1540,59.983743737,chinese_cond2,001,1066,
images/orange.jpg,bat,x,sounds/greatgatsby_chinese.wav,,,,,,,,,0,1,1,0,0,213,213,128,1034.57616626,8.98027792573e-06,1035.30315056,0.726993930992,,,,,x,1,0.717079079943,2018_Nov_28_1540,59.983743737,chinese_cond2,001,1066,
images/dragonfly02.jpg,dragon fly,z,sounds/greatgatsby_chinese.wav,,,,,,,,,0,1,1,0,0,214,214,29,1036.47594717,8.98027792573e-06,1037.85383051,1.37789264671,,,,,z,1,1.36725841253,2018_Nov_28_1540,59.983743737,chinese_cond2,001,1066,
images/broadsword.jpg,teapot,x,sounds/greatgatsby_chinese.wav,,,,,,,,,0,1,1,0,0,215,215,231,1038.94535639,8.65943729877e-06,1039.68762222,0.742274809396,,,,,x,1,0.733749333303,2018_Nov_28_1540,59.983743737,chinese_cond2,001,1066,
images/axe01.jpg,axe,z,sounds/greatgatsby_chinese.wav,,,,,,,,,0,1,1,0,0,216,216,104,1040.79067137,9.30088572204e-06,1041.57145418,0.780792758334,,,,,z,1,0.767102989834,2018_Nov_28_1540,59.983743737,chinese_cond2,001,1066,
images/charcoalbarbecue.jpg,charcoal barbecue,z,sounds/greatgatsby_chinese.wav,,,,,,,,,0,1,1,0,0,217,217,77,1042.68676268,9.30111855268e-06,1043.87204217,1.18528879085,,,,,z,1,1.16719901445,2018_Nov_28_1540,59.983743737,chinese_cond2,001,1066,
images/worldmap.jpg,scooter,x,sounds/greatgatsby_chinese.wav,,,,,,,,,0,1,1,0,0,218,218,220,1045.00138168,9.621726349e-06,1045.67251549,0.671144075692,,,,,x,1,0.650402556174,2018_Nov_28_1540,59.983743737,chinese_cond2,001,1066,
images/8ball.jpg,nail clipper,x,sounds/greatgatsby_chinese.wav,,,,,,,,,0,1,1,0,0,219,219,206,1046.78874574,8.65943729877e-06,1049.79010882,3.00137301791,,,,,None,0,,2018_Nov_28_1540,59.983743737,chinese_cond2,001,1066,
images/computerkeyboard01a.jpg,computer keyboard,z,sounds/greatgatsby_chinese.wav,,,,,,,,,0,1,1,0,0,220,220,61,1050.90599718,9.30111855268e-06,1051.79079549,0.884808250703,,,,,z,1,0.867152092746,2018_Nov_28_1540,59.983743737,chinese_cond2,001,1066,
images/comb02a.jpg,diploma,x,sounds/greatgatsby_chinese.wav,,,,,,,,,0,1,1,0,0,221,221,166,1052.89367466,8.98004509509e-06,1053.72460133,0.830936298007,,,,,x,1,0.817114712438,2018_Nov_28_1540,59.983743737,chinese_cond2,001,1066,
,,,sounds/greatgatsby_chinese.wav,,,,,,,,,0,1,1,0,,,,,,,,,,,,,,,,2018_Nov_28_1540,59.983743737,chinese_cond2,001,1066,
